schema_version: "1.0"
domain: ADVS
keys: [STUDYID, USUBJID, VSSEQ, AVISIT]
input:
  VS:
    path: ../../data/sdtm/vs.parquet
    empty_string: present
  ADSL:
    path: ../../data/adam/adsl-yamaa.parquet
    empty_string: present
base: VS

output:
  path: ../../data/adam/advs-yamaa.parquet
  columns: [STUDYID, SITEID, USUBJID, AGE, AGEGR1, AGEGR1N, RACE, RACEN, SEX,
    SAFFL, TRTSDT, TRTEDT, TRTP, TRTPN, TRTA, TRTAN, PARAMCD, PARAM, PARAMN,
    ADT, ADY, ATPTN, ATPT, AVISIT, AVISITN, AVAL, BASE, CHG, PCHG, VISITNUM,
    VISIT, VSSEQ, ANL01FL, ABLFL]
  order_by: [USUBJID, PARAMCD, ATPTN, VSSEQ]

intermediates:
  - id: ADSL1
    dataset: ADSL
    key: [STUDYID, USUBJID]
    order_by: [ADSL.USUBJID]
    keep: first

  - id: BASE1
    dataset: VS
    key: {USUBJID: USUBJID, VSTESTCD: PARAMCD, VSTPT: ATPT}
    filter: "VS.VISIT = 'BASELINE'"
    no_match: null

columns:
  - name: STUDYID
    type: str
    label: Study Identifier
    derivation: VS.STUDYID

  - name: USUBJID
    type: str
    label: Unique Subject Identifier
    derivation: VS.USUBJID

  - name: SITEID
    type: str
    label: Study Site Identifier
    derivation: ADSL1.SITEID

  - name: AGE
    type: float
    label: Age
    derivation: ADSL1.AGE

  - name: AGEGR1
    type: str
    label: Pooled Age Group 1
    derivation: ADSL1.AGEGR1

  - name: AGEGR1N
    type: float
    label: Pooled Age Group 1 (N)
    derivation: ADSL1.AGEGR1N

  - name: RACE
    type: str
    label: Race
    derivation: ADSL1.RACE

  - name: RACEN
    type: float
    label: Race (N)
    derivation: ADSL1.RACEN

  - name: SEX
    type: str
    label: Sex
    derivation: ADSL1.SEX

  - name: SAFFL
    type: str
    label: Safety Population Flag
    derivation: ADSL1.SAFFL

  - name: TRTSDT
    type: date
    label: Date of First Exposure to Treatment
    derivation: ADSL1.TRTSDT

  - name: TRTEDT
    type: date
    label: Date of Last Exposure to Treatment
    derivation: ADSL1.TRTEDT

  - name: TRTP
    type: str
    label: Planned Treatment
    derivation: ADSL1.TRT01P

  - name: TRTPN
    type: float
    label: Planned Treatment (N)
    derivation: ADSL1.TRT01PN

  - name: TRTA
    type: str
    label: Actual Treatment
    derivation: ADSL1.TRT01A

  - name: TRTAN
    type: float
    label: Actual Treatment (N)
    derivation: ADSL1.TRT01AN

  - name: PARAMCD
    type: str
    label: Parameter Code
    derivation: VS.VSTESTCD

  - name: PARAM
    type: str
    label: Parameter
    derivation:
      mapping:
        source: VS.VSTESTCD
        dict:
          SYSBP: Systolic Blood Pressure (mmHg)
          DIABP: Diastolic Blood Pressure (mmHg)
          PULSE: Pulse Rate (BEATS/MIN)
          WEIGHT: Weight (kg)
          HEIGHT: Height (cm)
          TEMP: Temperature (C)

  - name: PARAMN
    type: float
    label: Parameter Number
    derivation:
      mapping:
        source: VS.VSTESTCD
        dict:
          SYSBP: 1
          DIABP: 2
          PULSE: 3
          WEIGHT: 4
          HEIGHT: 5
          TEMP: 6

  - name: ADT
    type: date
    label: Analysis Date
    derivation:
      date_impute:
        source: VS.VSDTC
        month: 1
        day: 1
        missing: null
        invalid: null

  - name: ADY
    type: float
    label: Analysis Relative Day
    derivation: VS.VSDY

  - name: ATPTN
    type: float
    label: Analysis Timepoint (N)
    derivation: VS.VSTPTNUM

  - name: ATPT
    type: str
    label: Analysis Timepoint
    derivation: VS.VSTPT

  - name: _SRC_AVISIT
    type: str
    label: "Working value: _SRC_AVISIT"

  - name: _SRC_AVISITN
    type: float
    label: "Working value: _SRC_AVISITN"

  - name: _AVISIT_OUT
    type: str
    label: "Working value: _AVISIT_OUT"

  - name: _AVISITN_OUT
    type: float
    label: "Working value: _AVISITN_OUT"

  - name: _USUBJID
    type: str
    label: "Working value: _USUBJID"

  - name: _VSTESTCD
    type: str
    label: "Working value: _VSTESTCD"

  - name: _VSTPT
    type: str
    label: "Working value: _VSTPT"

  - name: _RANK
    type: float
    label: "Working value: _RANK"

  - name: AVISIT
    type: str
    label: Analysis Visit
    derivation: _AVISIT_OUT

  - name: AVISITN
    type: float
    label: Analysis Visit (N)
    derivation: _AVISITN_OUT

  - name: AVAL
    type: float
    label: Analysis Value
    derivation: VS.VSSTRESN

  - name: BASE
    type: float
    label: Baseline Value
    derivation: BASE1.VSSTRESN

  - name: CHG
    type: float
    label: Change from Baseline
    derivation:
      compute:
        expr: "AVAL - BASE"

  - name: PCHG
    type: float
    label: Percent Change from Baseline
    derivation:
      compute:
        expr: "(AVAL - BASE) / BASE * 100"

  - name: VISITNUM
    type: float
    label: Visit Number
    derivation: VS.VISITNUM

  - name: VISIT
    type: str
    label: Visit Name
    derivation: VS.VISIT

  - name: VSSEQ
    type: float
    label: Sequence Number
    derivation: VS.VSSEQ

  - name: ANL01FL
    type: str
    label: Analysis Record Flag 01
    derivation:
      case:
        - when: "_AVISIT_OUT <> ''"
          then: {literal: 'Y'}
        - otherwise: {literal: ''}

  - name: ABLFL
    type: str
    label: Baseline Record Flag
    derivation:
      case:
        - when: "VS.VISIT = 'BASELINE'"
          then: {literal: 'Y'}
        - otherwise: {literal: ''}

rows:
  - id: base
    dataset: VS
    derivations:
      _SRC_AVISIT:
        mapping:
          source: VS.VISIT
          dict:
            BASELINE: Baseline
            WEEK 2: Week 2
            WEEK 4: Week 4
            WEEK 6: Week 6
            WEEK 8: Week 8
            WEEK 12: Week 12
            WEEK 16: Week 16
            WEEK 20: Week 20
            WEEK 24: Week 24
            WEEK 26: Week 26
          missing: ''
          unmapped: ''
      _SRC_AVISITN:
        mapping:
          source: VS.VISIT
          dict:
            BASELINE: 0.0
            WEEK 2: 2.0
            WEEK 4: 4.0
            WEEK 6: 6.0
            WEEK 8: 8.0
            WEEK 12: 12.0
            WEEK 16: 16.0
            WEEK 20: 20.0
            WEEK 24: 24.0
            WEEK 26: 26.0
          missing: null
          unmapped: null
      _AVISIT_OUT: _SRC_AVISIT
      _AVISITN_OUT: _SRC_AVISITN
      _USUBJID: {literal: null}
      _VSTESTCD: {literal: null}
      _VSTPT: {literal: null}
      _RANK: {literal: null}

  - id: eot
    dataset: VS
    group_by: [VS.STUDYID, VS.USUBJID, VS.VSTESTCD, VS.VSTPT, VS.VSSEQ,
      VS.VISIT, VS.VSDTC, VS.VSDY, VS.VSTPTNUM, VS.VSSTRESN, VS.VISITNUM]
    filter: "_RANK = 1 AND _SRC_AVISITN > 2"
    derivations:
      _USUBJID: VS.USUBJID
      _VSTESTCD: VS.VSTESTCD
      _VSTPT: VS.VSTPT
      _SRC_AVISIT:
        mapping:
          source: VS.VISIT
          dict:
            BASELINE: Baseline
            WEEK 2: Week 2
            WEEK 4: Week 4
            WEEK 6: Week 6
            WEEK 8: Week 8
            WEEK 12: Week 12
            WEEK 16: Week 16
            WEEK 20: Week 20
            WEEK 24: Week 24
            WEEK 26: Week 26
          missing: ''
          unmapped: ''
      _SRC_AVISITN:
        mapping:
          source: VS.VISIT
          dict:
            BASELINE: 0.0
            WEEK 2: 2.0
            WEEK 4: 4.0
            WEEK 6: 6.0
            WEEK 8: 8.0
            WEEK 12: 12.0
            WEEK 16: 16.0
            WEEK 20: 20.0
            WEEK 24: 24.0
            WEEK 26: 26.0
          missing: null
          unmapped: null
      _AVISIT_OUT: {literal: 'End of Treatment'}
      _AVISITN_OUT: {literal: 99.0}
      _RANK:
        rank:
          window:
            group_by: [_USUBJID, _VSTESTCD, _VSTPT]
            order_by: [{variable: _SRC_AVISITN, direction: desc}]
            filter: "_SRC_AVISITN IS NOT NULL"
