{"adadas":["STUDYID","USUBJID","PARAMCD","AVISIT","QSSEQ"],"adae":["STUDYID","USUBJID","AESEQ"],"adlbc":["STUDYID","USUBJID","PARAMCD","AVISIT","LBSEQ"],"adtte":["STUDYID","USUBJID","PARAMCD"],"default":["STUDYID","USUBJID"]}