schema_version: "1.0"
domain: ADLBC
keys: [STUDYID, USUBJID, PARAMCD, AVISIT, LBSEQ]
input:
  LB: adlbc-lb.parquet
  ADSL: sdtm/adsl.parquet
base: LB

intermediates:
  # End-of-Treatment fallback candidates, ranked in-spec: the eot2 row
  # template below drives off this intermediate's filtered records
  # (REQ-1262). Replaces the former adlbc-eot-rn.yaml + adlbc-eot.yaml
  # staging specs. The intermediate filter keeps the latest non-EoT visit
  # per subject-param (_RN = 1, _EOT_AWARE <> 99 drops groups that already
  # have an EoT row); the window's filter replicates the old row-template
  # pre-filter so the ranking sees the same record set. Records retain LB
  # source order.
  - id: EOTFB
    dataset: LB
    filter: "LB._RN = 1 AND LB._EOT_AWARE <> 99"
    columns: [STUDYID, USUBJID, LBTESTCD, LBSEQ, LBDTC, VISIT, VISITNUM,
      LBTEST, LBSTRESU, LBSTRESN, LBBLFL, LBSTNRLO, LBSTNRHI, LBNRIND]
    derivations:
      _EOT_AWARE:
        case:
          - when: "LB.ENDPOINT = 'Y' OR LB.VISITNUM = 12"
            then:
              literal: 99.0
          - when: "LB.LBBLFL = 'Y'"
            then:
              literal: 0.0
          - when: "LB.VISIT LIKE '%UNSCHEDULED%'"
            then:
              literal: null
          - otherwise:
              mapping:
                source: LB.VISIT
                missing: null
                unmapped: null
                dict:
                  "WEEK 2": 2.0
                  "WEEK 4": 4.0
                  "WEEK 6": 6.0
                  "WEEK 8": 8.0
                  "WEEK 12": 12.0
                  "WEEK 16": 16.0
                  "WEEK 20": 20.0
                  "WEEK 24": 24.0
                  "WEEK 26": 26.0
      _RN:
        row_number:
          window:
            group_by: [STUDYID, USUBJID, LBTESTCD]
            order_by:
              - {variable: _EOT_AWARE, direction: desc}
              - {variable: LBSEQ, direction: asc}
            filter: "LB.LBCAT = 'CHEMISTRY' AND (LB.VISIT LIKE '%WEEK%' OR LB.VISIT LIKE '%SCREENING%' OR LB.VISIT LIKE '%UNSCHEDULED%') AND LB.VISITNUM <> 13 AND _EOT_AWARE IS NOT NULL AND _EOT_AWARE <> 0"

output:
  path: adam/adlbc-yamaa.parquet
  columns: [STUDYID, SUBJID, USUBJID, TRTP, TRTPN, TRTA, TRTAN, TRTSDT,
    TRTEDT, AGE, AGEGR1, AGEGR1N, RACE, RACEN, SEX, COMP24FL, DSRAEFL,
    SAFFL, AVISIT, AVISITN, ADY, ADT, VISIT, VISITNUM, PARAM, PARAMCD,
    PARAMN, PARCAT1, AVAL, BASE, CHG, A1LO, A1HI, R2A1LO, R2A1HI,
    BR2A1LO, BR2A1HI, ANL01FL, ALBTRVAL, ANRIND, BNRIND, ABLFL, AENTMTFL,
    LBSEQ, LBNRIND, LBSTRESN]

columns:
  # --- Record aliases: every LB read goes through these so the grouped
  # --- eot2 template (one row per subject-param) can supply them via
  # --- aggregates while main/eot read the record directly.
  - name: _r_STUDYID
    type: str
    label: record STUDYID (internal)
    derivation: LB.STUDYID
  - name: _r_USUBJID
    type: str
    label: record USUBJID (internal)
    derivation: LB.USUBJID
  - name: _r_LBSEQ
    type: float
    label: record LBSEQ (internal)
    derivation: LB.LBSEQ
  - name: _r_LBDTC
    type: str
    label: record LBDTC (internal)
    derivation: LB.LBDTC
  - name: _r_VISIT
    type: str
    label: record VISIT (internal)
    derivation: LB.VISIT
  - name: _r_VISITNUM
    type: float
    label: record VISITNUM (internal)
    derivation: LB.VISITNUM
  - name: _r_LBTEST
    type: str
    label: record LBTEST (internal)
    derivation: LB.LBTEST
  - name: _r_LBTESTCD
    type: str
    label: record LBTESTCD (internal)
    derivation: LB.LBTESTCD
  - name: _r_LBSTRESU
    type: str
    label: record LBSTRESU (internal)
    derivation: LB.LBSTRESU
  - name: _r_LBSTRESN
    type: float
    label: record LBSTRESN (internal)
    derivation: LB.LBSTRESN
  - name: _r_LBBLFL
    type: str
    label: record LBBLFL (internal)
    derivation: LB.LBBLFL
  - name: _r_LO
    type: float
    label: record LBSTNRLO (internal)
    derivation: LB.LBSTNRLO
  - name: _r_HI
    type: float
    label: record LBSTNRHI (internal)
    derivation: LB.LBSTNRHI
  - name: _r_NRIND
    type: str
    label: record LBNRIND (internal)
    derivation: LB.LBNRIND


  # --- ADSL carry block (#729: bulk-carry rejected, specs stay self-contained) ---
  - name: STUDYID
    type: str
    label: Study Identifier
    derivation: _r_STUDYID
  - name: USUBJID
    type: str
    label: Unique Subject Identifier
    derivation: _r_USUBJID
  - name: SUBJID
    type: str
    label: Subject Identifier for the Study
    derivation: ADSL.SUBJID
  - name: TRTP
    type: str
    label: Planned Treatment
    derivation: ADSL.TRT01P
  - name: TRTPN
    type: float
    label: Planned Treatment (N)
    derivation: ADSL.TRT01PN
  - name: TRTA
    type: str
    label: Actual Treatment
    derivation: ADSL.TRT01A
  - name: TRTAN
    type: float
    label: Actual Treatment (N)
    derivation: ADSL.TRT01AN
  - name: TRTSDT
    type: date
    label: Date of First Exposure to Treatment
    derivation: ADSL.TRTSDT
  - name: TRTEDT
    type: date
    label: Date of Last Exposure to Treatment
    derivation: ADSL.TRTEDT
  - name: AGE
    type: float
    label: Age
    derivation: ADSL.AGE
  - name: AGEGR1
    type: str
    label: "Pooled Age Group 1"
    derivation: ADSL.AGEGR1
  - name: AGEGR1N
    type: float
    label: "Pooled Age Group 1 (N)"
    derivation: ADSL.AGEGR1N
  - name: RACE
    type: str
    label: Race
    derivation: ADSL.RACE
  - name: RACEN
    type: float
    label: Race (N)
    derivation: ADSL.RACEN
  - name: SEX
    type: str
    label: Sex
    derivation: ADSL.SEX
  - name: COMP24FL
    type: str
    label: Completers of Week 24 Population Flag
    derivation: ADSL.COMP24FL
  - name: DSRAEFL
    type: str
    label: "Discontinued due to AE?"
    derivation:
      case:
        - when: "ADSL.DSRAEFL IS NULL"
          then: {literal: ''}
        - otherwise: {source: ADSL.DSRAEFL}
  - name: SAFFL
    type: str
    label: Safety Population Flag
    derivation: ADSL.SAFFL

  # --- Analysis visits (derived per row template) ---
  - name: AVISIT
    type: str
    label: Analysis Visit
  - name: AVISITN
    type: float
    label: Analysis Visit (N)
  - name: _IS_EOT
    type: float
    label: EOT row marker (internal)

  # --- Dates ---
  # LBDTC is collected as datetime text ("YYYY-MM-DDTHH:MM"); date_impute
  # admits date prefixes only, so the text first becomes a datetime via
  # datetime_impute and to_date then drops the time fields. This matches
  # the R derive_vars_dt(highest_imputation = "n"): no imputation, the
  # date part is taken as-is.
  - name: _LBDTTM
    type: datetime
    label: LBDTC as datetime (internal)
    derivation:
      datetime_impute:
        source: _r_LBDTC
        time: first
        missing: null
  - name: ADT
    type: date
    label: Analysis Date
    derivation:
      to_date:
        source: _LBDTTM
  - name: ADY
    type: float
    label: Analysis Relative Day
    derivation:
      study_day:
        date: ADT
        reference: TRTSDT
  - name: VISIT
    type: str
    label: Visit Name
    derivation: _r_VISIT
  - name: VISITNUM
    type: float
    label: Visit Number
    derivation: _r_VISITNUM

  # --- Parameter ---
  - name: PARAM
    type: str
    label: Parameter
    derivation:
      str_template:
        template: "{_r_LBTEST} ({_r_LBSTRESU})"
  - name: PARAMCD
    type: str
    label: Parameter Code
    derivation: _r_LBTESTCD
  - name: PARAMN
    type: float
    label: Parameter (N)
    derivation:
      mapping:
        source: PARAM
        missing: null
        dict:
          "Sodium (mmol/L)": 18
          "Potassium (mmol/L)": 19
          "Chloride (mmol/L)": 20
          "Bilirubin (umol/L)": 21
          "Alkaline Phosphatase (U/L)": 22
          "Gamma Glutamyl Transferase (U/L)": 23
          "Alanine Aminotransferase (U/L)": 24
          "Aspartate Aminotransferase (U/L)": 25
          "Blood Urea Nitrogen (mmol/L)": 26
          "Creatinine (umol/L)": 27
          "Urate (umol/L)": 28
          "Phosphate (mmol/L)": 29
          "Calcium (mmol/L)": 30
          "Glucose (mmol/L)": 31
          "Protein (g/L)": 32
          "Albumin (g/L)": 33
          "Cholesterol (mmol/L)": 34
          "Creatine Kinase (U/L)": 35
  - name: PARCAT1
    type: str
    label: Parameter Category 1
    derivation:
      literal: "CHEM"

  # --- Values / baseline ---
  - name: AVAL
    type: float
    label: Analysis Value
    derivation: _r_LBSTRESN
  - name: ABLFL
    type: str
    label: Baseline Record Flag
    derivation:
      case:
        - when: "_r_LBBLFL IS NULL"
          then: {literal: ''}
        - otherwise: {source: _r_LBBLFL}
  - name: BASE
    type: float
    label: Baseline Value
    derivation:
      aggregate:
        filter: "ABLFL = 'Y'"
        group_by: [STUDYID, USUBJID, PARAMCD]
        expr: "ONLY(AVAL)"
  - name: CHG
    type: float
    label: Change from Baseline
    derivation:
      case:
        - when: "VISITNUM = 1"
          then:
            literal: null
        - otherwise:
            compute:
              expr: "AVAL - BASE"

  # --- Limits / indicators ---
  - name: A1LO
    type: float
    label: Analysis Range 1 Lower Limit
    derivation: _r_LO
  - name: A1HI
    type: float
    label: Analysis Range 1 Upper Limit
    derivation: _r_HI
  - name: R2A1LO
    type: float
    label: Ratio to Analysis Range 1 Lower Limit
    derivation:
      compute:
        expr: "AVAL / A1LO"
  - name: R2A1HI
    type: float
    label: Ratio to Analysis Range 1 Upper Limit
    derivation:
      compute:
        expr: "AVAL / A1HI"
  - name: BR2A1LO
    type: float
    label: "Base Ratio to Analysis Range 1 Lower Lim"
    derivation:
      compute:
        expr: "BASE / A1LO"
  - name: BR2A1HI
    type: float
    label: "Base Ratio to Analysis Range 1 Upper Lim"
    derivation:
      compute:
        expr: "BASE / A1HI"
  - name: ALBTRVAL
    type: float
    label: "Amount Threshold Range"
    derivation:
      compute:
        expr: "GREATEST(ABS(AVAL - 1.5 * A1HI), ABS(0.5 * A1LO - AVAL))"
  - name: _LO_HALF
    type: float
    label: half of A1LO (internal)
    derivation:
      compute:
        expr: "0.5 * A1LO"
  - name: _HI_15
    type: float
    label: 1.5x A1HI (internal)
    derivation:
      compute:
        expr: "1.5 * A1HI"
  - name: ANRIND
    type: str
    label: Analysis Reference Range Indicator
    derivation:
      # Faithful to R's nested ifelse: NA propagates when limits are missing
      # but AVAL is present; only a missing AVAL forces "N".
      case:
        - when: "AVAL IS NULL"
          then:
            literal: "N"
        - when: "AVAL < _LO_HALF"
          then:
            literal: "L"
        - when: "_LO_HALF IS NULL"
          then:
            literal: null
        - when: "AVAL > _HI_15"
          then:
            literal: "H"
        - when: "_HI_15 IS NULL"
          then:
            literal: null
        - otherwise:
            literal: "N"
  - name: _BNRIND_RAW
    type: str
    label: Baseline Reference Range Indicator (working)
    derivation:
      aggregate:
        filter: "ABLFL = 'Y'"
        group_by: [STUDYID, USUBJID, PARAMCD]
        expr: "ONLY(ANRIND)"
  - name: BNRIND
    type: str
    label: Baseline Reference Range Indicator
    derivation:
      case:
        - when: "_BNRIND_RAW IS NULL"
          then: {literal: ''}
        - otherwise: {source: _BNRIND_RAW}

  # --- Last-observation flag ---
  - name: _AENT_MAX
    type: float
    label: Max eligible AVISITN per subject-param (internal)
    derivation:
      aggregate:
        filter: "VISITNUM <= 12 AND AVISITN > 0 AND AVISITN < 99 AND NOT (VISIT LIKE '%UN%')"
        group_by: [STUDYID, USUBJID, PARAMCD]
        expr: "MAX(AVISITN)"
  - name: AENTMTFL
    type: str
    label: "Last value in treatment visit"
    derivation:
      flag:
        condition: "_IS_EOT = 1 OR AVISITN = _AENT_MAX"
        true_value: "Y"
        false_value: ""
        missing: ""

  # --- Max-deviation flag ---
  # LBSEQ is declared here (not with the other LB carries below) because the
  # _RN_ANL window orders by it: keys are exempt from the validator's
  # forward-reference check, but at runtime a column is only readable after
  # its own declaration, so the window would KeyError on a later LBSEQ.
  - name: LBSEQ
    type: float
    label: Sequence Number
    derivation: _r_LBSEQ
  - name: _RN_ANL
    type: float
    label: rank by ALBTRVAL within subject-param (internal)
    derivation:
      row_number:
        window:
          group_by: [STUDYID, USUBJID, PARAMCD]
          order_by:
            - variable: ALBTRVAL
              direction: desc
            - variable: LBSEQ
              direction: asc
          filter: "VISITNUM >= 4 AND VISITNUM <= 12 AND NOT (VISIT LIKE '%UN%') AND ALBTRVAL IS NOT NULL"
  - name: _WINLB
    type: float
    label: winning LBSEQ per subject-param (internal)
    derivation:
      aggregate:
        filter: "_RN_ANL = 1"
        group_by: [STUDYID, USUBJID, PARAMCD]
        expr: "ONLY(LBSEQ)"
  - name: ANL01FL
    type: str
    label: "Analysis Flag 01"
    derivation:
      flag:
        condition: "LBSEQ = _WINLB"
        false_value: ""
        missing: ""

  # --- LB carries ---
  - name: LBNRIND
    type: str
    label: Reference Range Indicator
    derivation:
      case:
        - when: "_r_NRIND IS NULL"
          then: {literal: ''}
        - otherwise: {source: _r_NRIND}
  - name: LBSTRESN
    type: float
    label: Numeric Result/Finding in Standard Units
    derivation: _r_LBSTRESN

rows:
  - id: main
    dataset: LB
    filter: "LB.LBCAT = 'CHEMISTRY' AND (LB.VISIT LIKE '%WEEK%' OR LB.VISIT LIKE '%SCREENING%' OR LB.VISIT LIKE '%UNSCHEDULED%')"
    derivations:
      _IS_EOT:
        literal: 0.0
      AVISIT:
        case:
          - when: "_r_LBBLFL = 'Y'"
            then:
              literal: "Baseline"
          - when: "_r_VISIT LIKE '%UNSCHEDULED%'"
            then:
              literal: ""
          - otherwise:
              mapping:
                source: _r_VISIT
                missing: null
                unmapped: null
                dict:
                  "WEEK 2": "Week 2"
                  "WEEK 4": "Week 4"
                  "WEEK 6": "Week 6"
                  "WEEK 8": "Week 8"
                  "WEEK 12": "Week 12"
                  "WEEK 16": "Week 16"
                  "WEEK 20": "Week 20"
                  "WEEK 24": "Week 24"
                  "WEEK 26": "Week 26"
      AVISITN:
        mapping:
          source: AVISIT
          missing: null
          unmapped: null
          dict:
            "Baseline": 0.0
            "Week 2": 2.0
            "Week 4": 4.0
            "Week 6": 6.0
            "Week 8": 8.0
            "Week 12": 12.0
            "Week 16": 16.0
            "Week 20": 20.0
            "Week 24": 24.0
            "Week 26": 26.0

  - id: eot
    dataset: LB
    filter: "LB.LBCAT = 'CHEMISTRY' AND (LB.VISITNUM = 12 OR LB.ENDPOINT = 'Y')"
    derivations:
      _IS_EOT:
        literal: 1.0
      AVISIT:
        literal: "End of Treatment"
      AVISITN:
        literal: 99.0

  - id: eot2
    dataset: EOTFB
    filter: "EOTFB.VISITNUM <> 12"
    derivations:
      _r_STUDYID: EOTFB.STUDYID
      _r_USUBJID: EOTFB.USUBJID
      _r_LBTESTCD: EOTFB.LBTESTCD
      _r_LBSEQ: EOTFB.LBSEQ
      _r_LBDTC: EOTFB.LBDTC
      _r_VISIT: EOTFB.VISIT
      _r_VISITNUM: EOTFB.VISITNUM
      _r_LBTEST: EOTFB.LBTEST
      _r_LBSTRESU: EOTFB.LBSTRESU
      _r_LBSTRESN: EOTFB.LBSTRESN
      _r_LBBLFL: EOTFB.LBBLFL
      _r_LO: EOTFB.LBSTNRLO
      _r_HI: EOTFB.LBSTNRHI
      _r_NRIND: EOTFB.LBNRIND
      _IS_EOT:
        literal: 1.0
      AVISIT:
        literal: "End of Treatment"
      AVISITN:
        literal: 99.0
