schema_version: "1.0"
domain: ADSL
keys: [STUDYID, USUBJID]
input:
  DM: sdtm/dm.parquet
  EX: sdtm/ex.parquet
  VS: sdtm/vs.parquet
  DS: sdtm/ds.parquet
  SC: sdtm/sc.parquet
  MH: sdtm/mh.parquet
  SV: sdtm/sv.parquet
  QS: sdtm/qs.parquet
base: DM
filter: "DM.ACTARM <> 'Screen Failure'"

intermediates:
  - id: BASE_HT
    dataset: VS
    filter: "VS.VSTESTCD = 'HEIGHT' AND VS.VISITNUM = 1"
    key: [STUDYID, USUBJID]
    order_by: [VS.VSDTC]
    keep: first
    no_match: null
  - id: BASE_WT
    dataset: VS
    filter: "VS.VSTESTCD = 'WEIGHT' AND VS.VISITNUM = 3"
    key: [STUDYID, USUBJID]
    order_by: [VS.VSDTC]
    keep: first
    no_match: null
  - id: DS_DISP
    dataset: DS
    filter: "DS.DSCAT = 'DISPOSITION EVENT'"
    key: [STUDYID, USUBJID]
    order_by: [DS.DSSTDTC]
    keep: first
    no_match: null
  - id: SC_EDU
    dataset: SC
    filter: "SC.SCTESTCD = 'EDLEVEL'"
    key: [STUDYID, USUBJID]
    order_by: [SC.SCDTC]
    keep: first
    no_match: null
  - id: MH_DX
    dataset: MH
    filter: "MH.MHCAT = 'PRIMARY DIAGNOSIS'"
    key: [STUDYID, USUBJID]
    order_by: [MH.MHSTDTC]
    keep: first
    no_match: null
  - id: SV_V1
    dataset: SV
    filter: "SV.VISITNUM = 1"
    key: [STUDYID, USUBJID]
    order_by: [SV.SVSTDTC]
    keep: first
    no_match: null
  - id: EOS
    dataset: DS
    filter: "DS.DSCAT = 'DISPOSITION EVENT' AND DS.DSDECOD <> 'SCREEN FAILURE' AND DS.DSDECOD <> 'COMPLETED'"
    key: [STUDYID, USUBJID]
    order_by: [DS.DSSEQ]
    keep: first
    no_match: null
  - id: DS_LAST
    dataset: DS
    filter: "DS.DSCAT = 'DISPOSITION EVENT'"
    key: [STUDYID, USUBJID]
    order_by: [DS.DSSTDTC]
    keep: last
    no_match: null
  # The ongoing exposure record (missing EXENDTC), if any: at most one per
  # subject. Selected once here; _OPEN_DOSE/_OPEN_DAYS read from it.
  - id: EX_OPEN
    dataset: EX
    key: [STUDYID, USUBJID]
    filter: "EX.EXENDTC IS NULL"
    no_match: null

output:
  path: adam/adsl-yamaa.parquet
  columns: [
  STUDYID, USUBJID, SUBJID, SITEID, SITEGR1, ARM, TRT01P, TRT01PN,
  TRT01A, TRT01AN, TRTSDT, TRTEDT, TRTDURD, AVGDD, CUMDOSE, AGE,
  AGEGR1, AGEGR1N, AGEU, RACE, RACEN, SEX, ETHNIC, SAFFL,
  ITTFL, EFFFL, COMP8FL, COMP16FL, COMP24FL, DISCONFL, DSRAEFL, DTHFL,
  BMIBL, BMIBLGR1, HEIGHTBL, WEIGHTBL, EDUCLVL, DISONSDT, DURDIS, DURDSGR1,
  VISIT1DT, RFSTDTC, RFENDTC, VISNUMEN, RFENDT, DCDECOD, EOSSTT, DCSREAS,
  MMSETOT
  ]

columns:
  - name: STUDYID
    type: str
    label: Study Identifier
    derivation: DM.STUDYID

  - name: USUBJID
    type: str
    label: Unique Subject Identifier
    derivation: DM.USUBJID

  - name: SUBJID
    type: str
    label: Subject Identifier for the Study
    derivation: DM.SUBJID

  - name: SITEID
    type: str
    label: Study Site Identifier
    derivation: DM.SITEID

  - name: SITEGR1
    type: str
    label: Pooled Site Group 1
    derivation:
      # Small sites pool to 900 in the official ADSL (observed mapping).
      case:
        - when: "SITEID IN ('702', '706', '707', '711', '714', '715', '717')"
          then:
            literal: "900"
        - otherwise:
            source: SITEID

  - name: ARM
    type: str
    label: Description of Planned Arm
    derivation: DM.ARM

  - name: TRT01P
    type: str
    label: Planned Treatment for Period 01
    derivation: DM.ARM

  - name: TRT01PN
    type: float
    label: Planned Treatment for Period 01 (N)
    derivation:
      mapping:
        source: DM.ARM
        dict:
          Placebo: 0
          Xanomeline Low Dose: 54
          Xanomeline High Dose: 81

  - name: TRT01A
    type: str
    label: Actual Treatment for Period 01
    derivation: TRT01P

  - name: TRT01AN
    type: float
    label: Actual Treatment for Period 01 (N)
    derivation: TRT01PN

  - name: EX_MINDTC
    type: str
    label: Earliest Exposure Start (character)
    derivation:
      aggregate:
        expr: "MIN(EX.EXSTDTC)"

  - name: TRTSDT
    type: date
    label: Date of First Exposure to Treatment
    derivation:
      date_impute:
        source: EX_MINDTC
        month: 1
        day: 1

  - name: EOSDT
    type: date
    label: End of Study Date
    derivation:
      to_date:
        source: EOS.DSSTDTC

  - name: EX_MAXDTC
    type: str
    label: Latest exposure end (character, internal)
    derivation:
      aggregate:
        filter: "EX.EXDOSE > 0 OR (EX.EXDOSE = 0 AND EX.EXTRT = 'PLACEBO')"
        expr: "MAX(EX.EXENDTC)"

  - name: EX_ENDHI
    type: date
    label: Latest highest-imputed exposure end (internal)
    derivation:
      # All EXENDTC values are complete ISO dates, so highest imputation
      # is identity and MAX over text equals MAX over dates.
      to_date:
        source: EX_MAXDTC

  - name: EX_NMISSEND
    type: float
    label: Exposure records with missing end date (internal)
    derivation:
      aggregate:
        filter: "EX.EXENDTC IS NULL AND (EX.EXDOSE > 0 OR (EX.EXDOSE = 0 AND EX.EXTRT = 'PLACEBO'))"
        expr: "COUNT(EX.EXSEQ)"

  - name: TRTEDT
    type: date
    label: Date of Last Exposure to Treatment
    derivation:
      case:
        - when: "EOSDT IS NOT NULL AND (EX_NMISSEND > 0 OR EX_ENDHI > EOSDT)"
          then:
            source: EOSDT
        - when: "EX_ENDHI IS NOT NULL"
          then:
            source: EX_ENDHI

  - name: TRTDUR
    type: float
    label: Duration of Treatment (days)
    derivation:
      date_diff:
        start: TRTSDT
        end: TRTEDT
        unit: day
        bounds: inclusive

  - name: TRTDURD
    type: float
    label: Total Treatment Duration (Days)
    derivation: TRTDUR

  # CUMDOSE sums per-record dose-days: EXDOSE x days on the record. Records
  # with a missing EXENDTC (ongoing exposure) run to TRTEDT, matching the
  # official derivation (verified: all 6 open records impute exactly).
  - name: _CUM_CLOSED
    type: float
    label: Closed-record dose-days (internal)
    derivation:
      aggregate:
        filter: "EX.EXENDTC IS NOT NULL"
        expr: "SUM(EX.EXDOSE * (EX.EXENDY - EX.EXSTDY + 1))"
  - name: _OPEN_DOSE
    type: float
    label: Open-record EXDOSE (internal)
    derivation: EX_OPEN.EXDOSE
  - name: _OPEN_STARTDT
    type: date
    label: Open-record start date (internal)
    derivation:
      date_impute:
        source: EX_OPEN.EXSTDTC
        month: 1
        day: 1
        missing: null
  - name: _OPEN_DAYS
    type: float
    label: Open-record days to TRTEDT (internal)
    derivation:
      date_diff:
        start: _OPEN_STARTDT
        end: TRTEDT
        unit: day
        bounds: inclusive
  - name: CUMDOSE
    type: float
    label: Cumulative Dose (as planned)
    derivation:
      compute:
        expr: "COALESCE(_CUM_CLOSED, 0) + COALESCE(_OPEN_DOSE * _OPEN_DAYS, 0)"

  - name: _AVGDD_RAW
    type: float
    label: Unrounded avg daily dose (internal)
    derivation:
      compute:
        expr: "CUMDOSE / NULLIF(TRTDUR, 0)"

  - name: AVGDD
    type: float
    label: Avg Daily Dose (as planned)
    derivation:
      round_half_away_from_zero:
        source: _AVGDD_RAW
        digits: 1

  - name: AGE
    type: float
    label: Age
    derivation: DM.AGE

  - name: AGEU
    type: str
    label: Age Units
    derivation: DM.AGEU

  - name: AGEGR1
    type: str
    label: Pooled Age Group 1
    derivation:
      # R rule: <65 / 65-80 / >80 - age 65 falls in 65-80, so the boundary
      # is mixed and cannot be expressed with cut's single right flag.
      case:
        - when: "DM.AGE < 65"
          then:
            literal: "<65"
        - when: "DM.AGE <= 80"
          then:
            literal: "65-80"
        - otherwise:
            literal: ">80"

  - name: AGEGR1N
    type: float
    label: Pooled Age Group 1 (N)
    derivation:
      mapping:
        source: AGEGR1
        dict:
          "<65": 1
          "65-80": 2
          ">80": 3

  - name: SEX
    type: str
    label: Sex
    derivation: DM.SEX

  - name: RACE
    type: str
    label: Race
    derivation: DM.RACE

  - name: RACEN
    type: float
    label: Race (N)
    derivation:
      mapping:
        source: RACE
        dict:
          WHITE: 1
          BLACK OR AFRICAN AMERICAN: 2
          AMERICAN INDIAN OR ALASKA NATIVE: 6
          ASIAN: 7
          NATIVE HAWAIIAN OR OTHER PACIFIC ISLANDER: 5

  - name: ETHNIC
    type: str
    label: Ethnicity
    derivation: DM.ETHNIC

  - name: DTHFL
    type: str
    label: Subject Died?
    derivation:
      case:
        - when: "DM.DTHFL IS NULL"
          then: {literal: ''}
        - otherwise: {source: DM.DTHFL}

  - name: SAFFL
    type: str
    label: Safety Population Flag
    derivation:
      flag:
        condition: "TRTSDT IS NOT NULL"
        false_value: "N"
        missing: "N"

  - name: HEIGHTBL
    type: float
    label: Baseline Height (cm)
    derivation:
      round_half_away_from_zero:
        source: BASE_HT.VSSTRESN
        digits: 1

  - name: WEIGHTBL
    type: float
    label: Baseline Weight (kg)
    derivation:
      round_half_away_from_zero:
        source: BASE_WT.VSSTRESN
        digits: 1

  - name: _BMIBL_RAW
    type: float
    label: Unrounded baseline BMI (internal)
    derivation:
      compute:
        expr: "WEIGHTBL / POWER(NULLIF(HEIGHTBL, 0) / 100, 2)"

  - name: BMIBL
    type: float
    label: Baseline BMI (kg/m^2)
    derivation:
      round_half_away_from_zero:
        source: _BMIBL_RAW
        digits: 1

  - name: BMIBLGR1
    type: str
    label: Pooled Baseline BMI Group 1
    derivation:
      cut:
        source: BMIBL
        breaks: [25, 30]
        labels: ["<25", "25-<30", ">=30"]
        missing: ''

  - name: ITTFL
    type: str
    label: Intent-To-Treat Population Flag
    derivation:
      flag:
        condition: "DM.ARMCD <> ''"
        false_value: "N"
        missing: "N"

  - name: N_ACTOT
    type: float
    label: Post-baseline ADAS-Cog records (helper)
    derivation:
      aggregate:
        expr: "COUNT(QS.QSSEQ)"
        filter: "QS.VISITNUM > 3 AND QS.QSTESTCD = 'ACTOT'"

  - name: N_CIBIC
    type: float
    label: Post-baseline CIBIC+ records (helper)
    derivation:
      aggregate:
        expr: "COUNT(QS.QSSEQ)"
        filter: "QS.VISITNUM > 3 AND QS.QSTESTCD = 'CIBIC'"

  - name: EFFFL
    type: str
    label: Efficacy Population Flag
    derivation:
      flag:
        condition: "SAFFL = 'Y' AND N_ACTOT > 0 AND N_CIBIC > 0"
        false_value: "N"
        missing: "N"

  - name: N_WK8
    type: float
    label: Week 8 visit records (helper)
    derivation:
      aggregate:
        expr: "COUNT(SV.USUBJID)"
        filter: "SV.VISIT = 'WEEK 8'"

  - name: N_WK16
    type: float
    label: Week 16 visit records (helper)
    derivation:
      aggregate:
        expr: "COUNT(SV.USUBJID)"
        filter: "SV.VISIT = 'WEEK 16'"

  - name: N_WK24
    type: float
    label: Week 24 visit records (helper)
    derivation:
      aggregate:
        expr: "COUNT(SV.USUBJID)"
        filter: "SV.VISIT = 'WEEK 24'"

  - name: COMP8FL
    type: str
    label: Completers of Week 8 Population Flag
    derivation:
      flag:
        condition: "N_WK8 > 0"
        false_value: "N"
        missing: "N"

  - name: COMP16FL
    type: str
    label: Completers of Week 16 Population Flag
    derivation:
      flag:
        condition: "N_WK16 > 0"
        false_value: "N"
        missing: "N"

  - name: COMP24FL
    type: str
    label: Completers of Week 24 Population Flag
    derivation:
      flag:
        condition: "N_WK24 > 0"
        false_value: "N"
        missing: "N"

  - name: DCSREAS
    type: str
    label: Reason for Discontinuation from Study
    derivation:
      # Display values per the official ADSL codelist (observed mapping).
      case:
        - when: "DS_DISP.DSDECOD <> 'COMPLETED' AND DS_DISP.DSTERM = 'PROTOCOL ENTRY CRITERIA NOT MET'"
          then:
            literal: "I/E Not Met"
        - when: "DS_DISP.DSDECOD = 'COMPLETED'"
          then:
            literal: ""
        - otherwise:
            mapping:
              source: DS_DISP.DSDECOD
              missing: null
              dict:
                "ADVERSE EVENT": "Adverse Event"
                "DEATH": "Death"
                "LACK OF EFFICACY": "Lack of Efficacy"
                "LOST TO FOLLOW-UP": "Lost to Follow-up"
                "PHYSICIAN DECISION": "Physician Decision"
                "PROTOCOL VIOLATION": "Protocol Violation"
                "STUDY TERMINATED BY SPONSOR": "Sponsor Decision"
                "WITHDRAWAL BY SUBJECT": "Withdrew Consent"

  - name: DCDECOD
    type: str
    label: Standardized Disposition Term
    derivation: DS_LAST.DSDECOD

  - name: EOSSTT
    type: str
    label: End of Study Status
    derivation:
      case:
        - when: "DCDECOD = 'COMPLETED'"
          then: {literal: COMPLETED}
        - otherwise: {literal: DISCONTINUED}

  - name: DISCONFL
    type: str
    label: Did the Subject Discontinue the Study?
    derivation:
      case:
        - when: "EOSSTT = 'DISCONTINUED'"
          then: {literal: Y}
        - otherwise: {literal: ""}

  - name: DSRAEFL
    type: str
    label: Discontinued due to AE?
    derivation:
      flag:
        condition: "DCDECOD = 'ADVERSE EVENT'"
        false_value: ""
        missing: ""

  - name: EDUCLVL
    type: float
    label: Years of Education
    derivation: SC_EDU.SCSTRESN

  - name: DISONSDT
    type: date
    label: Date of Onset of Disease
    derivation:
      date_impute:
        source: MH_DX.MHSTDTC
        month: 6
        day: 15

  - name: VISIT1DT
    type: date
    label: Date of Visit 1
    derivation:
      date_impute:
        source: SV_V1.SVSTDTC
        month: 1
        day: 1

  - name: _DURDIS_DAYS
    type: float
    label: Disease duration days (internal)
    derivation:
      date_diff:
        start: DISONSDT
        end: VISIT1DT
        unit: day
        bounds: inclusive

  - name: _DURDIS_MONTHS
    type: float
    label: Disease duration months (internal)
    derivation:
      compute: {expr: "_DURDIS_DAYS * 12 / 365.25"}

  - name: DURDIS
    type: float
    label: Duration of Disease (Months)
    derivation:
      round_half_away_from_zero: {source: _DURDIS_MONTHS, digits: 1}

  - name: DURDSGR1
    type: str
    label: Pooled Disease Duration Group 1
    derivation:
      case:
        - when: "DURDIS < 12"
          then: {literal: "<12"}
        - otherwise: {literal: ">=12"}

  - name: MMSETOT
    type: float
    label: MMSE Total
    derivation:
      aggregate:
        expr: "SUM(QS.QSSTRESN)"
        filter: "QS.VISITNUM = 1 AND QS.QSTESTCD LIKE 'MMITM%'"

  - name: VISNUMEN
    type: float
    label: End of Trt Visit (Vis 12 or Early Term.)
    derivation:
      aggregate:
        expr: "MAX(SV.VISITNUM)"
        filter: "SV.VISITNUM <= 12 AND SV.VISIT NOT LIKE 'UNSCHEDULED%'"

  - name: DS_ENDTC
    type: str
    label: Last disposition event date (character, internal)
    derivation: DS_LAST.DSSTDTC

  - name: SV_SCHED_ENDTC
    type: str
    label: Last scheduled visit end date (character, internal)
    derivation:
      # Scheduled protocol visits are VISITNUM 1-13; unscheduled (x.1),
      # AE follow-up (101) and retrieval (201) visits are excluded.
      aggregate:
        filter: "SV.VISITNUM < 100 AND SV.VISIT NOT LIKE 'UNSCHEDULED%'"
        expr: "MAX(SV.SVENDTC)"

  - name: RFENDTC
    type: str
    label: Subject Reference End Date/Time
    derivation:
      case:
        - when: "SV_SCHED_ENDTC IS NOT NULL AND SV_SCHED_ENDTC > DS_ENDTC"
          then:
            source: SV_SCHED_ENDTC
        - otherwise:
            source: DS_ENDTC

  - name: RFSTDTC
    type: str
    label: Subject Reference Start Date/Time
    derivation: DM.RFSTDTC

  - name: RFENDT
    type: date
    label: "Date of Discontinuation/Completion"
    derivation:
      to_date:
        source: RFENDTC
