[
  {
    "STUDYID": "CDISCPILOT01",
    "DOMAIN": "AE",
    "USUBJID": "01-701-001",
    "AESEQ": 1,
    "AETERM": "Application site pruritus",
    "AEDECOD": "Application site pruritus",
    "AEBODSYS": "General disorders and administration site conditions",
    "AECAT": "APPLICATION SITE",
    "AESEV": "MODERATE",
    "AETOXGR": "2",
    "AESER": "N",
    "AEREL": "RELATED",
    "AESTDTC": "2013-06-23",
    "AEENDTC": "2013-07-14",
    "AESTDY": 5,
    "AEENDY": 26
  },
  {
    "STUDYID": "CDISCPILOT01",
    "DOMAIN": "AE",
    "USUBJID": "01-701-001",
    "AESEQ": 2,
    "AETERM": "Diarrhoea",
    "AEDECOD": "Diarrhoea",
    "AEBODSYS": "Gastrointestinal disorders",
    "AECAT": "GENERAL",
    "AESEV": "MODERATE",
    "AETOXGR": "2",
    "AESER": "N",
    "AEREL": "POSSIBLY RELATED",
    "AESTDTC": "2013-07-24",
    "AEENDTC": "2013-08-14",
    "AESTDY": 36,
    "AEENDY": 57
  },
  {
    "STUDYID": "CDISCPILOT01",
    "DOMAIN": "AE",
    "USUBJID": "01-701-001",
    "AESEQ": 3,
    "AETERM": "Nasopharyngitis",
    "AEDECOD": "Nasopharyngitis",
    "AEBODSYS": "Infections and infestations",
    "AECAT": "GENERAL",
    "AESEV": "MODERATE",
    "AETOXGR": "2",
    "AESER": "N",
    "AEREL": "NOT RELATED",
    "AESTDTC": "2013-07-29",
    "AEENDTC": "2013-08-14",
    "AESTDY": 41,
    "AEENDY": 57
  },
  {
    "STUDYID": "CDISCPILOT01",
    "DOMAIN": "AE",
    "USUBJID": "01-701-002",
    "AESEQ": 1,
    "AETERM": "Skin irritation",
    "AEDECOD": "Skin irritation",
    "AEBODSYS": "Skin and subcutaneous tissue disorders",
    "AECAT": "GENERAL",
    "AESEV": "MODERATE",
    "AETOXGR": "2",
    "AESER": "N",
    "AEREL": "POSSIBLY RELATED",
    "AESTDTC": "2013-06-09",
    "AEENDTC": "2013-07-03",
    "AESTDY": 70,
    "AEENDY": 94
  },
  {
    "STUDYID": "CDISCPILOT01",
    "DOMAIN": "AE",
    "USUBJID": "01-701-002",
    "AESEQ": 2,
    "AETERM": "Dizziness",
    "AEDECOD": "Dizziness",
    "AEBODSYS": "Nervous system disorders",
    "AECAT": "GENERAL",
    "AESEV": "MODERATE",
    "AETOXGR": "2",
    "AESER": "N",
    "AEREL": "POSSIBLY RELATED",
    "AESTDTC": "2013-04-29",
    "AEENDTC": "2013-05-07",
    "AESTDY": 29,
    "AEENDY": 37
  },
  {
    "STUDYID": "CDISCPILOT01",
    "DOMAIN": "AE",
    "USUBJID": "01-701-002",
    "AESEQ": 3,
    "AETERM": "Syncope",
    "AEDECOD": "Syncope",
    "AEBODSYS": "Nervous system disorders",
    "AECAT": "GENERAL",
    "AESEV": "SEVERE",
    "AETOXGR": "3",
    "AESER": "Y",
    "AEREL": "NOT RELATED",
    "AESTDTC": "2013-04-04",
    "AEENDTC": "2013-04-11",
    "AESTDY": 4,
    "AEENDY": 11
  },
  {
    "STUDYID": "CDISCPILOT01",
    "DOMAIN": "AE",
    "USUBJID": "01-701-004",
    "AESEQ": 1,
    "AETERM": "Nasopharyngitis",
    "AEDECOD": "Nasopharyngitis",
    "AEBODSYS": "Infections and infestations",
    "AECAT": "GENERAL",
    "AESEV": "MODERATE",
    "AETOXGR": "2",
    "AESER": "N",
    "AEREL": "POSSIBLY RELATED",
    "AESTDTC": "2013-11-16",
    "AEENDTC": "2013-12-12",
    "AESTDY": 84,
    "AEENDY": 110
  },
  {
    "STUDYID": "CDISCPILOT01",
    "DOMAIN": "AE",
    "USUBJID": "01-701-005",
    "AESEQ": 1,
    "AETERM": "Vomiting",
    "AEDECOD": "Vomiting",
    "AEBODSYS": "Gastrointestinal disorders",
    "AECAT": "GENERAL",
    "AESEV": "MILD",
    "AETOXGR": "1",
    "AESER": "N",
    "AEREL": "POSSIBLY RELATED",
    "AESTDTC": "2013-02-21",
    "AEENDTC": "2013-03-25",
    "AESTDY": 14,
    "AEENDY": 46
  },
  {
    "STUDYID": "CDISCPILOT01",
    "DOMAIN": "AE",
    "USUBJID": "01-701-006",
    "AESEQ": 1,
    "AETERM": "Erythema",
    "AEDECOD": "Erythema",
    "AEBODSYS": "Skin and subcutaneous tissue disorders",
    "AECAT": "GENERAL",
    "AESEV": "MODERATE",
    "AETOXGR": "2",
    "AESER": "N",
    "AEREL": "NOT RELATED",
    "AESTDTC": "2013-08-18",
    "AEENDTC": "2013-09-05",
    "AESTDY": 52,
    "AEENDY": 70
  },
  {
    "STUDYID": "CDISCPILOT01",
    "DOMAIN": "AE",
    "USUBJID": "01-701-006",
    "AESEQ": 2,
    "AETERM": "Vomiting",
    "AEDECOD": "Vomiting",
    "AEBODSYS": "Gastrointestinal disorders",
    "AECAT": "GENERAL",
    "AESEV": "MODERATE",
    "AETOXGR": "2",
    "AESER": "N",
    "AEREL": "RELATED",
    "AESTDTC": "2013-07-22",
    "AEENDTC": "2013-08-01",
    "AESTDY": 25,
    "AEENDY": 35
  },
  {
    "STUDYID": "CDISCPILOT01",
    "DOMAIN": "AE",
    "USUBJID": "01-701-006",
    "AESEQ": 3,
    "AETERM": "Upper respiratory tract infection",
    "AEDECOD": "Upper respiratory tract infection",
    "AEBODSYS": "Infections and infestations",
    "AECAT": "GENERAL",
    "AESEV": "MODERATE",
    "AETOXGR": "2",
    "AESER": "N",
    "AEREL": "NOT RELATED",
    "AESTDTC": "2013-07-28",
    "AEENDTC": "2013-08-19",
    "AESTDY": 31,
    "AEENDY": 53
  },
  {
    "STUDYID": "CDISCPILOT01",
    "DOMAIN": "AE",
    "USUBJID": "01-701-007",
    "AESEQ": 1,
    "AETERM": "Cough",
    "AEDECOD": "Cough",
    "AEBODSYS": "Respiratory, thoracic and mediastinal disorders",
    "AECAT": "GENERAL",
    "AESEV": "MILD",
    "AETOXGR": "1",
    "AESER": "N",
    "AEREL": "POSSIBLY RELATED",
    "AESTDTC": "2013-07-21",
    "AEENDTC": "2013-07-23",
    "AESTDY": 5,
    "AEENDY": 7
  },
  {
    "STUDYID": "CDISCPILOT01",
    "DOMAIN": "AE",
    "USUBJID": "01-701-008",
    "AESEQ": 1,
    "AETERM": "Application site pruritus",
    "AEDECOD": "Application site pruritus",
    "AEBODSYS": "General disorders and administration site conditions",
    "AECAT": "APPLICATION SITE",
    "AESEV": "MILD",
    "AETOXGR": "1",
    "AESER": "N",
    "AEREL": "RELATED",
    "AESTDTC": "2013-12-11",
    "AEENDTC": "2013-12-21",
    "AESTDY": 17,
    "AEENDY": 27
  },
  {
    "STUDYID": "CDISCPILOT01",
    "DOMAIN": "AE",
    "USUBJID": "01-701-008",
    "AESEQ": 2,
    "AETERM": "Application site erythema",
    "AEDECOD": "Application site erythema",
    "AEBODSYS": "General disorders and administration site conditions",
    "AECAT": "APPLICATION SITE",
    "AESEV": "MILD",
    "AETOXGR": "1",
    "AESER": "N",
    "AEREL": "RELATED",
    "AESTDTC": "2013-12-02",
    "AEENDTC": "2013-12-16",
    "AESTDY": 8,
    "AEENDY": 22
  },
  {
    "STUDYID": "CDISCPILOT01",
    "DOMAIN": "AE",
    "USUBJID": "01-701-008",
    "AESEQ": 3,
    "AETERM": "Headache",
    "AEDECOD": "Headache",
    "AEBODSYS": "Nervous system disorders",
    "AECAT": "GENERAL",
    "AESEV": "MODERATE",
    "AETOXGR": "2",
    "AESER": "N",
    "AEREL": "NOT RELATED",
    "AESTDTC": "2014-03-05",
    "AEENDTC": "2014-03-20",
    "AESTDY": 101,
    "AEENDY": 116
  },
  {
    "STUDYID": "CDISCPILOT01",
    "DOMAIN": "AE",
    "USUBJID": "01-701-008",
    "AESEQ": 4,
    "AETERM": "Fatigue",
    "AEDECOD": "Fatigue",
    "AEBODSYS": "General disorders and administration site conditions",
    "AECAT": "GENERAL",
    "AESEV": "MODERATE",
    "AETOXGR": "2",
    "AESER": "N",
    "AEREL": "RELATED",
    "AESTDTC": "2013-11-30",
    "AEENDTC": "2013-12-16",
    "AESTDY": 6,
    "AEENDY": 22
  },
  {
    "STUDYID": "CDISCPILOT01",
    "DOMAIN": "AE",
    "USUBJID": "01-701-010",
    "AESEQ": 1,
    "AETERM": "Application site erythema",
    "AEDECOD": "Application site erythema",
    "AEBODSYS": "General disorders and administration site conditions",
    "AECAT": "APPLICATION SITE",
    "AESEV": "MODERATE",
    "AETOXGR": "2",
    "AESER": "N",
    "AEREL": "POSSIBLY RELATED",
    "AESTDTC": "2013-12-10",
    "AEENDTC": "2013-12-19",
    "AESTDY": 7,
    "AEENDY": 16
  },
  {
    "STUDYID": "CDISCPILOT01",
    "DOMAIN": "AE",
    "USUBJID": "01-701-010",
    "AESEQ": 2,
    "AETERM": "Application site dermatitis",
    "AEDECOD": "Application site dermatitis",
    "AEBODSYS": "General disorders and administration site conditions",
    "AECAT": "APPLICATION SITE",
    "AESEV": "MODERATE",
    "AETOXGR": "2",
    "AESER": "N",
    "AEREL": "RELATED",
    "AESTDTC": "2013-12-31",
    "AEENDTC": "2014-01-13",
    "AESTDY": 28,
    "AEENDY": 41
  },
  {
    "STUDYID": "CDISCPILOT01",
    "DOMAIN": "AE",
    "USUBJID": "01-701-010",
    "AESEQ": 3,
    "AETERM": "Skin irritation",
    "AEDECOD": "Skin irritation",
    "AEBODSYS": "Skin and subcutaneous tissue disorders",
    "AECAT": "GENERAL",
    "AESEV": "MODERATE",
    "AETOXGR": "2",
    "AESER": "N",
    "AEREL": "NOT RELATED",
    "AESTDTC": "2014-01-11",
    "AEENDTC": "2014-02-04",
    "AESTDY": 39,
    "AEENDY": 63
  },
  {
    "STUDYID": "CDISCPILOT01",
    "DOMAIN": "AE",
    "USUBJID": "01-701-010",
    "AESEQ": 4,
    "AETERM": "Dizziness",
    "AEDECOD": "Dizziness",
    "AEBODSYS": "Nervous system disorders",
    "AECAT": "GENERAL",
    "AESEV": "MODERATE",
    "AETOXGR": "2",
    "AESER": "N",
    "AEREL": "POSSIBLY RELATED",
    "AESTDTC": "2014-02-20",
    "AEENDTC": "2014-04-01",
    "AESTDY": 79,
    "AEENDY": 119
  },
  {
    "STUDYID": "CDISCPILOT01",
    "DOMAIN": "AE",
    "USUBJID": "01-701-010",
    "AESEQ": 5,
    "AETERM": "Headache",
    "AEDECOD": "Headache",
    "AEBODSYS": "Nervous system disorders",
    "AECAT": "GENERAL",
    "AESEV": "MODERATE",
    "AETOXGR": "2",
    "AESER": "N",
    "AEREL": "NOT RELATED",
    "AESTDTC": "2014-01-22",
    "AEENDTC": "2014-02-04",
    "AESTDY": 50,
    "AEENDY": 63
  },
  {
    "STUDYID": "CDISCPILOT01",
    "DOMAIN": "AE",
    "USUBJID": "01-701-011",
    "AESEQ": 1,
    "AETERM": "Pruritus",
    "AEDECOD": "Pruritus",
    "AEBODSYS": "Skin and subcutaneous tissue disorders",
    "AECAT": "GENERAL",
    "AESEV": "MODERATE",
    "AETOXGR": "2",
    "AESER": "N",
    "AEREL": "RELATED",
    "AESTDTC": "2013-09-24",
    "AEENDTC": "2013-09-27",
    "AESTDY": 54,
    "AEENDY": 57
  },
  {
    "STUDYID": "CDISCPILOT01",
    "DOMAIN": "AE",
    "USUBJID": "01-701-012",
    "AESEQ": 1,
    "AETERM": "Somnolence",
    "AEDECOD": "Somnolence",
    "AEBODSYS": "Nervous system disorders",
    "AECAT": "GENERAL",
    "AESEV": "MILD",
    "AETOXGR": "1",
    "AESER": "N",
    "AEREL": "RELATED",
    "AESTDTC": "2013-04-01",
    "AEENDTC": "2013-04-14",
    "AESTDY": 23,
    "AEENDY": 36
  },
  {
    "STUDYID": "CDISCPILOT01",
    "DOMAIN": "AE",
    "USUBJID": "01-701-013",
    "AESEQ": 1,
    "AETERM": "Pruritus",
    "AEDECOD": "Pruritus",
    "AEBODSYS": "Skin and subcutaneous tissue disorders",
    "AECAT": "GENERAL",
    "AESEV": "MODERATE",
    "AETOXGR": "2",
    "AESER": "N",
    "AEREL": "RELATED",
    "AESTDTC": "2013-11-08",
    "AEENDTC": "2013-12-02",
    "AESTDY": 17,
    "AEENDY": 41
  },
  {
    "STUDYID": "CDISCPILOT01",
    "DOMAIN": "AE",
    "USUBJID": "01-701-013",
    "AESEQ": 2,
    "AETERM": "Dizziness",
    "AEDECOD": "Dizziness",
    "AEBODSYS": "Nervous system disorders",
    "AECAT": "GENERAL",
    "AESEV": "MODERATE",
    "AETOXGR": "2",
    "AESER": "N",
    "AEREL": "NOT RELATED",
    "AESTDTC": "2014-01-07",
    "AEENDTC": "2014-02-09",
    "AESTDY": 77,
    "AEENDY": 110
  },
  {
    "STUDYID": "CDISCPILOT01",
    "DOMAIN": "AE",
    "USUBJID": "01-701-013",
    "AESEQ": 3,
    "AETERM": "Nasopharyngitis",
    "AEDECOD": "Nasopharyngitis",
    "AEBODSYS": "Infections and infestations",
    "AECAT": "GENERAL",
    "AESEV": "MILD",
    "AETOXGR": "1",
    "AESER": "N",
    "AEREL": "RELATED",
    "AESTDTC": "2013-12-29",
    "AEENDTC": "2014-01-24",
    "AESTDY": 68,
    "AEENDY": 94
  },
  {
    "STUDYID": "CDISCPILOT01",
    "DOMAIN": "AE",
    "USUBJID": "01-701-014",
    "AESEQ": 1,
    "AETERM": "Application site dermatitis",
    "AEDECOD": "Application site dermatitis",
    "AEBODSYS": "General disorders and administration site conditions",
    "AECAT": "APPLICATION SITE",
    "AESEV": "MODERATE",
    "AETOXGR": "2",
    "AESER": "N",
    "AEREL": "RELATED",
    "AESTDTC": "2013-12-17",
    "AEENDTC": "2013-12-31",
    "AESTDY": 9,
    "AEENDY": 23
  },
  {
    "STUDYID": "CDISCPILOT01",
    "DOMAIN": "AE",
    "USUBJID": "01-701-015",
    "AESEQ": 1,
    "AETERM": "Nasopharyngitis",
    "AEDECOD": "Nasopharyngitis",
    "AEBODSYS": "Infections and infestations",
    "AECAT": "GENERAL",
    "AESEV": "MODERATE",
    "AETOXGR": "2",
    "AESER": "N",
    "AEREL": "NOT RELATED",
    "AESTDTC": "2013-07-20",
    "AEENDTC": "2013-08-23",
    "AESTDY": 19,
    "AEENDY": 53
  },
  {
    "STUDYID": "CDISCPILOT01",
    "DOMAIN": "AE",
    "USUBJID": "01-701-016",
    "AESEQ": 1,
    "AETERM": "Erythema",
    "AEDECOD": "Erythema",
    "AEBODSYS": "Skin and subcutaneous tissue disorders",
    "AECAT": "GENERAL",
    "AESEV": "MODERATE",
    "AETOXGR": "2",
    "AESER": "Y",
    "AEREL": "POSSIBLY RELATED",
    "AESTDTC": "2013-10-01",
    "AEENDTC": "2013-10-13",
    "AESTDY": 17,
    "AEENDY": 29
  },
  {
    "STUDYID": "CDISCPILOT01",
    "DOMAIN": "AE",
    "USUBJID": "01-701-017",
    "AESEQ": 1,
    "AETERM": "Erythema",
    "AEDECOD": "Erythema",
    "AEBODSYS": "Skin and subcutaneous tissue disorders",
    "AECAT": "GENERAL",
    "AESEV": "MODERATE",
    "AETOXGR": "2",
    "AESER": "N",
    "AEREL": "POSSIBLY RELATED",
    "AESTDTC": "2013-07-20",
    "AEENDTC": "2013-07-31",
    "AESTDY": 52,
    "AEENDY": 63
  },
  {
    "STUDYID": "CDISCPILOT01",
    "DOMAIN": "AE",
    "USUBJID": "01-701-018",
    "AESEQ": 1,
    "AETERM": "Pruritus",
    "AEDECOD": "Pruritus",
    "AEBODSYS": "Skin and subcutaneous tissue disorders",
    "AECAT": "GENERAL",
    "AESEV": "MILD",
    "AETOXGR": "1",
    "AESER": "N",
    "AEREL": "POSSIBLY RELATED",
    "AESTDTC": "2013-07-11",
    "AEENDTC": "2013-07-20",
    "AESTDY": 88,
    "AEENDY": 97
  },
  {
    "STUDYID": "CDISCPILOT01",
    "DOMAIN": "AE",
    "USUBJID": "01-701-018",
    "AESEQ": 2,
    "AETERM": "Headache",
    "AEDECOD": "Headache",
    "AEBODSYS": "Nervous system disorders",
    "AECAT": "GENERAL",
    "AESEV": "LIFE-THREATENING",
    "AETOXGR": "4",
    "AESER": "Y",
    "AEREL": "POSSIBLY RELATED",
    "AESTDTC": "2013-06-25",
    "AEENDTC": "2013-07-05",
    "AESTDY": 72,
    "AEENDY": 82
  },
  {
    "STUDYID": "CDISCPILOT01",
    "DOMAIN": "AE",
    "USUBJID": "01-701-020",
    "AESEQ": 1,
    "AETERM": "Application site pruritus",
    "AEDECOD": "Application site pruritus",
    "AEBODSYS": "General disorders and administration site conditions",
    "AECAT": "APPLICATION SITE",
    "AESEV": "MODERATE",
    "AETOXGR": "2",
    "AESER": "N",
    "AEREL": "RELATED",
    "AESTDTC": "2013-04-13",
    "AEENDTC": "2013-04-16",
    "AESTDY": 3,
    "AEENDY": 6
  },
  {
    "STUDYID": "CDISCPILOT01",
    "DOMAIN": "AE",
    "USUBJID": "01-701-021",
    "AESEQ": 1,
    "AETERM": "Diarrhoea",
    "AEDECOD": "Diarrhoea",
    "AEBODSYS": "Gastrointestinal disorders",
    "AECAT": "GENERAL",
    "AESEV": "MODERATE",
    "AETOXGR": "2",
    "AESER": "N",
    "AEREL": "NOT RELATED",
    "AESTDTC": "2013-06-10",
    "AEENDTC": "2013-06-18",
    "AESTDY": 58,
    "AEENDY": 66
  },
  {
    "STUDYID": "CDISCPILOT01",
    "DOMAIN": "AE",
    "USUBJID": "01-701-022",
    "AESEQ": 1,
    "AETERM": "Application site irritation",
    "AEDECOD": "Application site irritation",
    "AEBODSYS": "General disorders and administration site conditions",
    "AECAT": "APPLICATION SITE",
    "AESEV": "MODERATE",
    "AETOXGR": "2",
    "AESER": "N",
    "AEREL": "RELATED",
    "AESTDTC": "2013-10-14",
    "AEENDTC": "2013-10-20",
    "AESTDY": 14,
    "AEENDY": 20
  },
  {
    "STUDYID": "CDISCPILOT01",
    "DOMAIN": "AE",
    "USUBJID": "01-701-022",
    "AESEQ": 2,
    "AETERM": "Dizziness",
    "AEDECOD": "Dizziness",
    "AEBODSYS": "Nervous system disorders",
    "AECAT": "GENERAL",
    "AESEV": "MILD",
    "AETOXGR": "1",
    "AESER": "N",
    "AEREL": "NOT RELATED",
    "AESTDTC": "2013-11-07",
    "AEENDTC": "2013-11-13",
    "AESTDY": 38,
    "AEENDY": 44
  },
  {
    "STUDYID": "CDISCPILOT01",
    "DOMAIN": "AE",
    "USUBJID": "01-701-022",
    "AESEQ": 3,
    "AETERM": "Nasal congestion",
    "AEDECOD": "Nasal congestion",
    "AEBODSYS": "Respiratory, thoracic and mediastinal disorders",
    "AECAT": "GENERAL",
    "AESEV": "MILD",
    "AETOXGR": "1",
    "AESER": "N",
    "AEREL": "POSSIBLY RELATED",
    "AESTDTC": "2013-12-01",
    "AEENDTC": "2013-12-24",
    "AESTDY": 62,
    "AEENDY": 85
  },
  {
    "STUDYID": "CDISCPILOT01",
    "DOMAIN": "AE",
    "USUBJID": "01-701-023",
    "AESEQ": 1,
    "AETERM": "Application site irritation",
    "AEDECOD": "Application site irritation",
    "AEBODSYS": "General disorders and administration site conditions",
    "AECAT": "APPLICATION SITE",
    "AESEV": "MODERATE",
    "AETOXGR": "2",
    "AESER": "N",
    "AEREL": "RELATED",
    "AESTDTC": "2013-07-29",
    "AEENDTC": "2013-08-05",
    "AESTDY": 3,
    "AEENDY": 10
  },
  {
    "STUDYID": "CDISCPILOT01",
    "DOMAIN": "AE",
    "USUBJID": "01-701-023",
    "AESEQ": 2,
    "AETERM": "Pruritus",
    "AEDECOD": "Pruritus",
    "AEBODSYS": "Skin and subcutaneous tissue disorders",
    "AECAT": "GENERAL",
    "AESEV": "MILD",
    "AETOXGR": "1",
    "AESER": "N",
    "AEREL": "RELATED",
    "AESTDTC": "2013-08-30",
    "AEENDTC": "2013-09-04",
    "AESTDY": 35,
    "AEENDY": 40
  },
  {
    "STUDYID": "CDISCPILOT01",
    "DOMAIN": "AE",
    "USUBJID": "01-701-024",
    "AESEQ": 1,
    "AETERM": "Application site pruritus",
    "AEDECOD": "Application site pruritus",
    "AEBODSYS": "General disorders and administration site conditions",
    "AECAT": "APPLICATION SITE",
    "AESEV": "SEVERE",
    "AETOXGR": "3",
    "AESER": "Y",
    "AEREL": "RELATED",
    "AESTDTC": "2014-01-09",
    "AEENDTC": "2014-01-16",
    "AESTDY": 20,
    "AEENDY": 27
  },
  {
    "STUDYID": "CDISCPILOT01",
    "DOMAIN": "AE",
    "USUBJID": "01-701-024",
    "AESEQ": 2,
    "AETERM": "Upper respiratory tract infection",
    "AEDECOD": "Upper respiratory tract infection",
    "AEBODSYS": "Infections and infestations",
    "AECAT": "GENERAL",
    "AESEV": "MODERATE",
    "AETOXGR": "2",
    "AESER": "N",
    "AEREL": "POSSIBLY RELATED",
    "AESTDTC": "2014-02-04",
    "AEENDTC": "2014-02-26",
    "AESTDY": 46,
    "AEENDY": 68
  },
  {
    "STUDYID": "CDISCPILOT01",
    "DOMAIN": "AE",
    "USUBJID": "01-701-026",
    "AESEQ": 1,
    "AETERM": "Pruritus",
    "AEDECOD": "Pruritus",
    "AEBODSYS": "Skin and subcutaneous tissue disorders",
    "AECAT": "GENERAL",
    "AESEV": "MILD",
    "AETOXGR": "1",
    "AESER": "N",
    "AEREL": "POSSIBLY RELATED",
    "AESTDTC": "2013-05-14",
    "AEENDTC": "2013-05-21",
    "AESTDY": 69,
    "AEENDY": 76
  },
  {
    "STUDYID": "CDISCPILOT01",
    "DOMAIN": "AE",
    "USUBJID": "01-701-026",
    "AESEQ": 2,
    "AETERM": "Erythema",
    "AEDECOD": "Erythema",
    "AEBODSYS": "Skin and subcutaneous tissue disorders",
    "AECAT": "GENERAL",
    "AESEV": "MODERATE",
    "AETOXGR": "2",
    "AESER": "N",
    "AEREL": "RELATED",
    "AESTDTC": "2013-03-28",
    "AEENDTC": "2013-04-06",
    "AESTDY": 22,
    "AEENDY": 31
  },
  {
    "STUDYID": "CDISCPILOT01",
    "DOMAIN": "AE",
    "USUBJID": "01-701-026",
    "AESEQ": 3,
    "AETERM": "Dizziness",
    "AEDECOD": "Dizziness",
    "AEBODSYS": "Nervous system disorders",
    "AECAT": "GENERAL",
    "AESEV": "MODERATE",
    "AETOXGR": "2",
    "AESER": "N",
    "AEREL": "NOT RELATED",
    "AESTDTC": "2013-05-11",
    "AEENDTC": "2013-05-21",
    "AESTDY": 66,
    "AEENDY": 76
  },
  {
    "STUDYID": "CDISCPILOT01",
    "DOMAIN": "AE",
    "USUBJID": "01-701-027",
    "AESEQ": 1,
    "AETERM": "Nasopharyngitis",
    "AEDECOD": "Nasopharyngitis",
    "AEBODSYS": "Infections and infestations",
    "AECAT": "GENERAL",
    "AESEV": "MILD",
    "AETOXGR": "1",
    "AESER": "N",
    "AEREL": "POSSIBLY RELATED",
    "AESTDTC": "2014-01-08",
    "AEENDTC": "2014-02-05",
    "AESTDY": 41,
    "AEENDY": 69
  },
  {
    "STUDYID": "CDISCPILOT01",
    "DOMAIN": "AE",
    "USUBJID": "01-701-028",
    "AESEQ": 1,
    "AETERM": "Application site irritation",
    "AEDECOD": "Application site irritation",
    "AEBODSYS": "General disorders and administration site conditions",
    "AECAT": "APPLICATION SITE",
    "AESEV": "MILD",
    "AETOXGR": "1",
    "AESER": "N",
    "AEREL": "POSSIBLY RELATED",
    "AESTDTC": "2013-08-20",
    "AEENDTC": "2013-09-03",
    "AESTDY": 24,
    "AEENDY": 38
  },
  {
    "STUDYID": "CDISCPILOT01",
    "DOMAIN": "AE",
    "USUBJID": "01-701-028",
    "AESEQ": 2,
    "AETERM": "Pruritus",
    "AEDECOD": "Pruritus",
    "AEBODSYS": "Skin and subcutaneous tissue disorders",
    "AECAT": "GENERAL",
    "AESEV": "MILD",
    "AETOXGR": "1",
    "AESER": "N",
    "AEREL": "POSSIBLY RELATED",
    "AESTDTC": "2013-08-11",
    "AEENDTC": "2013-08-25",
    "AESTDY": 15,
    "AEENDY": 29
  },
  {
    "STUDYID": "CDISCPILOT01",
    "DOMAIN": "AE",
    "USUBJID": "01-701-028",
    "AESEQ": 3,
    "AETERM": "Erythema",
    "AEDECOD": "Erythema",
    "AEBODSYS": "Skin and subcutaneous tissue disorders",
    "AECAT": "GENERAL",
    "AESEV": "MILD",
    "AETOXGR": "1",
    "AESER": "N",
    "AEREL": "NOT RELATED",
    "AESTDTC": "2013-08-16",
    "AEENDTC": "2013-09-12",
    "AESTDY": 20,
    "AEENDY": 47
  },
  {
    "STUDYID": "CDISCPILOT01",
    "DOMAIN": "AE",
    "USUBJID": "01-701-028",
    "AESEQ": 4,
    "AETERM": "Dizziness",
    "AEDECOD": "Dizziness",
    "AEBODSYS": "Nervous system disorders",
    "AECAT": "GENERAL",
    "AESEV": "MILD",
    "AETOXGR": "1",
    "AESER": "N",
    "AEREL": "NOT RELATED",
    "AESTDTC": "2013-08-24",
    "AEENDTC": "2013-08-24",
    "AESTDY": 28,
    "AEENDY": 28
  },
  {
    "STUDYID": "CDISCPILOT01",
    "DOMAIN": "AE",
    "USUBJID": "01-701-028",
    "AESEQ": 5,
    "AETERM": "Nausea",
    "AEDECOD": "Nausea",
    "AEBODSYS": "Gastrointestinal disorders",
    "AECAT": "GENERAL",
    "AESEV": "MILD",
    "AETOXGR": "1",
    "AESER": "N",
    "AEREL": "POSSIBLY RELATED",
    "AESTDTC": "2013-08-20",
    "AEENDTC": "2013-10-08",
    "AESTDY": 24,
    "AEENDY": 73
  },
  {
    "STUDYID": "CDISCPILOT01",
    "DOMAIN": "AE",
    "USUBJID": "01-701-028",
    "AESEQ": 6,
    "AETERM": "Sinus bradycardia",
    "AEDECOD": "Sinus bradycardia",
    "AEBODSYS": "Cardiac disorders",
    "AECAT": "GENERAL",
    "AESEV": "MODERATE",
    "AETOXGR": "2",
    "AESER": "N",
    "AEREL": "NOT RELATED",
    "AESTDTC": "2013-08-11",
    "AEENDTC": "2013-08-30",
    "AESTDY": 15,
    "AEENDY": 34
  },
  {
    "STUDYID": "CDISCPILOT01",
    "DOMAIN": "AE",
    "USUBJID": "01-701-029",
    "AESEQ": 1,
    "AETERM": "Upper respiratory tract infection",
    "AEDECOD": "Upper respiratory tract infection",
    "AEBODSYS": "Infections and infestations",
    "AECAT": "GENERAL",
    "AESEV": "MODERATE",
    "AETOXGR": "2",
    "AESER": "N",
    "AEREL": "RELATED",
    "AESTDTC": "2013-12-03",
    "AEENDTC": "2013-12-19",
    "AESTDY": 35,
    "AEENDY": 51
  },
  {
    "STUDYID": "CDISCPILOT01",
    "DOMAIN": "AE",
    "USUBJID": "01-701-030",
    "AESEQ": 1,
    "AETERM": "Headache",
    "AEDECOD": "Headache",
    "AEBODSYS": "Nervous system disorders",
    "AECAT": "GENERAL",
    "AESEV": "MODERATE",
    "AETOXGR": "2",
    "AESER": "N",
    "AEREL": "NOT RELATED",
    "AESTDTC": "2013-08-07",
    "AEENDTC": "2013-08-18",
    "AESTDY": 38,
    "AEENDY": 49
  },
  {
    "STUDYID": "CDISCPILOT01",
    "DOMAIN": "AE",
    "USUBJID": "01-701-030",
    "AESEQ": 2,
    "AETERM": "Sinus bradycardia",
    "AEDECOD": "Sinus bradycardia",
    "AEBODSYS": "Cardiac disorders",
    "AECAT": "GENERAL",
    "AESEV": "MODERATE",
    "AETOXGR": "2",
    "AESER": "N",
    "AEREL": "RELATED",
    "AESTDTC": "2013-07-07",
    "AEENDTC": "2013-07-22",
    "AESTDY": 7,
    "AEENDY": 22
  },
  {
    "STUDYID": "CDISCPILOT01",
    "DOMAIN": "AE",
    "USUBJID": "01-701-030",
    "AESEQ": 3,
    "AETERM": "Confusional state",
    "AEDECOD": "Confusional state",
    "AEBODSYS": "Psychiatric disorders",
    "AECAT": "GENERAL",
    "AESEV": "MILD",
    "AETOXGR": "1",
    "AESER": "N",
    "AEREL": "RELATED",
    "AESTDTC": "2013-07-27",
    "AEENDTC": "2013-08-09",
    "AESTDY": 27,
    "AEENDY": 40
  },
  {
    "STUDYID": "CDISCPILOT01",
    "DOMAIN": "AE",
    "USUBJID": "01-701-031",
    "AESEQ": 1,
    "AETERM": "Nausea",
    "AEDECOD": "Nausea",
    "AEBODSYS": "Gastrointestinal disorders",
    "AECAT": "GENERAL",
    "AESEV": "MODERATE",
    "AETOXGR": "2",
    "AESER": "N",
    "AEREL": "POSSIBLY RELATED",
    "AESTDTC": "2013-10-14",
    "AEENDTC": "2013-11-03",
    "AESTDY": 28,
    "AEENDY": 48
  },
  {
    "STUDYID": "CDISCPILOT01",
    "DOMAIN": "AE",
    "USUBJID": "01-701-034",
    "AESEQ": 1,
    "AETERM": "Hyperhidrosis",
    "AEDECOD": "Hyperhidrosis",
    "AEBODSYS": "Skin and subcutaneous tissue disorders",
    "AECAT": "GENERAL",
    "AESEV": "MODERATE",
    "AETOXGR": "2",
    "AESER": "N",
    "AEREL": "RELATED",
    "AESTDTC": "2013-09-11",
    "AEENDTC": "2013-10-28",
    "AESTDY": 27,
    "AEENDY": 74
  },
  {
    "STUDYID": "CDISCPILOT01",
    "DOMAIN": "AE",
    "USUBJID": "01-701-034",
    "AESEQ": 2,
    "AETERM": "Myocardial infarction",
    "AEDECOD": "Myocardial infarction",
    "AEBODSYS": "Cardiac disorders",
    "AECAT": "GENERAL",
    "AESEV": "MODERATE",
    "AETOXGR": "2",
    "AESER": "N",
    "AEREL": "NOT RELATED",
    "AESTDTC": "2013-09-11",
    "AEENDTC": "2013-10-24",
    "AESTDY": 27,
    "AEENDY": 70
  },
  {
    "STUDYID": "CDISCPILOT01",
    "DOMAIN": "AE",
    "USUBJID": "01-701-035",
    "AESEQ": 1,
    "AETERM": "Rash",
    "AEDECOD": "Rash",
    "AEBODSYS": "Skin and subcutaneous tissue disorders",
    "AECAT": "GENERAL",
    "AESEV": "MODERATE",
    "AETOXGR": "2",
    "AESER": "N",
    "AEREL": "RELATED",
    "AESTDTC": "2013-06-13",
    "AEENDTC": "2013-06-26",
    "AESTDY": 49,
    "AEENDY": 62
  },
  {
    "STUDYID": "CDISCPILOT01",
    "DOMAIN": "AE",
    "USUBJID": "01-701-035",
    "AESEQ": 2,
    "AETERM": "Sinus bradycardia",
    "AEDECOD": "Sinus bradycardia",
    "AEBODSYS": "Cardiac disorders",
    "AECAT": "GENERAL",
    "AESEV": "SEVERE",
    "AETOXGR": "3",
    "AESER": "Y",
    "AEREL": "POSSIBLY RELATED",
    "AESTDTC": "2013-06-04",
    "AEENDTC": "2013-06-25",
    "AESTDY": 40,
    "AEENDY": 61
  },
  {
    "STUDYID": "CDISCPILOT01",
    "DOMAIN": "AE",
    "USUBJID": "01-701-035",
    "AESEQ": 3,
    "AETERM": "Cough",
    "AEDECOD": "Cough",
    "AEBODSYS": "Respiratory, thoracic and mediastinal disorders",
    "AECAT": "GENERAL",
    "AESEV": "MILD",
    "AETOXGR": "1",
    "AESER": "N",
    "AEREL": "RELATED",
    "AESTDTC": "2013-06-13",
    "AEENDTC": "2013-07-01",
    "AESTDY": 49,
    "AEENDY": 67
  },
  {
    "STUDYID": "CDISCPILOT01",
    "DOMAIN": "AE",
    "USUBJID": "01-701-035",
    "AESEQ": 4,
    "AETERM": "Fatigue",
    "AEDECOD": "Fatigue",
    "AEBODSYS": "General disorders and administration site conditions",
    "AECAT": "GENERAL",
    "AESEV": "MILD",
    "AETOXGR": "1",
    "AESER": "N",
    "AEREL": "RELATED",
    "AESTDTC": "2013-06-01",
    "AEENDTC": "2013-07-01",
    "AESTDY": 37,
    "AEENDY": 67
  },
  {
    "STUDYID": "CDISCPILOT01",
    "DOMAIN": "AE",
    "USUBJID": "01-701-036",
    "AESEQ": 1,
    "AETERM": "Application site erythema",
    "AEDECOD": "Application site erythema",
    "AEBODSYS": "General disorders and administration site conditions",
    "AECAT": "APPLICATION SITE",
    "AESEV": "MILD",
    "AETOXGR": "1",
    "AESER": "N",
    "AEREL": "RELATED",
    "AESTDTC": "2013-08-29",
    "AEENDTC": "2013-09-04",
    "AESTDY": 13,
    "AEENDY": 19
  },
  {
    "STUDYID": "CDISCPILOT01",
    "DOMAIN": "AE",
    "USUBJID": "01-701-037",
    "AESEQ": 1,
    "AETERM": "Application site erythema",
    "AEDECOD": "Application site erythema",
    "AEBODSYS": "General disorders and administration site conditions",
    "AECAT": "APPLICATION SITE",
    "AESEV": "MODERATE",
    "AETOXGR": "2",
    "AESER": "N",
    "AEREL": "RELATED",
    "AESTDTC": "2013-01-22",
    "AEENDTC": "2013-01-25",
    "AESTDY": 17,
    "AEENDY": 20
  },
  {
    "STUDYID": "CDISCPILOT01",
    "DOMAIN": "AE",
    "USUBJID": "01-701-037",
    "AESEQ": 2,
    "AETERM": "Sinus bradycardia",
    "AEDECOD": "Sinus bradycardia",
    "AEBODSYS": "Cardiac disorders",
    "AECAT": "GENERAL",
    "AESEV": "MILD",
    "AETOXGR": "1",
    "AESER": "N",
    "AEREL": "POSSIBLY RELATED",
    "AESTDTC": "2013-02-28",
    "AEENDTC": "2013-03-17",
    "AESTDY": 54,
    "AEENDY": 71
  },
  {
    "STUDYID": "CDISCPILOT01",
    "DOMAIN": "AE",
    "USUBJID": "01-701-038",
    "AESEQ": 1,
    "AETERM": "Application site erythema",
    "AEDECOD": "Application site erythema",
    "AEBODSYS": "General disorders and administration site conditions",
    "AECAT": "APPLICATION SITE",
    "AESEV": "MODERATE",
    "AETOXGR": "2",
    "AESER": "N",
    "AEREL": "RELATED",
    "AESTDTC": "2013-06-27",
    "AEENDTC": "2013-06-30",
    "AESTDY": 13,
    "AEENDY": 16
  },
  {
    "STUDYID": "CDISCPILOT01",
    "DOMAIN": "AE",
    "USUBJID": "01-701-040",
    "AESEQ": 1,
    "AETERM": "Pruritus",
    "AEDECOD": "Pruritus",
    "AEBODSYS": "Skin and subcutaneous tissue disorders",
    "AECAT": "GENERAL",
    "AESEV": "SEVERE",
    "AETOXGR": "3",
    "AESER": "Y",
    "AEREL": "NOT RELATED",
    "AESTDTC": "2013-10-30",
    "AEENDTC": "2013-11-19",
    "AESTDY": 27,
    "AEENDY": 47
  },
  {
    "STUDYID": "CDISCPILOT01",
    "DOMAIN": "AE",
    "USUBJID": "01-701-041",
    "AESEQ": 1,
    "AETERM": "Application site pruritus",
    "AEDECOD": "Application site pruritus",
    "AEBODSYS": "General disorders and administration site conditions",
    "AECAT": "APPLICATION SITE",
    "AESEV": "MILD",
    "AETOXGR": "1",
    "AESER": "N",
    "AEREL": "RELATED",
    "AESTDTC": "2013-11-19",
    "AEENDTC": "2013-11-23",
    "AESTDY": 13,
    "AEENDY": 17
  },
  {
    "STUDYID": "CDISCPILOT01",
    "DOMAIN": "AE",
    "USUBJID": "01-701-041",
    "AESEQ": 2,
    "AETERM": "Application site vesicles",
    "AEDECOD": "Application site vesicles",
    "AEBODSYS": "General disorders and administration site conditions",
    "AECAT": "APPLICATION SITE",
    "AESEV": "MILD",
    "AETOXGR": "1",
    "AESER": "N",
    "AEREL": "RELATED",
    "AESTDTC": "2013-11-15",
    "AEENDTC": "2013-12-05",
    "AESTDY": 9,
    "AEENDY": 29
  },
  {
    "STUDYID": "CDISCPILOT01",
    "DOMAIN": "AE",
    "USUBJID": "01-701-042",
    "AESEQ": 1,
    "AETERM": "Application site pruritus",
    "AEDECOD": "Application site pruritus",
    "AEBODSYS": "General disorders and administration site conditions",
    "AECAT": "APPLICATION SITE",
    "AESEV": "MODERATE",
    "AETOXGR": "2",
    "AESER": "N",
    "AEREL": "RELATED",
    "AESTDTC": "2013-09-13",
    "AEENDTC": "2013-09-15",
    "AESTDY": 10,
    "AEENDY": 12
  },
  {
    "STUDYID": "CDISCPILOT01",
    "DOMAIN": "AE",
    "USUBJID": "01-701-042",
    "AESEQ": 2,
    "AETERM": "Somnolence",
    "AEDECOD": "Somnolence",
    "AEBODSYS": "Nervous system disorders",
    "AECAT": "GENERAL",
    "AESEV": "MODERATE",
    "AETOXGR": "2",
    "AESER": "N",
    "AEREL": "RELATED",
    "AESTDTC": "2013-09-18",
    "AEENDTC": "2013-10-13",
    "AESTDY": 15,
    "AEENDY": 40
  },
  {
    "STUDYID": "CDISCPILOT01",
    "DOMAIN": "AE",
    "USUBJID": "01-703-001",
    "AESEQ": 1,
    "AETERM": "Application site vesicles",
    "AEDECOD": "Application site vesicles",
    "AEBODSYS": "General disorders and administration site conditions",
    "AECAT": "APPLICATION SITE",
    "AESEV": "MODERATE",
    "AETOXGR": "2",
    "AESER": "N",
    "AEREL": "POSSIBLY RELATED",
    "AESTDTC": "2013-01-28",
    "AEENDTC": "2013-02-19",
    "AESTDY": 16,
    "AEENDY": 38
  },
  {
    "STUDYID": "CDISCPILOT01",
    "DOMAIN": "AE",
    "USUBJID": "01-703-002",
    "AESEQ": 1,
    "AETERM": "Headache",
    "AEDECOD": "Headache",
    "AEBODSYS": "Nervous system disorders",
    "AECAT": "GENERAL",
    "AESEV": "MODERATE",
    "AETOXGR": "2",
    "AESER": "N",
    "AEREL": "NOT RELATED",
    "AESTDTC": "2013-03-08",
    "AEENDTC": "2013-04-21",
    "AESTDY": 33,
    "AEENDY": 77
  },
  {
    "STUDYID": "CDISCPILOT01",
    "DOMAIN": "AE",
    "USUBJID": "01-703-003",
    "AESEQ": 1,
    "AETERM": "Application site irritation",
    "AEDECOD": "Application site irritation",
    "AEBODSYS": "General disorders and administration site conditions",
    "AECAT": "APPLICATION SITE",
    "AESEV": "MILD",
    "AETOXGR": "1",
    "AESER": "N",
    "AEREL": "RELATED",
    "AESTDTC": "2013-08-27",
    "AEENDTC": "2013-09-20",
    "AESTDY": 15,
    "AEENDY": 39
  },
  {
    "STUDYID": "CDISCPILOT01",
    "DOMAIN": "AE",
    "USUBJID": "01-703-003",
    "AESEQ": 2,
    "AETERM": "Syncope",
    "AEDECOD": "Syncope",
    "AEBODSYS": "Nervous system disorders",
    "AECAT": "GENERAL",
    "AESEV": "MODERATE",
    "AETOXGR": "2",
    "AESER": "N",
    "AEREL": "RELATED",
    "AESTDTC": "2013-10-25",
    "AEENDTC": "2013-11-20",
    "AESTDY": 74,
    "AEENDY": 100
  },
  {
    "STUDYID": "CDISCPILOT01",
    "DOMAIN": "AE",
    "USUBJID": "01-703-004",
    "AESEQ": 1,
    "AETERM": "Application site erythema",
    "AEDECOD": "Application site erythema",
    "AEBODSYS": "General disorders and administration site conditions",
    "AECAT": "APPLICATION SITE",
    "AESEV": "MODERATE",
    "AETOXGR": "2",
    "AESER": "N",
    "AEREL": "RELATED",
    "AESTDTC": "2013-08-08",
    "AEENDTC": "2013-08-10",
    "AESTDY": 9,
    "AEENDY": 11
  },
  {
    "STUDYID": "CDISCPILOT01",
    "DOMAIN": "AE",
    "USUBJID": "01-703-004",
    "AESEQ": 2,
    "AETERM": "Erythema",
    "AEDECOD": "Erythema",
    "AEBODSYS": "Skin and subcutaneous tissue disorders",
    "AECAT": "GENERAL",
    "AESEV": "MILD",
    "AETOXGR": "1",
    "AESER": "N",
    "AEREL": "POSSIBLY RELATED",
    "AESTDTC": "2013-09-29",
    "AEENDTC": "2013-11-01",
    "AESTDY": 61,
    "AEENDY": 94
  },
  {
    "STUDYID": "CDISCPILOT01",
    "DOMAIN": "AE",
    "USUBJID": "01-703-004",
    "AESEQ": 3,
    "AETERM": "Diarrhoea",
    "AEDECOD": "Diarrhoea",
    "AEBODSYS": "Gastrointestinal disorders",
    "AECAT": "GENERAL",
    "AESEV": "MODERATE",
    "AETOXGR": "2",
    "AESER": "N",
    "AEREL": "NOT RELATED",
    "AESTDTC": "2013-08-14",
    "AEENDTC": "2013-08-25",
    "AESTDY": 15,
    "AEENDY": 26
  },
  {
    "STUDYID": "CDISCPILOT01",
    "DOMAIN": "AE",
    "USUBJID": "01-703-004",
    "AESEQ": 4,
    "AETERM": "Nasopharyngitis",
    "AEDECOD": "Nasopharyngitis",
    "AEBODSYS": "Infections and infestations",
    "AECAT": "GENERAL",
    "AESEV": "MILD",
    "AETOXGR": "1",
    "AESER": "N",
    "AEREL": "POSSIBLY RELATED",
    "AESTDTC": "2013-10-24",
    "AEENDTC": "2013-12-05",
    "AESTDY": 86,
    "AEENDY": 128
  },
  {
    "STUDYID": "CDISCPILOT01",
    "DOMAIN": "AE",
    "USUBJID": "01-703-008",
    "AESEQ": 1,
    "AETERM": "Erythema",
    "AEDECOD": "Erythema",
    "AEBODSYS": "Skin and subcutaneous tissue disorders",
    "AECAT": "GENERAL",
    "AESEV": "MODERATE",
    "AETOXGR": "2",
    "AESER": "N",
    "AEREL": "NOT RELATED",
    "AESTDTC": "2014-02-13",
    "AEENDTC": "2014-03-09",
    "AESTDY": 43,
    "AEENDY": 67
  },
  {
    "STUDYID": "CDISCPILOT01",
    "DOMAIN": "AE",
    "USUBJID": "01-703-011",
    "AESEQ": 1,
    "AETERM": "Diarrhoea",
    "AEDECOD": "Diarrhoea",
    "AEBODSYS": "Gastrointestinal disorders",
    "AECAT": "GENERAL",
    "AESEV": "MODERATE",
    "AETOXGR": "2",
    "AESER": "N",
    "AEREL": "POSSIBLY RELATED",
    "AESTDTC": "2014-01-07",
    "AEENDTC": "2014-01-15",
    "AESTDY": 16,
    "AEENDY": 24
  },
  {
    "STUDYID": "CDISCPILOT01",
    "DOMAIN": "AE",
    "USUBJID": "01-703-011",
    "AESEQ": 2,
    "AETERM": "Nasopharyngitis",
    "AEDECOD": "Nasopharyngitis",
    "AEBODSYS": "Infections and infestations",
    "AECAT": "GENERAL",
    "AESEV": "MILD",
    "AETOXGR": "1",
    "AESER": "N",
    "AEREL": "NOT RELATED",
    "AESTDTC": "2013-12-28",
    "AEENDTC": "2014-01-20",
    "AESTDY": 6,
    "AEENDY": 29
  },
  {
    "STUDYID": "CDISCPILOT01",
    "DOMAIN": "AE",
    "USUBJID": "01-703-013",
    "AESEQ": 1,
    "AETERM": "Rash",
    "AEDECOD": "Rash",
    "AEBODSYS": "Skin and subcutaneous tissue disorders",
    "AECAT": "GENERAL",
    "AESEV": "MODERATE",
    "AETOXGR": "2",
    "AESER": "N",
    "AEREL": "NOT RELATED",
    "AESTDTC": "2013-05-20",
    "AEENDTC": "2013-05-26",
    "AESTDY": 22,
    "AEENDY": 28
  },
  {
    "STUDYID": "CDISCPILOT01",
    "DOMAIN": "AE",
    "USUBJID": "01-703-015",
    "AESEQ": 1,
    "AETERM": "Application site erythema",
    "AEDECOD": "Application site erythema",
    "AEBODSYS": "General disorders and administration site conditions",
    "AECAT": "APPLICATION SITE",
    "AESEV": "MILD",
    "AETOXGR": "1",
    "AESER": "N",
    "AEREL": "RELATED",
    "AESTDTC": "2013-02-23",
    "AEENDTC": "2013-03-13",
    "AESTDY": 12,
    "AEENDY": 30
  },
  {
    "STUDYID": "CDISCPILOT01",
    "DOMAIN": "AE",
    "USUBJID": "01-703-015",
    "AESEQ": 2,
    "AETERM": "Erythema",
    "AEDECOD": "Erythema",
    "AEBODSYS": "Skin and subcutaneous tissue disorders",
    "AECAT": "GENERAL",
    "AESEV": "MILD",
    "AETOXGR": "1",
    "AESER": "Y",
    "AEREL": "POSSIBLY RELATED",
    "AESTDTC": "2013-05-10",
    "AEENDTC": "2013-05-12",
    "AESTDY": 88,
    "AEENDY": 90
  },
  {
    "STUDYID": "CDISCPILOT01",
    "DOMAIN": "AE",
    "USUBJID": "01-703-015",
    "AESEQ": 3,
    "AETERM": "Diarrhoea",
    "AEDECOD": "Diarrhoea",
    "AEBODSYS": "Gastrointestinal disorders",
    "AECAT": "GENERAL",
    "AESEV": "MILD",
    "AETOXGR": "1",
    "AESER": "N",
    "AEREL": "RELATED",
    "AESTDTC": "2013-05-13",
    "AEENDTC": "2013-05-13",
    "AESTDY": 91,
    "AEENDY": 91
  },
  {
    "STUDYID": "CDISCPILOT01",
    "DOMAIN": "AE",
    "USUBJID": "01-703-015",
    "AESEQ": 4,
    "AETERM": "Agitation",
    "AEDECOD": "Agitation",
    "AEBODSYS": "Psychiatric disorders",
    "AECAT": "GENERAL",
    "AESEV": "SEVERE",
    "AETOXGR": "3",
    "AESER": "Y",
    "AEREL": "NOT RELATED",
    "AESTDTC": "2013-03-30",
    "AEENDTC": "2013-04-23",
    "AESTDY": 47,
    "AEENDY": 71
  },
  {
    "STUDYID": "CDISCPILOT01",
    "DOMAIN": "AE",
    "USUBJID": "01-703-015",
    "AESEQ": 5,
    "AETERM": "Cough",
    "AEDECOD": "Cough",
    "AEBODSYS": "Respiratory, thoracic and mediastinal disorders",
    "AECAT": "GENERAL",
    "AESEV": "MILD",
    "AETOXGR": "1",
    "AESER": "N",
    "AEREL": "RELATED",
    "AESTDTC": "2013-06-12",
    "AEENDTC": "2013-06-28",
    "AESTDY": 121,
    "AEENDY": 137
  },
  {
    "STUDYID": "CDISCPILOT01",
    "DOMAIN": "AE",
    "USUBJID": "01-703-017",
    "AESEQ": 1,
    "AETERM": "Erythema",
    "AEDECOD": "Erythema",
    "AEBODSYS": "Skin and subcutaneous tissue disorders",
    "AECAT": "GENERAL",
    "AESEV": "MODERATE",
    "AETOXGR": "2",
    "AESER": "N",
    "AEREL": "NOT RELATED",
    "AESTDTC": "2013-11-23",
    "AEENDTC": "2014-01-04",
    "AESTDY": 5,
    "AEENDY": 47
  },
  {
    "STUDYID": "CDISCPILOT01",
    "DOMAIN": "AE",
    "USUBJID": "01-703-017",
    "AESEQ": 2,
    "AETERM": "Dizziness",
    "AEDECOD": "Dizziness",
    "AEBODSYS": "Nervous system disorders",
    "AECAT": "GENERAL",
    "AESEV": "MODERATE",
    "AETOXGR": "2",
    "AESER": "N",
    "AEREL": "NOT RELATED",
    "AESTDTC": "2013-12-16",
    "AEENDTC": "2014-01-25",
    "AESTDY": 28,
    "AEENDY": 68
  },
  {
    "STUDYID": "CDISCPILOT01",
    "DOMAIN": "AE",
    "USUBJID": "01-703-019",
    "AESEQ": 1,
    "AETERM": "Erythema",
    "AEDECOD": "Erythema",
    "AEBODSYS": "Skin and subcutaneous tissue disorders",
    "AECAT": "GENERAL",
    "AESEV": "MODERATE",
    "AETOXGR": "2",
    "AESER": "N",
    "AEREL": "NOT RELATED",
    "AESTDTC": "2013-11-27",
    "AEENDTC": "2013-12-15",
    "AESTDY": 24,
    "AEENDY": 42
  },
  {
    "STUDYID": "CDISCPILOT01",
    "DOMAIN": "AE",
    "USUBJID": "01-703-019",
    "AESEQ": 2,
    "AETERM": "Skin irritation",
    "AEDECOD": "Skin irritation",
    "AEBODSYS": "Skin and subcutaneous tissue disorders",
    "AECAT": "GENERAL",
    "AESEV": "MODERATE",
    "AETOXGR": "2",
    "AESER": "N",
    "AEREL": "RELATED",
    "AESTDTC": "2013-11-07",
    "AEENDTC": "2013-11-10",
    "AESTDY": 4,
    "AEENDY": 7
  },
  {
    "STUDYID": "CDISCPILOT01",
    "DOMAIN": "AE",
    "USUBJID": "01-703-020",
    "AESEQ": 1,
    "AETERM": "Pruritus",
    "AEDECOD": "Pruritus",
    "AEBODSYS": "Skin and subcutaneous tissue disorders",
    "AECAT": "GENERAL",
    "AESEV": "MILD",
    "AETOXGR": "1",
    "AESER": "N",
    "AEREL": "RELATED",
    "AESTDTC": "2013-07-08",
    "AEENDTC": "2013-07-31",
    "AESTDY": 1,
    "AEENDY": 24
  },
  {
    "STUDYID": "CDISCPILOT01",
    "DOMAIN": "AE",
    "USUBJID": "01-704-002",
    "AESEQ": 1,
    "AETERM": "Diarrhoea",
    "AEDECOD": "Diarrhoea",
    "AEBODSYS": "Gastrointestinal disorders",
    "AECAT": "GENERAL",
    "AESEV": "MODERATE",
    "AETOXGR": "2",
    "AESER": "N",
    "AEREL": "POSSIBLY RELATED",
    "AESTDTC": "2013-03-13",
    "AEENDTC": "2013-05-01",
    "AESTDY": 20,
    "AEENDY": 69
  },
  {
    "STUDYID": "CDISCPILOT01",
    "DOMAIN": "AE",
    "USUBJID": "01-704-003",
    "AESEQ": 1,
    "AETERM": "Application site erythema",
    "AEDECOD": "Application site erythema",
    "AEBODSYS": "General disorders and administration site conditions",
    "AECAT": "APPLICATION SITE",
    "AESEV": "MILD",
    "AETOXGR": "1",
    "AESER": "N",
    "AEREL": "RELATED",
    "AESTDTC": "2013-07-01",
    "AEENDTC": "2013-07-13",
    "AESTDY": 9,
    "AEENDY": 21
  },
  {
    "STUDYID": "CDISCPILOT01",
    "DOMAIN": "AE",
    "USUBJID": "01-704-003",
    "AESEQ": 2,
    "AETERM": "Erythema",
    "AEDECOD": "Erythema",
    "AEBODSYS": "Skin and subcutaneous tissue disorders",
    "AECAT": "GENERAL",
    "AESEV": "MODERATE",
    "AETOXGR": "2",
    "AESER": "N",
    "AEREL": "NOT RELATED",
    "AESTDTC": "2013-08-06",
    "AEENDTC": "2013-08-25",
    "AESTDY": 45,
    "AEENDY": 64
  },
  {
    "STUDYID": "CDISCPILOT01",
    "DOMAIN": "AE",
    "USUBJID": "01-704-007",
    "AESEQ": 1,
    "AETERM": "Diarrhoea",
    "AEDECOD": "Diarrhoea",
    "AEBODSYS": "Gastrointestinal disorders",
    "AECAT": "GENERAL",
    "AESEV": "MODERATE",
    "AETOXGR": "2",
    "AESER": "N",
    "AEREL": "RELATED",
    "AESTDTC": "2014-01-11",
    "AEENDTC": "2014-02-08",
    "AESTDY": 26,
    "AEENDY": 54
  },
  {
    "STUDYID": "CDISCPILOT01",
    "DOMAIN": "AE",
    "USUBJID": "01-704-008",
    "AESEQ": 1,
    "AETERM": "Application site irritation",
    "AEDECOD": "Application site irritation",
    "AEBODSYS": "General disorders and administration site conditions",
    "AECAT": "APPLICATION SITE",
    "AESEV": "MODERATE",
    "AETOXGR": "2",
    "AESER": "N",
    "AEREL": "POSSIBLY RELATED",
    "AESTDTC": "2013-07-20",
    "AEENDTC": "2013-07-31",
    "AESTDY": 15,
    "AEENDY": 26
  },
  {
    "STUDYID": "CDISCPILOT01",
    "DOMAIN": "AE",
    "USUBJID": "01-704-008",
    "AESEQ": 2,
    "AETERM": "Hyperhidrosis",
    "AEDECOD": "Hyperhidrosis",
    "AEBODSYS": "Skin and subcutaneous tissue disorders",
    "AECAT": "GENERAL",
    "AESEV": "MODERATE",
    "AETOXGR": "2",
    "AESER": "N",
    "AEREL": "NOT RELATED",
    "AESTDTC": "2013-10-13",
    "AEENDTC": "2013-10-28",
    "AESTDY": 100,
    "AEENDY": 115
  },
  {
    "STUDYID": "CDISCPILOT01",
    "DOMAIN": "AE",
    "USUBJID": "01-704-009",
    "AESEQ": 1,
    "AETERM": "Rash",
    "AEDECOD": "Rash",
    "AEBODSYS": "Skin and subcutaneous tissue disorders",
    "AECAT": "GENERAL",
    "AESEV": "MODERATE",
    "AETOXGR": "2",
    "AESER": "N",
    "AEREL": "NOT RELATED",
    "AESTDTC": "2013-07-25",
    "AEENDTC": "2013-07-28",
    "AESTDY": 14,
    "AEENDY": 17
  },
  {
    "STUDYID": "CDISCPILOT01",
    "DOMAIN": "AE",
    "USUBJID": "01-704-010",
    "AESEQ": 1,
    "AETERM": "Application site dermatitis",
    "AEDECOD": "Application site dermatitis",
    "AEBODSYS": "General disorders and administration site conditions",
    "AECAT": "APPLICATION SITE",
    "AESEV": "MODERATE",
    "AETOXGR": "2",
    "AESER": "N",
    "AEREL": "RELATED",
    "AESTDTC": "2013-09-25",
    "AEENDTC": "2013-10-19",
    "AESTDY": 4,
    "AEENDY": 28
  },
  {
    "STUDYID": "CDISCPILOT01",
    "DOMAIN": "AE",
    "USUBJID": "01-704-010",
    "AESEQ": 2,
    "AETERM": "Pruritus",
    "AEDECOD": "Pruritus",
    "AEBODSYS": "Skin and subcutaneous tissue disorders",
    "AECAT": "GENERAL",
    "AESEV": "MILD",
    "AETOXGR": "1",
    "AESER": "N",
    "AEREL": "NOT RELATED",
    "AESTDTC": "2013-10-10",
    "AEENDTC": "2013-10-29",
    "AESTDY": 19,
    "AEENDY": 38
  },
  {
    "STUDYID": "CDISCPILOT01",
    "DOMAIN": "AE",
    "USUBJID": "01-704-010",
    "AESEQ": 3,
    "AETERM": "Nausea",
    "AEDECOD": "Nausea",
    "AEBODSYS": "Gastrointestinal disorders",
    "AECAT": "GENERAL",
    "AESEV": "MILD",
    "AETOXGR": "1",
    "AESER": "N",
    "AEREL": "NOT RELATED",
    "AESTDTC": "2013-10-23",
    "AEENDTC": "2013-11-14",
    "AESTDY": 32,
    "AEENDY": 54
  },
  {
    "STUDYID": "CDISCPILOT01",
    "DOMAIN": "AE",
    "USUBJID": "01-704-010",
    "AESEQ": 4,
    "AETERM": "Myocardial infarction",
    "AEDECOD": "Myocardial infarction",
    "AEBODSYS": "Cardiac disorders",
    "AECAT": "GENERAL",
    "AESEV": "SEVERE",
    "AETOXGR": "3",
    "AESER": "Y",
    "AEREL": "NOT RELATED",
    "AESTDTC": "2013-10-30",
    "AEENDTC": "2013-11-29",
    "AESTDY": 39,
    "AEENDY": 69
  },
  {
    "STUDYID": "CDISCPILOT01",
    "DOMAIN": "AE",
    "USUBJID": "01-704-013",
    "AESEQ": 1,
    "AETERM": "Dizziness",
    "AEDECOD": "Dizziness",
    "AEBODSYS": "Nervous system disorders",
    "AECAT": "GENERAL",
    "AESEV": "MODERATE",
    "AETOXGR": "2",
    "AESER": "N",
    "AEREL": "RELATED",
    "AESTDTC": "2013-05-23",
    "AEENDTC": "2013-05-29",
    "AESTDY": 17,
    "AEENDY": 23
  },
  {
    "STUDYID": "CDISCPILOT01",
    "DOMAIN": "AE",
    "USUBJID": "01-704-016",
    "AESEQ": 1,
    "AETERM": "Nasal congestion",
    "AEDECOD": "Nasal congestion",
    "AEBODSYS": "Respiratory, thoracic and mediastinal disorders",
    "AECAT": "GENERAL",
    "AESEV": "MILD",
    "AETOXGR": "1",
    "AESER": "N",
    "AEREL": "NOT RELATED",
    "AESTDTC": "2013-09-10",
    "AEENDTC": "2013-10-05",
    "AESTDY": 8,
    "AEENDY": 33
  },
  {
    "STUDYID": "CDISCPILOT01",
    "DOMAIN": "AE",
    "USUBJID": "01-704-016",
    "AESEQ": 2,
    "AETERM": "Fatigue",
    "AEDECOD": "Fatigue",
    "AEBODSYS": "General disorders and administration site conditions",
    "AECAT": "GENERAL",
    "AESEV": "MILD",
    "AETOXGR": "1",
    "AESER": "N",
    "AEREL": "POSSIBLY RELATED",
    "AESTDTC": "2013-09-19",
    "AEENDTC": "2013-10-04",
    "AESTDY": 17,
    "AEENDY": 32
  },
  {
    "STUDYID": "CDISCPILOT01",
    "DOMAIN": "AE",
    "USUBJID": "01-704-017",
    "AESEQ": 1,
    "AETERM": "Application site pruritus",
    "AEDECOD": "Application site pruritus",
    "AEBODSYS": "General disorders and administration site conditions",
    "AECAT": "APPLICATION SITE",
    "AESEV": "MILD",
    "AETOXGR": "1",
    "AESER": "N",
    "AEREL": "POSSIBLY RELATED",
    "AESTDTC": "2013-01-16",
    "AEENDTC": "2013-02-15",
    "AESTDY": 5,
    "AEENDY": 35
  },
  {
    "STUDYID": "CDISCPILOT01",
    "DOMAIN": "AE",
    "USUBJID": "01-704-017",
    "AESEQ": 2,
    "AETERM": "Hyperhidrosis",
    "AEDECOD": "Hyperhidrosis",
    "AEBODSYS": "Skin and subcutaneous tissue disorders",
    "AECAT": "GENERAL",
    "AESEV": "MILD",
    "AETOXGR": "1",
    "AESER": "N",
    "AEREL": "POSSIBLY RELATED",
    "AESTDTC": "2013-03-10",
    "AEENDTC": "2013-04-05",
    "AESTDY": 58,
    "AEENDY": 84
  },
  {
    "STUDYID": "CDISCPILOT01",
    "DOMAIN": "AE",
    "USUBJID": "01-704-017",
    "AESEQ": 3,
    "AETERM": "Nausea",
    "AEDECOD": "Nausea",
    "AEBODSYS": "Gastrointestinal disorders",
    "AECAT": "GENERAL",
    "AESEV": "MODERATE",
    "AETOXGR": "2",
    "AESER": "N",
    "AEREL": "NOT RELATED",
    "AESTDTC": "2013-06-08",
    "AEENDTC": "2013-06-24",
    "AESTDY": 148,
    "AEENDY": 164
  },
  {
    "STUDYID": "CDISCPILOT01",
    "DOMAIN": "AE",
    "USUBJID": "01-704-018",
    "AESEQ": 1,
    "AETERM": "Application site irritation",
    "AEDECOD": "Application site irritation",
    "AEBODSYS": "General disorders and administration site conditions",
    "AECAT": "APPLICATION SITE",
    "AESEV": "MODERATE",
    "AETOXGR": "2",
    "AESER": "N",
    "AEREL": "RELATED",
    "AESTDTC": "2013-06-30",
    "AEENDTC": "2013-07-14",
    "AESTDY": 9,
    "AEENDY": 23
  },
  {
    "STUDYID": "CDISCPILOT01",
    "DOMAIN": "AE",
    "USUBJID": "01-704-019",
    "AESEQ": 1,
    "AETERM": "Application site pruritus",
    "AEDECOD": "Application site pruritus",
    "AEBODSYS": "General disorders and administration site conditions",
    "AECAT": "APPLICATION SITE",
    "AESEV": "MILD",
    "AETOXGR": "1",
    "AESER": "N",
    "AEREL": "RELATED",
    "AESTDTC": "2013-08-17",
    "AEENDTC": "2013-08-21",
    "AESTDY": 10,
    "AEENDY": 14
  },
  {
    "STUDYID": "CDISCPILOT01",
    "DOMAIN": "AE",
    "USUBJID": "01-704-019",
    "AESEQ": 2,
    "AETERM": "Application site vesicles",
    "AEDECOD": "Application site vesicles",
    "AEBODSYS": "General disorders and administration site conditions",
    "AECAT": "APPLICATION SITE",
    "AESEV": "MODERATE",
    "AETOXGR": "2",
    "AESER": "N",
    "AEREL": "RELATED",
    "AESTDTC": "2013-08-10",
    "AEENDTC": "2013-08-22",
    "AESTDY": 3,
    "AEENDY": 15
  },
  {
    "STUDYID": "CDISCPILOT01",
    "DOMAIN": "AE",
    "USUBJID": "01-704-019",
    "AESEQ": 3,
    "AETERM": "Pruritus",
    "AEDECOD": "Pruritus",
    "AEBODSYS": "Skin and subcutaneous tissue disorders",
    "AECAT": "GENERAL",
    "AESEV": "MILD",
    "AETOXGR": "1",
    "AESER": "N",
    "AEREL": "RELATED",
    "AESTDTC": "2013-09-23",
    "AEENDTC": "2013-10-07",
    "AESTDY": 47,
    "AEENDY": 61
  },
  {
    "STUDYID": "CDISCPILOT01",
    "DOMAIN": "AE",
    "USUBJID": "01-704-019",
    "AESEQ": 4,
    "AETERM": "Headache",
    "AEDECOD": "Headache",
    "AEBODSYS": "Nervous system disorders",
    "AECAT": "GENERAL",
    "AESEV": "MILD",
    "AETOXGR": "1",
    "AESER": "N",
    "AEREL": "NOT RELATED",
    "AESTDTC": "2013-08-27",
    "AEENDTC": "2013-09-02",
    "AESTDY": 20,
    "AEENDY": 26
  },
  {
    "STUDYID": "CDISCPILOT01",
    "DOMAIN": "AE",
    "USUBJID": "01-704-019",
    "AESEQ": 5,
    "AETERM": "Fatigue",
    "AEDECOD": "Fatigue",
    "AEBODSYS": "General disorders and administration site conditions",
    "AECAT": "GENERAL",
    "AESEV": "MODERATE",
    "AETOXGR": "2",
    "AESER": "N",
    "AEREL": "NOT RELATED",
    "AESTDTC": "2013-09-15",
    "AEENDTC": "2013-09-22",
    "AESTDY": 39,
    "AEENDY": 46
  },
  {
    "STUDYID": "CDISCPILOT01",
    "DOMAIN": "AE",
    "USUBJID": "01-704-021",
    "AESEQ": 1,
    "AETERM": "Dizziness",
    "AEDECOD": "Dizziness",
    "AEBODSYS": "Nervous system disorders",
    "AECAT": "GENERAL",
    "AESEV": "MILD",
    "AETOXGR": "1",
    "AESER": "N",
    "AEREL": "NOT RELATED",
    "AESTDTC": "2013-07-08",
    "AEENDTC": "2013-07-27",
    "AESTDY": 39,
    "AEENDY": 58
  },
  {
    "STUDYID": "CDISCPILOT01",
    "DOMAIN": "AE",
    "USUBJID": "01-704-022",
    "AESEQ": 1,
    "AETERM": "Diarrhoea",
    "AEDECOD": "Diarrhoea",
    "AEBODSYS": "Gastrointestinal disorders",
    "AECAT": "GENERAL",
    "AESEV": "MILD",
    "AETOXGR": "1",
    "AESER": "N",
    "AEREL": "NOT RELATED",
    "AESTDTC": "2013-03-01",
    "AEENDTC": "2013-03-24",
    "AESTDY": 31,
    "AEENDY": 54
  },
  {
    "STUDYID": "CDISCPILOT01",
    "DOMAIN": "AE",
    "USUBJID": "01-704-023",
    "AESEQ": 1,
    "AETERM": "Sinus bradycardia",
    "AEDECOD": "Sinus bradycardia",
    "AEBODSYS": "Cardiac disorders",
    "AECAT": "GENERAL",
    "AESEV": "MILD",
    "AETOXGR": "1",
    "AESER": "N",
    "AEREL": "POSSIBLY RELATED",
    "AESTDTC": "2013-09-18",
    "AEENDTC": "2013-09-30",
    "AESTDY": 12,
    "AEENDY": 24
  },
  {
    "STUDYID": "CDISCPILOT01",
    "DOMAIN": "AE",
    "USUBJID": "01-705-001",
    "AESEQ": 1,
    "AETERM": "Dizziness",
    "AEDECOD": "Dizziness",
    "AEBODSYS": "Nervous system disorders",
    "AECAT": "GENERAL",
    "AESEV": "MODERATE",
    "AETOXGR": "2",
    "AESER": "N",
    "AEREL": "POSSIBLY RELATED",
    "AESTDTC": "2013-09-23",
    "AEENDTC": "2013-11-05",
    "AESTDY": 52,
    "AEENDY": 95
  },
  {
    "STUDYID": "CDISCPILOT01",
    "DOMAIN": "AE",
    "USUBJID": "01-705-002",
    "AESEQ": 1,
    "AETERM": "Vomiting",
    "AEDECOD": "Vomiting",
    "AEBODSYS": "Gastrointestinal disorders",
    "AECAT": "GENERAL",
    "AESEV": "MILD",
    "AETOXGR": "1",
    "AESER": "N",
    "AEREL": "POSSIBLY RELATED",
    "AESTDTC": "2013-09-26",
    "AEENDTC": "2013-09-30",
    "AESTDY": 42,
    "AEENDY": 46
  },
  {
    "STUDYID": "CDISCPILOT01",
    "DOMAIN": "AE",
    "USUBJID": "01-705-004",
    "AESEQ": 1,
    "AETERM": "Application site pruritus",
    "AEDECOD": "Application site pruritus",
    "AEBODSYS": "General disorders and administration site conditions",
    "AECAT": "APPLICATION SITE",
    "AESEV": "MODERATE",
    "AETOXGR": "2",
    "AESER": "N",
    "AEREL": "POSSIBLY RELATED",
    "AESTDTC": "2013-09-19",
    "AEENDTC": "2013-09-28",
    "AESTDY": 11,
    "AEENDY": 20
  },
  {
    "STUDYID": "CDISCPILOT01",
    "DOMAIN": "AE",
    "USUBJID": "01-705-008",
    "AESEQ": 1,
    "AETERM": "Application site pruritus",
    "AEDECOD": "Application site pruritus",
    "AEBODSYS": "General disorders and administration site conditions",
    "AECAT": "APPLICATION SITE",
    "AESEV": "MILD",
    "AETOXGR": "1",
    "AESER": "N",
    "AEREL": "RELATED",
    "AESTDTC": "2013-06-05",
    "AEENDTC": "2013-06-07",
    "AESTDY": 20,
    "AEENDY": 22
  },
  {
    "STUDYID": "CDISCPILOT01",
    "DOMAIN": "AE",
    "USUBJID": "01-705-009",
    "AESEQ": 1,
    "AETERM": "Application site irritation",
    "AEDECOD": "Application site irritation",
    "AEBODSYS": "General disorders and administration site conditions",
    "AECAT": "APPLICATION SITE",
    "AESEV": "MODERATE",
    "AETOXGR": "2",
    "AESER": "N",
    "AEREL": "POSSIBLY RELATED",
    "AESTDTC": "2013-09-09",
    "AEENDTC": "2013-10-05",
    "AESTDY": 2,
    "AEENDY": 28
  },
  {
    "STUDYID": "CDISCPILOT01",
    "DOMAIN": "AE",
    "USUBJID": "01-705-010",
    "AESEQ": 1,
    "AETERM": "Application site dermatitis",
    "AEDECOD": "Application site dermatitis",
    "AEBODSYS": "General disorders and administration site conditions",
    "AECAT": "APPLICATION SITE",
    "AESEV": "MODERATE",
    "AETOXGR": "2",
    "AESER": "N",
    "AEREL": "RELATED",
    "AESTDTC": "2013-08-17",
    "AEENDTC": "2013-08-18",
    "AESTDY": 15,
    "AEENDY": 16
  },
  {
    "STUDYID": "CDISCPILOT01",
    "DOMAIN": "AE",
    "USUBJID": "01-705-010",
    "AESEQ": 2,
    "AETERM": "Diarrhoea",
    "AEDECOD": "Diarrhoea",
    "AEBODSYS": "Gastrointestinal disorders",
    "AECAT": "GENERAL",
    "AESEV": "MILD",
    "AETOXGR": "1",
    "AESER": "N",
    "AEREL": "POSSIBLY RELATED",
    "AESTDTC": "2013-08-29",
    "AEENDTC": "2013-09-30",
    "AESTDY": 27,
    "AEENDY": 59
  },
  {
    "STUDYID": "CDISCPILOT01",
    "DOMAIN": "AE",
    "USUBJID": "01-705-013",
    "AESEQ": 1,
    "AETERM": "Application site pruritus",
    "AEDECOD": "Application site pruritus",
    "AEBODSYS": "General disorders and administration site conditions",
    "AECAT": "APPLICATION SITE",
    "AESEV": "MODERATE",
    "AETOXGR": "2",
    "AESER": "N",
    "AEREL": "RELATED",
    "AESTDTC": "2013-02-21",
    "AEENDTC": "2013-03-12",
    "AESTDY": 14,
    "AEENDY": 33
  },
  {
    "STUDYID": "CDISCPILOT01",
    "DOMAIN": "AE",
    "USUBJID": "01-705-013",
    "AESEQ": 2,
    "AETERM": "Insomnia",
    "AEDECOD": "Insomnia",
    "AEBODSYS": "Psychiatric disorders",
    "AECAT": "GENERAL",
    "AESEV": "MODERATE",
    "AETOXGR": "2",
    "AESER": "N",
    "AEREL": "RELATED",
    "AESTDTC": "2013-03-17",
    "AEENDTC": "2013-03-28",
    "AESTDY": 38,
    "AEENDY": 49
  },
  {
    "STUDYID": "CDISCPILOT01",
    "DOMAIN": "AE",
    "USUBJID": "01-705-014",
    "AESEQ": 1,
    "AETERM": "Nasopharyngitis",
    "AEDECOD": "Nasopharyngitis",
    "AEBODSYS": "Infections and infestations",
    "AECAT": "GENERAL",
    "AESEV": "MODERATE",
    "AETOXGR": "2",
    "AESER": "N",
    "AEREL": "POSSIBLY RELATED",
    "AESTDTC": "2013-04-10",
    "AEENDTC": "2013-04-17",
    "AESTDY": 46,
    "AEENDY": 53
  },
  {
    "STUDYID": "CDISCPILOT01",
    "DOMAIN": "AE",
    "USUBJID": "01-706-001",
    "AESEQ": 1,
    "AETERM": "Nasal congestion",
    "AEDECOD": "Nasal congestion",
    "AEBODSYS": "Respiratory, thoracic and mediastinal disorders",
    "AECAT": "GENERAL",
    "AESEV": "MILD",
    "AETOXGR": "1",
    "AESER": "N",
    "AEREL": "NOT RELATED",
    "AESTDTC": "2013-03-13",
    "AEENDTC": "2013-04-14",
    "AESTDY": 41,
    "AEENDY": 73
  },
  {
    "STUDYID": "CDISCPILOT01",
    "DOMAIN": "AE",
    "USUBJID": "01-706-002",
    "AESEQ": 1,
    "AETERM": "Pruritus",
    "AEDECOD": "Pruritus",
    "AEBODSYS": "Skin and subcutaneous tissue disorders",
    "AECAT": "GENERAL",
    "AESEV": "MODERATE",
    "AETOXGR": "2",
    "AESER": "N",
    "AEREL": "NOT RELATED",
    "AESTDTC": "2013-04-08",
    "AEENDTC": "2013-05-03",
    "AESTDY": 52,
    "AEENDY": 77
  },
  {
    "STUDYID": "CDISCPILOT01",
    "DOMAIN": "AE",
    "USUBJID": "01-706-002",
    "AESEQ": 2,
    "AETERM": "Hyperhidrosis",
    "AEDECOD": "Hyperhidrosis",
    "AEBODSYS": "Skin and subcutaneous tissue disorders",
    "AECAT": "GENERAL",
    "AESEV": "MODERATE",
    "AETOXGR": "2",
    "AESER": "N",
    "AEREL": "NOT RELATED",
    "AESTDTC": "2013-02-25",
    "AEENDTC": "2013-03-10",
    "AESTDY": 10,
    "AEENDY": 23
  },
  {
    "STUDYID": "CDISCPILOT01",
    "DOMAIN": "AE",
    "USUBJID": "01-706-003",
    "AESEQ": 1,
    "AETERM": "Erythema",
    "AEDECOD": "Erythema",
    "AEBODSYS": "Skin and subcutaneous tissue disorders",
    "AECAT": "GENERAL",
    "AESEV": "MODERATE",
    "AETOXGR": "2",
    "AESER": "N",
    "AEREL": "RELATED",
    "AESTDTC": "2013-04-10",
    "AEENDTC": "2013-05-01",
    "AESTDY": 31,
    "AEENDY": 52
  },
  {
    "STUDYID": "CDISCPILOT01",
    "DOMAIN": "AE",
    "USUBJID": "01-707-002",
    "AESEQ": 1,
    "AETERM": "Erythema",
    "AEDECOD": "Erythema",
    "AEBODSYS": "Skin and subcutaneous tissue disorders",
    "AECAT": "GENERAL",
    "AESEV": "MODERATE",
    "AETOXGR": "2",
    "AESER": "N",
    "AEREL": "RELATED",
    "AESTDTC": "2013-12-03",
    "AEENDTC": "2013-12-21",
    "AESTDY": 103,
    "AEENDY": 121
  },
  {
    "STUDYID": "CDISCPILOT01",
    "DOMAIN": "AE",
    "USUBJID": "01-707-002",
    "AESEQ": 2,
    "AETERM": "Nasopharyngitis",
    "AEDECOD": "Nasopharyngitis",
    "AEBODSYS": "Infections and infestations",
    "AECAT": "GENERAL",
    "AESEV": "MILD",
    "AETOXGR": "1",
    "AESER": "N",
    "AEREL": "NOT RELATED",
    "AESTDTC": "2013-10-15",
    "AEENDTC": "2013-11-06",
    "AESTDY": 54,
    "AEENDY": 76
  },
  {
    "STUDYID": "CDISCPILOT01",
    "DOMAIN": "AE",
    "USUBJID": "01-708-001",
    "AESEQ": 1,
    "AETERM": "Application site pruritus",
    "AEDECOD": "Application site pruritus",
    "AEBODSYS": "General disorders and administration site conditions",
    "AECAT": "APPLICATION SITE",
    "AESEV": "MILD",
    "AETOXGR": "1",
    "AESER": "N",
    "AEREL": "POSSIBLY RELATED",
    "AESTDTC": "2013-12-01",
    "AEENDTC": "2013-12-18",
    "AESTDY": 21,
    "AEENDY": 38
  },
  {
    "STUDYID": "CDISCPILOT01",
    "DOMAIN": "AE",
    "USUBJID": "01-708-001",
    "AESEQ": 2,
    "AETERM": "Somnolence",
    "AEDECOD": "Somnolence",
    "AEBODSYS": "Nervous system disorders",
    "AECAT": "GENERAL",
    "AESEV": "MILD",
    "AETOXGR": "1",
    "AESER": "N",
    "AEREL": "NOT RELATED",
    "AESTDTC": "2013-11-21",
    "AEENDTC": "2013-12-05",
    "AESTDY": 11,
    "AEENDY": 25
  },
  {
    "STUDYID": "CDISCPILOT01",
    "DOMAIN": "AE",
    "USUBJID": "01-708-001",
    "AESEQ": 3,
    "AETERM": "Diarrhoea",
    "AEDECOD": "Diarrhoea",
    "AEBODSYS": "Gastrointestinal disorders",
    "AECAT": "GENERAL",
    "AESEV": "MODERATE",
    "AETOXGR": "2",
    "AESER": "N",
    "AEREL": "NOT RELATED",
    "AESTDTC": "2014-01-04",
    "AEENDTC": "2014-02-09",
    "AESTDY": 55,
    "AEENDY": 91
  },
  {
    "STUDYID": "CDISCPILOT01",
    "DOMAIN": "AE",
    "USUBJID": "01-708-002",
    "AESEQ": 1,
    "AETERM": "Application site pruritus",
    "AEDECOD": "Application site pruritus",
    "AEBODSYS": "General disorders and administration site conditions",
    "AECAT": "APPLICATION SITE",
    "AESEV": "MILD",
    "AETOXGR": "1",
    "AESER": "N",
    "AEREL": "RELATED",
    "AESTDTC": "2013-09-03",
    "AEENDTC": "2013-09-25",
    "AESTDY": 7,
    "AEENDY": 29
  },
  {
    "STUDYID": "CDISCPILOT01",
    "DOMAIN": "AE",
    "USUBJID": "01-708-003",
    "AESEQ": 1,
    "AETERM": "Pruritus",
    "AEDECOD": "Pruritus",
    "AEBODSYS": "Skin and subcutaneous tissue disorders",
    "AECAT": "GENERAL",
    "AESEV": "MILD",
    "AETOXGR": "1",
    "AESER": "N",
    "AEREL": "RELATED",
    "AESTDTC": "2013-11-05",
    "AEENDTC": "2013-11-20",
    "AESTDY": 8,
    "AEENDY": 23
  },
  {
    "STUDYID": "CDISCPILOT01",
    "DOMAIN": "AE",
    "USUBJID": "01-708-006",
    "AESEQ": 1,
    "AETERM": "Application site pruritus",
    "AEDECOD": "Application site pruritus",
    "AEBODSYS": "General disorders and administration site conditions",
    "AECAT": "APPLICATION SITE",
    "AESEV": "MODERATE",
    "AETOXGR": "2",
    "AESER": "N",
    "AEREL": "RELATED",
    "AESTDTC": "2013-10-31",
    "AEENDTC": "2013-11-07",
    "AESTDY": 25,
    "AEENDY": 32
  },
  {
    "STUDYID": "CDISCPILOT01",
    "DOMAIN": "AE",
    "USUBJID": "01-708-006",
    "AESEQ": 2,
    "AETERM": "Pruritus",
    "AEDECOD": "Pruritus",
    "AEBODSYS": "Skin and subcutaneous tissue disorders",
    "AECAT": "GENERAL",
    "AESEV": "MODERATE",
    "AETOXGR": "2",
    "AESER": "N",
    "AEREL": "RELATED",
    "AESTDTC": "2013-11-20",
    "AEENDTC": "2013-12-06",
    "AESTDY": 45,
    "AEENDY": 61
  },
  {
    "STUDYID": "CDISCPILOT01",
    "DOMAIN": "AE",
    "USUBJID": "01-708-006",
    "AESEQ": 3,
    "AETERM": "Rash",
    "AEDECOD": "Rash",
    "AEBODSYS": "Skin and subcutaneous tissue disorders",
    "AECAT": "GENERAL",
    "AESEV": "MODERATE",
    "AETOXGR": "2",
    "AESER": "N",
    "AEREL": "RELATED",
    "AESTDTC": "2013-12-21",
    "AEENDTC": "2014-02-04",
    "AESTDY": 76,
    "AEENDY": 121
  },
  {
    "STUDYID": "CDISCPILOT01",
    "DOMAIN": "AE",
    "USUBJID": "01-708-006",
    "AESEQ": 4,
    "AETERM": "Fatigue",
    "AEDECOD": "Fatigue",
    "AEBODSYS": "General disorders and administration site conditions",
    "AECAT": "GENERAL",
    "AESEV": "MILD",
    "AETOXGR": "1",
    "AESER": "N",
    "AEREL": "NOT RELATED",
    "AESTDTC": "2013-11-03",
    "AEENDTC": "2013-11-26",
    "AESTDY": 28,
    "AEENDY": 51
  },
  {
    "STUDYID": "CDISCPILOT01",
    "DOMAIN": "AE",
    "USUBJID": "01-708-007",
    "AESEQ": 1,
    "AETERM": "Application site pruritus",
    "AEDECOD": "Application site pruritus",
    "AEBODSYS": "General disorders and administration site conditions",
    "AECAT": "APPLICATION SITE",
    "AESEV": "MILD",
    "AETOXGR": "1",
    "AESER": "N",
    "AEREL": "RELATED",
    "AESTDTC": "2013-06-04",
    "AEENDTC": "2013-06-20",
    "AESTDY": 16,
    "AEENDY": 32
  },
  {
    "STUDYID": "CDISCPILOT01",
    "DOMAIN": "AE",
    "USUBJID": "01-708-007",
    "AESEQ": 2,
    "AETERM": "Application site erythema",
    "AEDECOD": "Application site erythema",
    "AEBODSYS": "General disorders and administration site conditions",
    "AECAT": "APPLICATION SITE",
    "AESEV": "MODERATE",
    "AETOXGR": "2",
    "AESER": "N",
    "AEREL": "RELATED",
    "AESTDTC": "2013-05-25",
    "AEENDTC": "2013-06-17",
    "AESTDY": 6,
    "AEENDY": 29
  },
  {
    "STUDYID": "CDISCPILOT01",
    "DOMAIN": "AE",
    "USUBJID": "01-708-007",
    "AESEQ": 3,
    "AETERM": "Application site dermatitis",
    "AEDECOD": "Application site dermatitis",
    "AEBODSYS": "General disorders and administration site conditions",
    "AECAT": "APPLICATION SITE",
    "AESEV": "MODERATE",
    "AETOXGR": "2",
    "AESER": "N",
    "AEREL": "RELATED",
    "AESTDTC": "2013-05-30",
    "AEENDTC": "2013-06-08",
    "AESTDY": 11,
    "AEENDY": 20
  },
  {
    "STUDYID": "CDISCPILOT01",
    "DOMAIN": "AE",
    "USUBJID": "01-708-010",
    "AESEQ": 1,
    "AETERM": "Application site erythema",
    "AEDECOD": "Application site erythema",
    "AEBODSYS": "General disorders and administration site conditions",
    "AECAT": "APPLICATION SITE",
    "AESEV": "MODERATE",
    "AETOXGR": "2",
    "AESER": "N",
    "AEREL": "RELATED",
    "AESTDTC": "2013-08-01",
    "AEENDTC": "2013-08-08",
    "AESTDY": 27,
    "AEENDY": 34
  },
  {
    "STUDYID": "CDISCPILOT01",
    "DOMAIN": "AE",
    "USUBJID": "01-708-011",
    "AESEQ": 1,
    "AETERM": "Application site pruritus",
    "AEDECOD": "Application site pruritus",
    "AEBODSYS": "General disorders and administration site conditions",
    "AECAT": "APPLICATION SITE",
    "AESEV": "MILD",
    "AETOXGR": "1",
    "AESER": "N",
    "AEREL": "RELATED",
    "AESTDTC": "2013-12-25",
    "AEENDTC": "2014-01-13",
    "AESTDY": 22,
    "AEENDY": 41
  },
  {
    "STUDYID": "CDISCPILOT01",
    "DOMAIN": "AE",
    "USUBJID": "01-708-012",
    "AESEQ": 1,
    "AETERM": "Application site vesicles",
    "AEDECOD": "Application site vesicles",
    "AEBODSYS": "General disorders and administration site conditions",
    "AECAT": "APPLICATION SITE",
    "AESEV": "MODERATE",
    "AETOXGR": "2",
    "AESER": "N",
    "AEREL": "POSSIBLY RELATED",
    "AESTDTC": "2013-06-26",
    "AEENDTC": "2013-07-07",
    "AESTDY": 18,
    "AEENDY": 29
  },
  {
    "STUDYID": "CDISCPILOT01",
    "DOMAIN": "AE",
    "USUBJID": "01-708-012",
    "AESEQ": 2,
    "AETERM": "Confusional state",
    "AEDECOD": "Confusional state",
    "AEBODSYS": "Psychiatric disorders",
    "AECAT": "GENERAL",
    "AESEV": "MODERATE",
    "AETOXGR": "2",
    "AESER": "N",
    "AEREL": "POSSIBLY RELATED",
    "AESTDTC": "2013-06-20",
    "AEENDTC": "2013-08-25",
    "AESTDY": 12,
    "AEENDY": 78
  },
  {
    "STUDYID": "CDISCPILOT01",
    "DOMAIN": "AE",
    "USUBJID": "01-708-013",
    "AESEQ": 1,
    "AETERM": "Erythema",
    "AEDECOD": "Erythema",
    "AEBODSYS": "Skin and subcutaneous tissue disorders",
    "AECAT": "GENERAL",
    "AESEV": "MILD",
    "AETOXGR": "1",
    "AESER": "Y",
    "AEREL": "POSSIBLY RELATED",
    "AESTDTC": "2013-05-15",
    "AEENDTC": "2013-05-29",
    "AESTDY": 42,
    "AEENDY": 56
  },
  {
    "STUDYID": "CDISCPILOT01",
    "DOMAIN": "AE",
    "USUBJID": "01-708-013",
    "AESEQ": 2,
    "AETERM": "Dizziness",
    "AEDECOD": "Dizziness",
    "AEBODSYS": "Nervous system disorders",
    "AECAT": "GENERAL",
    "AESEV": "MODERATE",
    "AETOXGR": "2",
    "AESER": "N",
    "AEREL": "NOT RELATED",
    "AESTDTC": "2013-04-19",
    "AEENDTC": "2013-05-16",
    "AESTDY": 16,
    "AEENDY": 43
  },
  {
    "STUDYID": "CDISCPILOT01",
    "DOMAIN": "AE",
    "USUBJID": "01-708-015",
    "AESEQ": 1,
    "AETERM": "Diarrhoea",
    "AEDECOD": "Diarrhoea",
    "AEBODSYS": "Gastrointestinal disorders",
    "AECAT": "GENERAL",
    "AESEV": "MODERATE",
    "AETOXGR": "2",
    "AESER": "N",
    "AEREL": "NOT RELATED",
    "AESTDTC": "2013-12-10",
    "AEENDTC": "2013-12-19",
    "AESTDY": 66,
    "AEENDY": 75
  },
  {
    "STUDYID": "CDISCPILOT01",
    "DOMAIN": "AE",
    "USUBJID": "01-708-015",
    "AESEQ": 2,
    "AETERM": "Myocardial infarction",
    "AEDECOD": "Myocardial infarction",
    "AEBODSYS": "Cardiac disorders",
    "AECAT": "GENERAL",
    "AESEV": "MILD",
    "AETOXGR": "1",
    "AESER": "N",
    "AEREL": "RELATED",
    "AESTDTC": "2013-12-26",
    "AEENDTC": "2014-01-01",
    "AESTDY": 82,
    "AEENDY": 88
  },
  {
    "STUDYID": "CDISCPILOT01",
    "DOMAIN": "AE",
    "USUBJID": "01-708-017",
    "AESEQ": 1,
    "AETERM": "Application site erythema",
    "AEDECOD": "Application site erythema",
    "AEBODSYS": "General disorders and administration site conditions",
    "AECAT": "APPLICATION SITE",
    "AESEV": "MILD",
    "AETOXGR": "1",
    "AESER": "N",
    "AEREL": "RELATED",
    "AESTDTC": "2013-10-19",
    "AEENDTC": "2013-10-30",
    "AESTDY": 9,
    "AEENDY": 20
  },
  {
    "STUDYID": "CDISCPILOT01",
    "DOMAIN": "AE",
    "USUBJID": "01-708-017",
    "AESEQ": 2,
    "AETERM": "Pruritus",
    "AEDECOD": "Pruritus",
    "AEBODSYS": "Skin and subcutaneous tissue disorders",
    "AECAT": "GENERAL",
    "AESEV": "SEVERE",
    "AETOXGR": "3",
    "AESER": "Y",
    "AEREL": "POSSIBLY RELATED",
    "AESTDTC": "2013-11-24",
    "AEENDTC": "2013-12-22",
    "AESTDY": 45,
    "AEENDY": 73
  },
  {
    "STUDYID": "CDISCPILOT01",
    "DOMAIN": "AE",
    "USUBJID": "01-708-017",
    "AESEQ": 3,
    "AETERM": "Rash",
    "AEDECOD": "Rash",
    "AEBODSYS": "Skin and subcutaneous tissue disorders",
    "AECAT": "GENERAL",
    "AESEV": "MILD",
    "AETOXGR": "1",
    "AESER": "N",
    "AEREL": "RELATED",
    "AESTDTC": "2013-10-27",
    "AEENDTC": "2013-11-07",
    "AESTDY": 17,
    "AEENDY": 28
  },
  {
    "STUDYID": "CDISCPILOT01",
    "DOMAIN": "AE",
    "USUBJID": "01-708-020",
    "AESEQ": 1,
    "AETERM": "Erythema",
    "AEDECOD": "Erythema",
    "AEBODSYS": "Skin and subcutaneous tissue disorders",
    "AECAT": "GENERAL",
    "AESEV": "MODERATE",
    "AETOXGR": "2",
    "AESER": "N",
    "AEREL": "NOT RELATED",
    "AESTDTC": "2013-10-16",
    "AEENDTC": "2013-10-25",
    "AESTDY": 82,
    "AEENDY": 91
  },
  {
    "STUDYID": "CDISCPILOT01",
    "DOMAIN": "AE",
    "USUBJID": "01-708-020",
    "AESEQ": 2,
    "AETERM": "Skin irritation",
    "AEDECOD": "Skin irritation",
    "AEBODSYS": "Skin and subcutaneous tissue disorders",
    "AECAT": "GENERAL",
    "AESEV": "MILD",
    "AETOXGR": "1",
    "AESER": "N",
    "AEREL": "RELATED",
    "AESTDTC": "2013-11-03",
    "AEENDTC": "2013-11-06",
    "AESTDY": 100,
    "AEENDY": 103
  },
  {
    "STUDYID": "CDISCPILOT01",
    "DOMAIN": "AE",
    "USUBJID": "01-709-002",
    "AESEQ": 1,
    "AETERM": "Application site pruritus",
    "AEDECOD": "Application site pruritus",
    "AEBODSYS": "General disorders and administration site conditions",
    "AECAT": "APPLICATION SITE",
    "AESEV": "MILD",
    "AETOXGR": "1",
    "AESER": "N",
    "AEREL": "RELATED",
    "AESTDTC": "2013-03-08",
    "AEENDTC": "2013-03-22",
    "AESTDY": 14,
    "AEENDY": 28
  },
  {
    "STUDYID": "CDISCPILOT01",
    "DOMAIN": "AE",
    "USUBJID": "01-709-002",
    "AESEQ": 2,
    "AETERM": "Erythema",
    "AEDECOD": "Erythema",
    "AEBODSYS": "Skin and subcutaneous tissue disorders",
    "AECAT": "GENERAL",
    "AESEV": "MILD",
    "AETOXGR": "1",
    "AESER": "N",
    "AEREL": "POSSIBLY RELATED",
    "AESTDTC": "2013-03-04",
    "AEENDTC": "2013-03-23",
    "AESTDY": 10,
    "AEENDY": 29
  },
  {
    "STUDYID": "CDISCPILOT01",
    "DOMAIN": "AE",
    "USUBJID": "01-709-002",
    "AESEQ": 3,
    "AETERM": "Nausea",
    "AEDECOD": "Nausea",
    "AEBODSYS": "Gastrointestinal disorders",
    "AECAT": "GENERAL",
    "AESEV": "MODERATE",
    "AETOXGR": "2",
    "AESER": "N",
    "AEREL": "POSSIBLY RELATED",
    "AESTDTC": "2013-05-25",
    "AEENDTC": "2013-07-04",
    "AESTDY": 92,
    "AEENDY": 132
  },
  {
    "STUDYID": "CDISCPILOT01",
    "DOMAIN": "AE",
    "USUBJID": "01-709-003",
    "AESEQ": 1,
    "AETERM": "Application site pruritus",
    "AEDECOD": "Application site pruritus",
    "AEBODSYS": "General disorders and administration site conditions",
    "AECAT": "APPLICATION SITE",
    "AESEV": "MILD",
    "AETOXGR": "1",
    "AESER": "N",
    "AEREL": "RELATED",
    "AESTDTC": "2013-11-03",
    "AEENDTC": "2013-11-07",
    "AESTDY": 14,
    "AEENDY": 18
  },
  {
    "STUDYID": "CDISCPILOT01",
    "DOMAIN": "AE",
    "USUBJID": "01-709-003",
    "AESEQ": 2,
    "AETERM": "Rash",
    "AEDECOD": "Rash",
    "AEBODSYS": "Skin and subcutaneous tissue disorders",
    "AECAT": "GENERAL",
    "AESEV": "MODERATE",
    "AETOXGR": "2",
    "AESER": "N",
    "AEREL": "RELATED",
    "AESTDTC": "2013-11-25",
    "AEENDTC": "2013-12-05",
    "AESTDY": 36,
    "AEENDY": 46
  },
  {
    "STUDYID": "CDISCPILOT01",
    "DOMAIN": "AE",
    "USUBJID": "01-709-003",
    "AESEQ": 3,
    "AETERM": "Dizziness",
    "AEDECOD": "Dizziness",
    "AEBODSYS": "Nervous system disorders",
    "AECAT": "GENERAL",
    "AESEV": "MODERATE",
    "AETOXGR": "2",
    "AESER": "N",
    "AEREL": "NOT RELATED",
    "AESTDTC": "2013-10-29",
    "AEENDTC": "2013-12-05",
    "AESTDY": 9,
    "AEENDY": 46
  },
  {
    "STUDYID": "CDISCPILOT01",
    "DOMAIN": "AE",
    "USUBJID": "01-709-003",
    "AESEQ": 4,
    "AETERM": "Nasal congestion",
    "AEDECOD": "Nasal congestion",
    "AEBODSYS": "Respiratory, thoracic and mediastinal disorders",
    "AECAT": "GENERAL",
    "AESEV": "MODERATE",
    "AETOXGR": "2",
    "AESER": "Y",
    "AEREL": "POSSIBLY RELATED",
    "AESTDTC": "2013-12-20",
    "AEENDTC": "2014-01-10",
    "AESTDY": 61,
    "AEENDY": 82
  },
  {
    "STUDYID": "CDISCPILOT01",
    "DOMAIN": "AE",
    "USUBJID": "01-709-004",
    "AESEQ": 1,
    "AETERM": "Application site irritation",
    "AEDECOD": "Application site irritation",
    "AEBODSYS": "General disorders and administration site conditions",
    "AECAT": "APPLICATION SITE",
    "AESEV": "MODERATE",
    "AETOXGR": "2",
    "AESER": "N",
    "AEREL": "RELATED",
    "AESTDTC": "2013-10-25",
    "AEENDTC": "2013-11-05",
    "AESTDY": 11,
    "AEENDY": 22
  },
  {
    "STUDYID": "CDISCPILOT01",
    "DOMAIN": "AE",
    "USUBJID": "01-709-004",
    "AESEQ": 2,
    "AETERM": "Pruritus",
    "AEDECOD": "Pruritus",
    "AEBODSYS": "Skin and subcutaneous tissue disorders",
    "AECAT": "GENERAL",
    "AESEV": "MILD",
    "AETOXGR": "1",
    "AESER": "N",
    "AEREL": "RELATED",
    "AESTDTC": "2013-10-23",
    "AEENDTC": "2013-12-07",
    "AESTDY": 9,
    "AEENDY": 54
  },
  {
    "STUDYID": "CDISCPILOT01",
    "DOMAIN": "AE",
    "USUBJID": "01-709-004",
    "AESEQ": 3,
    "AETERM": "Erythema",
    "AEDECOD": "Erythema",
    "AEBODSYS": "Skin and subcutaneous tissue disorders",
    "AECAT": "GENERAL",
    "AESEV": "MODERATE",
    "AETOXGR": "2",
    "AESER": "N",
    "AEREL": "NOT RELATED",
    "AESTDTC": "2013-11-07",
    "AEENDTC": "2013-11-22",
    "AESTDY": 24,
    "AEENDY": 39
  },
  {
    "STUDYID": "CDISCPILOT01",
    "DOMAIN": "AE",
    "USUBJID": "01-709-004",
    "AESEQ": 4,
    "AETERM": "Fatigue",
    "AEDECOD": "Fatigue",
    "AEBODSYS": "General disorders and administration site conditions",
    "AECAT": "GENERAL",
    "AESEV": "MILD",
    "AETOXGR": "1",
    "AESER": "N",
    "AEREL": "RELATED",
    "AESTDTC": "2013-12-03",
    "AEENDTC": "2013-12-20",
    "AESTDY": 50,
    "AEENDY": 67
  },
  {
    "STUDYID": "CDISCPILOT01",
    "DOMAIN": "AE",
    "USUBJID": "01-709-005",
    "AESEQ": 1,
    "AETERM": "Erythema",
    "AEDECOD": "Erythema",
    "AEBODSYS": "Skin and subcutaneous tissue disorders",
    "AECAT": "GENERAL",
    "AESEV": "MODERATE",
    "AETOXGR": "2",
    "AESER": "N",
    "AEREL": "NOT RELATED",
    "AESTDTC": "2013-04-17",
    "AEENDTC": "2013-05-09",
    "AESTDY": 35,
    "AEENDY": 57
  },
  {
    "STUDYID": "CDISCPILOT01",
    "DOMAIN": "AE",
    "USUBJID": "01-709-005",
    "AESEQ": 2,
    "AETERM": "Rash",
    "AEDECOD": "Rash",
    "AEBODSYS": "Skin and subcutaneous tissue disorders",
    "AECAT": "GENERAL",
    "AESEV": "MODERATE",
    "AETOXGR": "2",
    "AESER": "N",
    "AEREL": "RELATED",
    "AESTDTC": "2013-03-22",
    "AEENDTC": "2013-04-11",
    "AESTDY": 9,
    "AEENDY": 29
  },
  {
    "STUDYID": "CDISCPILOT01",
    "DOMAIN": "AE",
    "USUBJID": "01-709-006",
    "AESEQ": 1,
    "AETERM": "Application site erythema",
    "AEDECOD": "Application site erythema",
    "AEBODSYS": "General disorders and administration site conditions",
    "AECAT": "APPLICATION SITE",
    "AESEV": "MODERATE",
    "AETOXGR": "2",
    "AESER": "N",
    "AEREL": "RELATED",
    "AESTDTC": "2013-04-27",
    "AEENDTC": "2013-05-07",
    "AESTDY": 18,
    "AEENDY": 28
  },
  {
    "STUDYID": "CDISCPILOT01",
    "DOMAIN": "AE",
    "USUBJID": "01-709-006",
    "AESEQ": 2,
    "AETERM": "Application site irritation",
    "AEDECOD": "Application site irritation",
    "AEBODSYS": "General disorders and administration site conditions",
    "AECAT": "APPLICATION SITE",
    "AESEV": "MILD",
    "AETOXGR": "1",
    "AESER": "N",
    "AEREL": "RELATED",
    "AESTDTC": "2013-04-14",
    "AEENDTC": "2013-04-21",
    "AESTDY": 5,
    "AEENDY": 12
  },
  {
    "STUDYID": "CDISCPILOT01",
    "DOMAIN": "AE",
    "USUBJID": "01-709-008",
    "AESEQ": 1,
    "AETERM": "Myocardial infarction",
    "AEDECOD": "Myocardial infarction",
    "AEBODSYS": "Cardiac disorders",
    "AECAT": "GENERAL",
    "AESEV": "SEVERE",
    "AETOXGR": "3",
    "AESER": "Y",
    "AEREL": "RELATED",
    "AESTDTC": "2013-08-02",
    "AEENDTC": "2013-09-01",
    "AESTDY": 60,
    "AEENDY": 90
  },
  {
    "STUDYID": "CDISCPILOT01",
    "DOMAIN": "AE",
    "USUBJID": "01-709-013",
    "AESEQ": 1,
    "AETERM": "Vomiting",
    "AEDECOD": "Vomiting",
    "AEBODSYS": "Gastrointestinal disorders",
    "AECAT": "GENERAL",
    "AESEV": "MODERATE",
    "AETOXGR": "2",
    "AESER": "N",
    "AEREL": "NOT RELATED",
    "AESTDTC": "2013-06-11",
    "AEENDTC": "2013-06-23",
    "AESTDY": 66,
    "AEENDY": 78
  },
  {
    "STUDYID": "CDISCPILOT01",
    "DOMAIN": "AE",
    "USUBJID": "01-709-015",
    "AESEQ": 1,
    "AETERM": "Pruritus",
    "AEDECOD": "Pruritus",
    "AEBODSYS": "Skin and subcutaneous tissue disorders",
    "AECAT": "GENERAL",
    "AESEV": "MODERATE",
    "AETOXGR": "2",
    "AESER": "N",
    "AEREL": "NOT RELATED",
    "AESTDTC": "2013-07-13",
    "AEENDTC": "2013-07-28",
    "AESTDY": 70,
    "AEENDY": 85
  },
  {
    "STUDYID": "CDISCPILOT01",
    "DOMAIN": "AE",
    "USUBJID": "01-709-015",
    "AESEQ": 2,
    "AETERM": "Rash",
    "AEDECOD": "Rash",
    "AEBODSYS": "Skin and subcutaneous tissue disorders",
    "AECAT": "GENERAL",
    "AESEV": "MODERATE",
    "AETOXGR": "2",
    "AESER": "N",
    "AEREL": "NOT RELATED",
    "AESTDTC": "2013-05-30",
    "AEENDTC": "2013-06-11",
    "AESTDY": 26,
    "AEENDY": 38
  },
  {
    "STUDYID": "CDISCPILOT01",
    "DOMAIN": "AE",
    "USUBJID": "01-709-015",
    "AESEQ": 3,
    "AETERM": "Sinus bradycardia",
    "AEDECOD": "Sinus bradycardia",
    "AEBODSYS": "Cardiac disorders",
    "AECAT": "GENERAL",
    "AESEV": "MODERATE",
    "AETOXGR": "2",
    "AESER": "N",
    "AEREL": "POSSIBLY RELATED",
    "AESTDTC": "2013-06-16",
    "AEENDTC": "2013-07-09",
    "AESTDY": 43,
    "AEENDY": 66
  },
  {
    "STUDYID": "CDISCPILOT01",
    "DOMAIN": "AE",
    "USUBJID": "01-709-016",
    "AESEQ": 1,
    "AETERM": "Skin irritation",
    "AEDECOD": "Skin irritation",
    "AEBODSYS": "Skin and subcutaneous tissue disorders",
    "AECAT": "GENERAL",
    "AESEV": "SEVERE",
    "AETOXGR": "3",
    "AESER": "Y",
    "AEREL": "NOT RELATED",
    "AESTDTC": "2013-04-26",
    "AEENDTC": "2013-05-09",
    "AESTDY": 22,
    "AEENDY": 35
  },
  {
    "STUDYID": "CDISCPILOT01",
    "DOMAIN": "AE",
    "USUBJID": "01-709-017",
    "AESEQ": 1,
    "AETERM": "Erythema",
    "AEDECOD": "Erythema",
    "AEBODSYS": "Skin and subcutaneous tissue disorders",
    "AECAT": "GENERAL",
    "AESEV": "MODERATE",
    "AETOXGR": "2",
    "AESER": "N",
    "AEREL": "RELATED",
    "AESTDTC": "2013-03-08",
    "AEENDTC": "2013-03-17",
    "AESTDY": 65,
    "AEENDY": 74
  },
  {
    "STUDYID": "CDISCPILOT01",
    "DOMAIN": "AE",
    "USUBJID": "01-709-018",
    "AESEQ": 1,
    "AETERM": "Sinus bradycardia",
    "AEDECOD": "Sinus bradycardia",
    "AEBODSYS": "Cardiac disorders",
    "AECAT": "GENERAL",
    "AESEV": "SEVERE",
    "AETOXGR": "3",
    "AESER": "Y",
    "AEREL": "NOT RELATED",
    "AESTDTC": "2013-03-01",
    "AEENDTC": "2013-04-03",
    "AESTDY": 30,
    "AEENDY": 63
  },
  {
    "STUDYID": "CDISCPILOT01",
    "DOMAIN": "AE",
    "USUBJID": "01-709-021",
    "AESEQ": 1,
    "AETERM": "Pruritus",
    "AEDECOD": "Pruritus",
    "AEBODSYS": "Skin and subcutaneous tissue disorders",
    "AECAT": "GENERAL",
    "AESEV": "MODERATE",
    "AETOXGR": "2",
    "AESER": "N",
    "AEREL": "POSSIBLY RELATED",
    "AESTDTC": "2013-04-10",
    "AEENDTC": "2013-05-08",
    "AESTDY": 2,
    "AEENDY": 30
  },
  {
    "STUDYID": "CDISCPILOT01",
    "DOMAIN": "AE",
    "USUBJID": "01-709-023",
    "AESEQ": 1,
    "AETERM": "Erythema",
    "AEDECOD": "Erythema",
    "AEBODSYS": "Skin and subcutaneous tissue disorders",
    "AECAT": "GENERAL",
    "AESEV": "MILD",
    "AETOXGR": "1",
    "AESER": "N",
    "AEREL": "NOT RELATED",
    "AESTDTC": "2013-08-26",
    "AEENDTC": "2013-08-30",
    "AESTDY": 56,
    "AEENDY": 60
  },
  {
    "STUDYID": "CDISCPILOT01",
    "DOMAIN": "AE",
    "USUBJID": "01-709-023",
    "AESEQ": 2,
    "AETERM": "Dizziness",
    "AEDECOD": "Dizziness",
    "AEBODSYS": "Nervous system disorders",
    "AECAT": "GENERAL",
    "AESEV": "MODERATE",
    "AETOXGR": "2",
    "AESER": "N",
    "AEREL": "RELATED",
    "AESTDTC": "2013-09-01",
    "AEENDTC": "2013-09-29",
    "AESTDY": 62,
    "AEENDY": 90
  },
  {
    "STUDYID": "CDISCPILOT01",
    "DOMAIN": "AE",
    "USUBJID": "01-710-001",
    "AESEQ": 1,
    "AETERM": "Application site pruritus",
    "AEDECOD": "Application site pruritus",
    "AEBODSYS": "General disorders and administration site conditions",
    "AECAT": "APPLICATION SITE",
    "AESEV": "MODERATE",
    "AETOXGR": "2",
    "AESER": "N",
    "AEREL": "RELATED",
    "AESTDTC": "2013-04-16",
    "AEENDTC": "2013-05-04",
    "AESTDY": 17,
    "AEENDY": 35
  },
  {
    "STUDYID": "CDISCPILOT01",
    "DOMAIN": "AE",
    "USUBJID": "01-710-001",
    "AESEQ": 2,
    "AETERM": "Application site vesicles",
    "AEDECOD": "Application site vesicles",
    "AEBODSYS": "General disorders and administration site conditions",
    "AECAT": "APPLICATION SITE",
    "AESEV": "MILD",
    "AETOXGR": "1",
    "AESER": "N",
    "AEREL": "RELATED",
    "AESTDTC": "2013-04-04",
    "AEENDTC": "2013-04-12",
    "AESTDY": 5,
    "AEENDY": 13
  },
  {
    "STUDYID": "CDISCPILOT01",
    "DOMAIN": "AE",
    "USUBJID": "01-710-001",
    "AESEQ": 3,
    "AETERM": "Cough",
    "AEDECOD": "Cough",
    "AEBODSYS": "Respiratory, thoracic and mediastinal disorders",
    "AECAT": "GENERAL",
    "AESEV": "MODERATE",
    "AETOXGR": "2",
    "AESER": "N",
    "AEREL": "RELATED",
    "AESTDTC": "2013-04-28",
    "AEENDTC": "2013-05-13",
    "AESTDY": 29,
    "AEENDY": 44
  },
  {
    "STUDYID": "CDISCPILOT01",
    "DOMAIN": "AE",
    "USUBJID": "01-710-001",
    "AESEQ": 4,
    "AETERM": "Fatigue",
    "AEDECOD": "Fatigue",
    "AEBODSYS": "General disorders and administration site conditions",
    "AECAT": "GENERAL",
    "AESEV": "MILD",
    "AETOXGR": "1",
    "AESER": "N",
    "AEREL": "RELATED",
    "AESTDTC": "2013-06-14",
    "AEENDTC": "2013-06-15",
    "AESTDY": 76,
    "AEENDY": 77
  },
  {
    "STUDYID": "CDISCPILOT01",
    "DOMAIN": "AE",
    "USUBJID": "01-710-003",
    "AESEQ": 1,
    "AETERM": "Skin irritation",
    "AEDECOD": "Skin irritation",
    "AEBODSYS": "Skin and subcutaneous tissue disorders",
    "AECAT": "GENERAL",
    "AESEV": "MILD",
    "AETOXGR": "1",
    "AESER": "N",
    "AEREL": "NOT RELATED",
    "AESTDTC": "2014-02-11",
    "AEENDTC": "2014-02-24",
    "AESTDY": 79,
    "AEENDY": 92
  },
  {
    "STUDYID": "CDISCPILOT01",
    "DOMAIN": "AE",
    "USUBJID": "01-710-003",
    "AESEQ": 2,
    "AETERM": "Agitation",
    "AEDECOD": "Agitation",
    "AEBODSYS": "Psychiatric disorders",
    "AECAT": "GENERAL",
    "AESEV": "MODERATE",
    "AETOXGR": "2",
    "AESER": "N",
    "AEREL": "POSSIBLY RELATED",
    "AESTDTC": "2014-02-03",
    "AEENDTC": "2014-03-12",
    "AESTDY": 71,
    "AEENDY": 108
  },
  {
    "STUDYID": "CDISCPILOT01",
    "DOMAIN": "AE",
    "USUBJID": "01-710-004",
    "AESEQ": 1,
    "AETERM": "Application site dermatitis",
    "AEDECOD": "Application site dermatitis",
    "AEBODSYS": "General disorders and administration site conditions",
    "AECAT": "APPLICATION SITE",
    "AESEV": "MODERATE",
    "AETOXGR": "2",
    "AESER": "N",
    "AEREL": "RELATED",
    "AESTDTC": "2013-04-22",
    "AEENDTC": "2013-05-18",
    "AESTDY": 4,
    "AEENDY": 30
  },
  {
    "STUDYID": "CDISCPILOT01",
    "DOMAIN": "AE",
    "USUBJID": "01-710-004",
    "AESEQ": 2,
    "AETERM": "Insomnia",
    "AEDECOD": "Insomnia",
    "AEBODSYS": "Psychiatric disorders",
    "AECAT": "GENERAL",
    "AESEV": "LIFE-THREATENING",
    "AETOXGR": "4",
    "AESER": "Y",
    "AEREL": "RELATED",
    "AESTDTC": "2013-05-06",
    "AEENDTC": "2013-05-11",
    "AESTDY": 18,
    "AEENDY": 23
  },
  {
    "STUDYID": "CDISCPILOT01",
    "DOMAIN": "AE",
    "USUBJID": "01-710-005",
    "AESEQ": 1,
    "AETERM": "Myocardial infarction",
    "AEDECOD": "Myocardial infarction",
    "AEBODSYS": "Cardiac disorders",
    "AECAT": "GENERAL",
    "AESEV": "LIFE-THREATENING",
    "AETOXGR": "4",
    "AESER": "Y",
    "AEREL": "POSSIBLY RELATED",
    "AESTDTC": "2013-02-07",
    "AEENDTC": "2013-02-14",
    "AESTDY": 16,
    "AEENDY": 23
  },
  {
    "STUDYID": "CDISCPILOT01",
    "DOMAIN": "AE",
    "USUBJID": "01-710-006",
    "AESEQ": 1,
    "AETERM": "Pruritus",
    "AEDECOD": "Pruritus",
    "AEBODSYS": "Skin and subcutaneous tissue disorders",
    "AECAT": "GENERAL",
    "AESEV": "MODERATE",
    "AETOXGR": "2",
    "AESER": "N",
    "AEREL": "NOT RELATED",
    "AESTDTC": "2013-06-21",
    "AEENDTC": "2013-07-30",
    "AESTDY": 54,
    "AEENDY": 93
  },
  {
    "STUDYID": "CDISCPILOT01",
    "DOMAIN": "AE",
    "USUBJID": "01-710-007",
    "AESEQ": 1,
    "AETERM": "Confusional state",
    "AEDECOD": "Confusional state",
    "AEBODSYS": "Psychiatric disorders",
    "AECAT": "GENERAL",
    "AESEV": "MODERATE",
    "AETOXGR": "2",
    "AESER": "N",
    "AEREL": "NOT RELATED",
    "AESTDTC": "2013-05-16",
    "AEENDTC": "2013-05-27",
    "AESTDY": 10,
    "AEENDY": 21
  },
  {
    "STUDYID": "CDISCPILOT01",
    "DOMAIN": "AE",
    "USUBJID": "01-710-008",
    "AESEQ": 1,
    "AETERM": "Erythema",
    "AEDECOD": "Erythema",
    "AEBODSYS": "Skin and subcutaneous tissue disorders",
    "AECAT": "GENERAL",
    "AESEV": "MILD",
    "AETOXGR": "1",
    "AESER": "N",
    "AEREL": "NOT RELATED",
    "AESTDTC": "2013-11-10",
    "AEENDTC": "2013-11-20",
    "AESTDY": 14,
    "AEENDY": 24
  },
  {
    "STUDYID": "CDISCPILOT01",
    "DOMAIN": "AE",
    "USUBJID": "01-710-008",
    "AESEQ": 2,
    "AETERM": "Sinus bradycardia",
    "AEDECOD": "Sinus bradycardia",
    "AEBODSYS": "Cardiac disorders",
    "AECAT": "GENERAL",
    "AESEV": "MILD",
    "AETOXGR": "1",
    "AESER": "N",
    "AEREL": "NOT RELATED",
    "AESTDTC": "2013-11-09",
    "AEENDTC": "2013-11-27",
    "AESTDY": 13,
    "AEENDY": 31
  },
  {
    "STUDYID": "CDISCPILOT01",
    "DOMAIN": "AE",
    "USUBJID": "01-710-010",
    "AESEQ": 1,
    "AETERM": "Application site pruritus",
    "AEDECOD": "Application site pruritus",
    "AEBODSYS": "General disorders and administration site conditions",
    "AECAT": "APPLICATION SITE",
    "AESEV": "MODERATE",
    "AETOXGR": "2",
    "AESER": "N",
    "AEREL": "RELATED",
    "AESTDTC": "2013-08-01",
    "AEENDTC": "2013-08-16",
    "AESTDY": 17,
    "AEENDY": 32
  },
  {
    "STUDYID": "CDISCPILOT01",
    "DOMAIN": "AE",
    "USUBJID": "01-710-010",
    "AESEQ": 2,
    "AETERM": "Application site irritation",
    "AEDECOD": "Application site irritation",
    "AEBODSYS": "General disorders and administration site conditions",
    "AECAT": "APPLICATION SITE",
    "AESEV": "MILD",
    "AETOXGR": "1",
    "AESER": "N",
    "AEREL": "RELATED",
    "AESTDTC": "2013-07-30",
    "AEENDTC": "2013-08-20",
    "AESTDY": 15,
    "AEENDY": 36
  },
  {
    "STUDYID": "CDISCPILOT01",
    "DOMAIN": "AE",
    "USUBJID": "01-710-013",
    "AESEQ": 1,
    "AETERM": "Cough",
    "AEDECOD": "Cough",
    "AEBODSYS": "Respiratory, thoracic and mediastinal disorders",
    "AECAT": "GENERAL",
    "AESEV": "MILD",
    "AETOXGR": "1",
    "AESER": "N",
    "AEREL": "POSSIBLY RELATED",
    "AESTDTC": "2014-01-03",
    "AEENDTC": "2014-01-16",
    "AESTDY": 49,
    "AEENDY": 62
  },
  {
    "STUDYID": "CDISCPILOT01",
    "DOMAIN": "AE",
    "USUBJID": "01-710-014",
    "AESEQ": 1,
    "AETERM": "Application site pruritus",
    "AEDECOD": "Application site pruritus",
    "AEBODSYS": "General disorders and administration site conditions",
    "AECAT": "APPLICATION SITE",
    "AESEV": "MODERATE",
    "AETOXGR": "2",
    "AESER": "N",
    "AEREL": "RELATED",
    "AESTDTC": "2013-06-21",
    "AEENDTC": "2013-06-28",
    "AESTDY": 7,
    "AEENDY": 14
  },
  {
    "STUDYID": "CDISCPILOT01",
    "DOMAIN": "AE",
    "USUBJID": "01-710-014",
    "AESEQ": 2,
    "AETERM": "Pruritus",
    "AEDECOD": "Pruritus",
    "AEBODSYS": "Skin and subcutaneous tissue disorders",
    "AECAT": "GENERAL",
    "AESEV": "MODERATE",
    "AETOXGR": "2",
    "AESER": "N",
    "AEREL": "POSSIBLY RELATED",
    "AESTDTC": "2013-08-17",
    "AEENDTC": "2013-08-21",
    "AESTDY": 64,
    "AEENDY": 68
  },
  {
    "STUDYID": "CDISCPILOT01",
    "DOMAIN": "AE",
    "USUBJID": "01-710-014",
    "AESEQ": 3,
    "AETERM": "Myocardial infarction",
    "AEDECOD": "Myocardial infarction",
    "AEBODSYS": "Cardiac disorders",
    "AECAT": "GENERAL",
    "AESEV": "MILD",
    "AETOXGR": "1",
    "AESER": "N",
    "AEREL": "NOT RELATED",
    "AESTDTC": "2013-09-11",
    "AEENDTC": "2013-09-22",
    "AESTDY": 89,
    "AEENDY": 100
  },
  {
    "STUDYID": "CDISCPILOT01",
    "DOMAIN": "AE",
    "USUBJID": "01-710-015",
    "AESEQ": 1,
    "AETERM": "Pruritus",
    "AEDECOD": "Pruritus",
    "AEBODSYS": "Skin and subcutaneous tissue disorders",
    "AECAT": "GENERAL",
    "AESEV": "MILD",
    "AETOXGR": "1",
    "AESER": "N",
    "AEREL": "NOT RELATED",
    "AESTDTC": "2013-07-30",
    "AEENDTC": "2013-08-02",
    "AESTDY": 3,
    "AEENDY": 6
  },
  {
    "STUDYID": "CDISCPILOT01",
    "DOMAIN": "AE",
    "USUBJID": "01-710-018",
    "AESEQ": 1,
    "AETERM": "Nasopharyngitis",
    "AEDECOD": "Nasopharyngitis",
    "AEBODSYS": "Infections and infestations",
    "AECAT": "GENERAL",
    "AESEV": "MILD",
    "AETOXGR": "1",
    "AESER": "N",
    "AEREL": "POSSIBLY RELATED",
    "AESTDTC": "2013-11-08",
    "AEENDTC": "2013-11-30",
    "AESTDY": 72,
    "AEENDY": 94
  },
  {
    "STUDYID": "CDISCPILOT01",
    "DOMAIN": "AE",
    "USUBJID": "01-710-020",
    "AESEQ": 1,
    "AETERM": "Dizziness",
    "AEDECOD": "Dizziness",
    "AEBODSYS": "Nervous system disorders",
    "AECAT": "GENERAL",
    "AESEV": "MODERATE",
    "AETOXGR": "2",
    "AESER": "N",
    "AEREL": "RELATED",
    "AESTDTC": "2013-06-04",
    "AEENDTC": "2013-06-15",
    "AESTDY": 13,
    "AEENDY": 24
  },
  {
    "STUDYID": "CDISCPILOT01",
    "DOMAIN": "AE",
    "USUBJID": "01-710-020",
    "AESEQ": 2,
    "AETERM": "Diarrhoea",
    "AEDECOD": "Diarrhoea",
    "AEBODSYS": "Gastrointestinal disorders",
    "AECAT": "GENERAL",
    "AESEV": "SEVERE",
    "AETOXGR": "3",
    "AESER": "Y",
    "AEREL": "RELATED",
    "AESTDTC": "2013-06-12",
    "AEENDTC": "2013-06-26",
    "AESTDY": 21,
    "AEENDY": 35
  },
  {
    "STUDYID": "CDISCPILOT01",
    "DOMAIN": "AE",
    "USUBJID": "01-710-022",
    "AESEQ": 1,
    "AETERM": "Application site dermatitis",
    "AEDECOD": "Application site dermatitis",
    "AEBODSYS": "General disorders and administration site conditions",
    "AECAT": "APPLICATION SITE",
    "AESEV": "MODERATE",
    "AETOXGR": "2",
    "AESER": "N",
    "AEREL": "RELATED",
    "AESTDTC": "2013-03-14",
    "AEENDTC": "2013-03-20",
    "AESTDY": 9,
    "AEENDY": 15
  },
  {
    "STUDYID": "CDISCPILOT01",
    "DOMAIN": "AE",
    "USUBJID": "01-710-022",
    "AESEQ": 2,
    "AETERM": "Erythema",
    "AEDECOD": "Erythema",
    "AEBODSYS": "Skin and subcutaneous tissue disorders",
    "AECAT": "GENERAL",
    "AESEV": "MILD",
    "AETOXGR": "1",
    "AESER": "N",
    "AEREL": "POSSIBLY RELATED",
    "AESTDTC": "2013-07-17",
    "AEENDTC": "2013-07-23",
    "AESTDY": 134,
    "AEENDY": 140
  },
  {
    "STUDYID": "CDISCPILOT01",
    "DOMAIN": "AE",
    "USUBJID": "01-710-022",
    "AESEQ": 3,
    "AETERM": "Somnolence",
    "AEDECOD": "Somnolence",
    "AEBODSYS": "Nervous system disorders",
    "AECAT": "GENERAL",
    "AESEV": "MILD",
    "AETOXGR": "1",
    "AESER": "N",
    "AEREL": "RELATED",
    "AESTDTC": "2013-03-14",
    "AEENDTC": "2013-03-31",
    "AESTDY": 9,
    "AEENDY": 26
  },
  {
    "STUDYID": "CDISCPILOT01",
    "DOMAIN": "AE",
    "USUBJID": "01-710-022",
    "AESEQ": 4,
    "AETERM": "Diarrhoea",
    "AEDECOD": "Diarrhoea",
    "AEBODSYS": "Gastrointestinal disorders",
    "AECAT": "GENERAL",
    "AESEV": "MODERATE",
    "AETOXGR": "2",
    "AESER": "N",
    "AEREL": "NOT RELATED",
    "AESTDTC": "2013-05-31",
    "AEENDTC": "2013-07-13",
    "AESTDY": 87,
    "AEENDY": 130
  },
  {
    "STUDYID": "CDISCPILOT01",
    "DOMAIN": "AE",
    "USUBJID": "01-710-023",
    "AESEQ": 1,
    "AETERM": "Application site dermatitis",
    "AEDECOD": "Application site dermatitis",
    "AEBODSYS": "General disorders and administration site conditions",
    "AECAT": "APPLICATION SITE",
    "AESEV": "MILD",
    "AETOXGR": "1",
    "AESER": "N",
    "AEREL": "RELATED",
    "AESTDTC": "2013-05-23",
    "AEENDTC": "2013-05-27",
    "AESTDY": 12,
    "AEENDY": 16
  },
  {
    "STUDYID": "CDISCPILOT01",
    "DOMAIN": "AE",
    "USUBJID": "01-710-023",
    "AESEQ": 2,
    "AETERM": "Agitation",
    "AEDECOD": "Agitation",
    "AEBODSYS": "Psychiatric disorders",
    "AECAT": "GENERAL",
    "AESEV": "MILD",
    "AETOXGR": "1",
    "AESER": "N",
    "AEREL": "RELATED",
    "AESTDTC": "2013-06-28",
    "AEENDTC": "2013-07-12",
    "AESTDY": 48,
    "AEENDY": 62
  },
  {
    "STUDYID": "CDISCPILOT01",
    "DOMAIN": "AE",
    "USUBJID": "01-710-024",
    "AESEQ": 1,
    "AETERM": "Application site pruritus",
    "AEDECOD": "Application site pruritus",
    "AEBODSYS": "General disorders and administration site conditions",
    "AECAT": "APPLICATION SITE",
    "AESEV": "MILD",
    "AETOXGR": "1",
    "AESER": "N",
    "AEREL": "RELATED",
    "AESTDTC": "2013-10-04",
    "AEENDTC": "2013-11-15",
    "AESTDY": 16,
    "AEENDY": 58
  },
  {
    "STUDYID": "CDISCPILOT01",
    "DOMAIN": "AE",
    "USUBJID": "01-710-024",
    "AESEQ": 2,
    "AETERM": "Rash",
    "AEDECOD": "Rash",
    "AEBODSYS": "Skin and subcutaneous tissue disorders",
    "AECAT": "GENERAL",
    "AESEV": "MILD",
    "AETOXGR": "1",
    "AESER": "N",
    "AEREL": "POSSIBLY RELATED",
    "AESTDTC": "2013-10-03",
    "AEENDTC": "2013-11-06",
    "AESTDY": 15,
    "AEENDY": 49
  },
  {
    "STUDYID": "CDISCPILOT01",
    "DOMAIN": "AE",
    "USUBJID": "01-710-025",
    "AESEQ": 1,
    "AETERM": "Dizziness",
    "AEDECOD": "Dizziness",
    "AEBODSYS": "Nervous system disorders",
    "AECAT": "GENERAL",
    "AESEV": "MODERATE",
    "AETOXGR": "2",
    "AESER": "N",
    "AEREL": "POSSIBLY RELATED",
    "AESTDTC": "2013-10-26",
    "AEENDTC": "2013-11-27",
    "AESTDY": 34,
    "AEENDY": 66
  },
  {
    "STUDYID": "CDISCPILOT01",
    "DOMAIN": "AE",
    "USUBJID": "01-710-026",
    "AESEQ": 1,
    "AETERM": "Application site pruritus",
    "AEDECOD": "Application site pruritus",
    "AEBODSYS": "General disorders and administration site conditions",
    "AECAT": "APPLICATION SITE",
    "AESEV": "MILD",
    "AETOXGR": "1",
    "AESER": "N",
    "AEREL": "RELATED",
    "AESTDTC": "2013-03-03",
    "AEENDTC": "2013-03-09",
    "AESTDY": 16,
    "AEENDY": 22
  },
  {
    "STUDYID": "CDISCPILOT01",
    "DOMAIN": "AE",
    "USUBJID": "01-710-027",
    "AESEQ": 1,
    "AETERM": "Application site pruritus",
    "AEDECOD": "Application site pruritus",
    "AEBODSYS": "General disorders and administration site conditions",
    "AECAT": "APPLICATION SITE",
    "AESEV": "MILD",
    "AETOXGR": "1",
    "AESER": "N",
    "AEREL": "RELATED",
    "AESTDTC": "2013-03-17",
    "AEENDTC": "2013-04-02",
    "AESTDY": 8,
    "AEENDY": 24
  },
  {
    "STUDYID": "CDISCPILOT01",
    "DOMAIN": "AE",
    "USUBJID": "01-710-028",
    "AESEQ": 1,
    "AETERM": "Application site pruritus",
    "AEDECOD": "Application site pruritus",
    "AEBODSYS": "General disorders and administration site conditions",
    "AECAT": "APPLICATION SITE",
    "AESEV": "MODERATE",
    "AETOXGR": "2",
    "AESER": "N",
    "AEREL": "RELATED",
    "AESTDTC": "2013-08-27",
    "AEENDTC": "2013-09-02",
    "AESTDY": 5,
    "AEENDY": 11
  },
  {
    "STUDYID": "CDISCPILOT01",
    "DOMAIN": "AE",
    "USUBJID": "01-710-028",
    "AESEQ": 2,
    "AETERM": "Hyperhidrosis",
    "AEDECOD": "Hyperhidrosis",
    "AEBODSYS": "Skin and subcutaneous tissue disorders",
    "AECAT": "GENERAL",
    "AESEV": "MODERATE",
    "AETOXGR": "2",
    "AESER": "N",
    "AEREL": "NOT RELATED",
    "AESTDTC": "2013-09-08",
    "AEENDTC": "2013-09-12",
    "AESTDY": 17,
    "AEENDY": 21
  },
  {
    "STUDYID": "CDISCPILOT01",
    "DOMAIN": "AE",
    "USUBJID": "01-710-028",
    "AESEQ": 3,
    "AETERM": "Skin irritation",
    "AEDECOD": "Skin irritation",
    "AEBODSYS": "Skin and subcutaneous tissue disorders",
    "AECAT": "GENERAL",
    "AESEV": "MILD",
    "AETOXGR": "1",
    "AESER": "N",
    "AEREL": "POSSIBLY RELATED",
    "AESTDTC": "2013-09-09",
    "AEENDTC": "2013-10-03",
    "AESTDY": 18,
    "AEENDY": 42
  },
  {
    "STUDYID": "CDISCPILOT01",
    "DOMAIN": "AE",
    "USUBJID": "01-710-028",
    "AESEQ": 4,
    "AETERM": "Fatigue",
    "AEDECOD": "Fatigue",
    "AEBODSYS": "General disorders and administration site conditions",
    "AECAT": "GENERAL",
    "AESEV": "MODERATE",
    "AETOXGR": "2",
    "AESER": "N",
    "AEREL": "RELATED",
    "AESTDTC": "2013-09-07",
    "AEENDTC": "2013-09-21",
    "AESTDY": 16,
    "AEENDY": 30
  },
  {
    "STUDYID": "CDISCPILOT01",
    "DOMAIN": "AE",
    "USUBJID": "01-710-029",
    "AESEQ": 1,
    "AETERM": "Diarrhoea",
    "AEDECOD": "Diarrhoea",
    "AEBODSYS": "Gastrointestinal disorders",
    "AECAT": "GENERAL",
    "AESEV": "MODERATE",
    "AETOXGR": "2",
    "AESER": "N",
    "AEREL": "POSSIBLY RELATED",
    "AESTDTC": "2013-11-08",
    "AEENDTC": "2013-12-02",
    "AESTDY": 35,
    "AEENDY": 59
  },
  {
    "STUDYID": "CDISCPILOT01",
    "DOMAIN": "AE",
    "USUBJID": "01-711-001",
    "AESEQ": 1,
    "AETERM": "Pruritus",
    "AEDECOD": "Pruritus",
    "AEBODSYS": "Skin and subcutaneous tissue disorders",
    "AECAT": "GENERAL",
    "AESEV": "MODERATE",
    "AETOXGR": "2",
    "AESER": "N",
    "AEREL": "POSSIBLY RELATED",
    "AESTDTC": "2013-08-14",
    "AEENDTC": "2013-09-12",
    "AESTDY": 8,
    "AEENDY": 37
  },
  {
    "STUDYID": "CDISCPILOT01",
    "DOMAIN": "AE",
    "USUBJID": "01-711-002",
    "AESEQ": 1,
    "AETERM": "Application site pruritus",
    "AEDECOD": "Application site pruritus",
    "AEBODSYS": "General disorders and administration site conditions",
    "AECAT": "APPLICATION SITE",
    "AESEV": "MODERATE",
    "AETOXGR": "2",
    "AESER": "N",
    "AEREL": "RELATED",
    "AESTDTC": "2013-01-04",
    "AEENDTC": "2013-01-06",
    "AESTDY": 1,
    "AEENDY": 3
  },
  {
    "STUDYID": "CDISCPILOT01",
    "DOMAIN": "AE",
    "USUBJID": "01-711-002",
    "AESEQ": 2,
    "AETERM": "Application site irritation",
    "AEDECOD": "Application site irritation",
    "AEBODSYS": "General disorders and administration site conditions",
    "AECAT": "APPLICATION SITE",
    "AESEV": "MODERATE",
    "AETOXGR": "2",
    "AESER": "N",
    "AEREL": "RELATED",
    "AESTDTC": "2013-01-09",
    "AEENDTC": "2013-01-11",
    "AESTDY": 6,
    "AEENDY": 8
  },
  {
    "STUDYID": "CDISCPILOT01",
    "DOMAIN": "AE",
    "USUBJID": "01-711-002",
    "AESEQ": 3,
    "AETERM": "Pruritus",
    "AEDECOD": "Pruritus",
    "AEBODSYS": "Skin and subcutaneous tissue disorders",
    "AECAT": "GENERAL",
    "AESEV": "MILD",
    "AETOXGR": "1",
    "AESER": "N",
    "AEREL": "NOT RELATED",
    "AESTDTC": "2013-01-22",
    "AEENDTC": "2013-02-26",
    "AESTDY": 19,
    "AEENDY": 54
  },
  {
    "STUDYID": "CDISCPILOT01",
    "DOMAIN": "AE",
    "USUBJID": "01-713-001",
    "AESEQ": 1,
    "AETERM": "Headache",
    "AEDECOD": "Headache",
    "AEBODSYS": "Nervous system disorders",
    "AECAT": "GENERAL",
    "AESEV": "MILD",
    "AETOXGR": "1",
    "AESER": "N",
    "AEREL": "NOT RELATED",
    "AESTDTC": "2013-01-27",
    "AEENDTC": "2013-02-15",
    "AESTDY": 24,
    "AEENDY": 43
  },
  {
    "STUDYID": "CDISCPILOT01",
    "DOMAIN": "AE",
    "USUBJID": "01-713-002",
    "AESEQ": 1,
    "AETERM": "Application site pruritus",
    "AEDECOD": "Application site pruritus",
    "AEBODSYS": "General disorders and administration site conditions",
    "AECAT": "APPLICATION SITE",
    "AESEV": "MODERATE",
    "AETOXGR": "2",
    "AESER": "N",
    "AEREL": "RELATED",
    "AESTDTC": "2013-06-07",
    "AEENDTC": "2013-07-25",
    "AESTDY": 11,
    "AEENDY": 59
  },
  {
    "STUDYID": "CDISCPILOT01",
    "DOMAIN": "AE",
    "USUBJID": "01-713-002",
    "AESEQ": 2,
    "AETERM": "Application site dermatitis",
    "AEDECOD": "Application site dermatitis",
    "AEBODSYS": "General disorders and administration site conditions",
    "AECAT": "APPLICATION SITE",
    "AESEV": "MODERATE",
    "AETOXGR": "2",
    "AESER": "N",
    "AEREL": "RELATED",
    "AESTDTC": "2013-06-08",
    "AEENDTC": "2013-06-23",
    "AESTDY": 12,
    "AEENDY": 27
  },
  {
    "STUDYID": "CDISCPILOT01",
    "DOMAIN": "AE",
    "USUBJID": "01-713-002",
    "AESEQ": 3,
    "AETERM": "Fatigue",
    "AEDECOD": "Fatigue",
    "AEBODSYS": "General disorders and administration site conditions",
    "AECAT": "GENERAL",
    "AESEV": "MODERATE",
    "AETOXGR": "2",
    "AESER": "N",
    "AEREL": "POSSIBLY RELATED",
    "AESTDTC": "2013-06-16",
    "AEENDTC": "2013-07-13",
    "AESTDY": 20,
    "AEENDY": 47
  },
  {
    "STUDYID": "CDISCPILOT01",
    "DOMAIN": "AE",
    "USUBJID": "01-713-004",
    "AESEQ": 1,
    "AETERM": "Application site vesicles",
    "AEDECOD": "Application site vesicles",
    "AEBODSYS": "General disorders and administration site conditions",
    "AECAT": "APPLICATION SITE",
    "AESEV": "MILD",
    "AETOXGR": "1",
    "AESER": "N",
    "AEREL": "RELATED",
    "AESTDTC": "2013-06-24",
    "AEENDTC": "2013-07-05",
    "AESTDY": 3,
    "AEENDY": 14
  },
  {
    "STUDYID": "CDISCPILOT01",
    "DOMAIN": "AE",
    "USUBJID": "01-713-004",
    "AESEQ": 2,
    "AETERM": "Pruritus",
    "AEDECOD": "Pruritus",
    "AEBODSYS": "Skin and subcutaneous tissue disorders",
    "AECAT": "GENERAL",
    "AESEV": "MODERATE",
    "AETOXGR": "2",
    "AESER": "N",
    "AEREL": "RELATED",
    "AESTDTC": "2013-07-21",
    "AEENDTC": "2013-07-23",
    "AESTDY": 30,
    "AEENDY": 32
  },
  {
    "STUDYID": "CDISCPILOT01",
    "DOMAIN": "AE",
    "USUBJID": "01-713-004",
    "AESEQ": 3,
    "AETERM": "Dizziness",
    "AEDECOD": "Dizziness",
    "AEBODSYS": "Nervous system disorders",
    "AECAT": "GENERAL",
    "AESEV": "MODERATE",
    "AETOXGR": "2",
    "AESER": "N",
    "AEREL": "POSSIBLY RELATED",
    "AESTDTC": "2013-07-22",
    "AEENDTC": "2013-08-05",
    "AESTDY": 31,
    "AEENDY": 45
  },
  {
    "STUDYID": "CDISCPILOT01",
    "DOMAIN": "AE",
    "USUBJID": "01-713-004",
    "AESEQ": 4,
    "AETERM": "Myocardial infarction",
    "AEDECOD": "Myocardial infarction",
    "AEBODSYS": "Cardiac disorders",
    "AECAT": "GENERAL",
    "AESEV": "LIFE-THREATENING",
    "AETOXGR": "4",
    "AESER": "Y",
    "AEREL": "RELATED",
    "AESTDTC": "2013-07-11",
    "AEENDTC": "2013-07-15",
    "AESTDY": 20,
    "AEENDY": 24
  },
  {
    "STUDYID": "CDISCPILOT01",
    "DOMAIN": "AE",
    "USUBJID": "01-714-003",
    "AESEQ": 1,
    "AETERM": "Application site vesicles",
    "AEDECOD": "Application site vesicles",
    "AEBODSYS": "General disorders and administration site conditions",
    "AECAT": "APPLICATION SITE",
    "AESEV": "MILD",
    "AETOXGR": "1",
    "AESER": "N",
    "AEREL": "RELATED",
    "AESTDTC": "2013-10-28",
    "AEENDTC": "2013-11-04",
    "AESTDY": 4,
    "AEENDY": 11
  },
  {
    "STUDYID": "CDISCPILOT01",
    "DOMAIN": "AE",
    "USUBJID": "01-714-003",
    "AESEQ": 2,
    "AETERM": "Pruritus",
    "AEDECOD": "Pruritus",
    "AEBODSYS": "Skin and subcutaneous tissue disorders",
    "AECAT": "GENERAL",
    "AESEV": "MILD",
    "AETOXGR": "1",
    "AESER": "N",
    "AEREL": "NOT RELATED",
    "AESTDTC": "2013-12-07",
    "AEENDTC": "2013-12-28",
    "AESTDY": 44,
    "AEENDY": 65
  },
  {
    "STUDYID": "CDISCPILOT01",
    "DOMAIN": "AE",
    "USUBJID": "01-714-003",
    "AESEQ": 3,
    "AETERM": "Sinus bradycardia",
    "AEDECOD": "Sinus bradycardia",
    "AEBODSYS": "Cardiac disorders",
    "AECAT": "GENERAL",
    "AESEV": "MILD",
    "AETOXGR": "1",
    "AESER": "N",
    "AEREL": "POSSIBLY RELATED",
    "AESTDTC": "2013-11-16",
    "AEENDTC": "2013-12-24",
    "AESTDY": 23,
    "AEENDY": 61
  },
  {
    "STUDYID": "CDISCPILOT01",
    "DOMAIN": "AE",
    "USUBJID": "01-715-001",
    "AESEQ": 1,
    "AETERM": "Pruritus",
    "AEDECOD": "Pruritus",
    "AEBODSYS": "Skin and subcutaneous tissue disorders",
    "AECAT": "GENERAL",
    "AESEV": "MILD",
    "AETOXGR": "1",
    "AESER": "N",
    "AEREL": "RELATED",
    "AESTDTC": "2013-09-15",
    "AEENDTC": "2013-09-18",
    "AESTDY": 45,
    "AEENDY": 48
  },
  {
    "STUDYID": "CDISCPILOT01",
    "DOMAIN": "AE",
    "USUBJID": "01-715-001",
    "AESEQ": 2,
    "AETERM": "Erythema",
    "AEDECOD": "Erythema",
    "AEBODSYS": "Skin and subcutaneous tissue disorders",
    "AECAT": "GENERAL",
    "AESEV": "MODERATE",
    "AETOXGR": "2",
    "AESER": "N",
    "AEREL": "POSSIBLY RELATED",
    "AESTDTC": "2013-08-18",
    "AEENDTC": "2013-08-24",
    "AESTDY": 17,
    "AEENDY": 23
  },
  {
    "STUDYID": "CDISCPILOT01",
    "DOMAIN": "AE",
    "USUBJID": "01-715-004",
    "AESEQ": 1,
    "AETERM": "Erythema",
    "AEDECOD": "Erythema",
    "AEBODSYS": "Skin and subcutaneous tissue disorders",
    "AECAT": "GENERAL",
    "AESEV": "MODERATE",
    "AETOXGR": "2",
    "AESER": "N",
    "AEREL": "POSSIBLY RELATED",
    "AESTDTC": "2013-11-28",
    "AEENDTC": "2013-12-10",
    "AESTDY": 38,
    "AEENDY": 50
  },
  {
    "STUDYID": "CDISCPILOT01",
    "DOMAIN": "AE",
    "USUBJID": "01-715-005",
    "AESEQ": 1,
    "AETERM": "Application site dermatitis",
    "AEDECOD": "Application site dermatitis",
    "AEBODSYS": "General disorders and administration site conditions",
    "AECAT": "APPLICATION SITE",
    "AESEV": "MODERATE",
    "AETOXGR": "2",
    "AESER": "N",
    "AEREL": "POSSIBLY RELATED",
    "AESTDTC": "2013-12-25",
    "AEENDTC": "2014-01-14",
    "AESTDY": 17,
    "AEENDY": 37
  },
  {
    "STUDYID": "CDISCPILOT01",
    "DOMAIN": "AE",
    "USUBJID": "01-715-007",
    "AESEQ": 1,
    "AETERM": "Diarrhoea",
    "AEDECOD": "Diarrhoea",
    "AEBODSYS": "Gastrointestinal disorders",
    "AECAT": "GENERAL",
    "AESEV": "MILD",
    "AETOXGR": "1",
    "AESER": "N",
    "AEREL": "RELATED",
    "AESTDTC": "2013-12-14",
    "AEENDTC": "2013-12-20",
    "AESTDY": 37,
    "AEENDY": 43
  },
  {
    "STUDYID": "CDISCPILOT01",
    "DOMAIN": "AE",
    "USUBJID": "01-716-001",
    "AESEQ": 1,
    "AETERM": "Rash",
    "AEDECOD": "Rash",
    "AEBODSYS": "Skin and subcutaneous tissue disorders",
    "AECAT": "GENERAL",
    "AESEV": "MODERATE",
    "AETOXGR": "2",
    "AESER": "N",
    "AEREL": "RELATED",
    "AESTDTC": "2013-06-09",
    "AEENDTC": "2013-06-19",
    "AESTDY": 21,
    "AEENDY": 31
  },
  {
    "STUDYID": "CDISCPILOT01",
    "DOMAIN": "AE",
    "USUBJID": "01-716-003",
    "AESEQ": 1,
    "AETERM": "Upper respiratory tract infection",
    "AEDECOD": "Upper respiratory tract infection",
    "AEBODSYS": "Infections and infestations",
    "AECAT": "GENERAL",
    "AESEV": "SEVERE",
    "AETOXGR": "3",
    "AESER": "Y",
    "AEREL": "NOT RELATED",
    "AESTDTC": "2013-11-27",
    "AEENDTC": "2013-12-11",
    "AESTDY": 14,
    "AEENDY": 28
  },
  {
    "STUDYID": "CDISCPILOT01",
    "DOMAIN": "AE",
    "USUBJID": "01-716-004",
    "AESEQ": 1,
    "AETERM": "Nausea",
    "AEDECOD": "Nausea",
    "AEBODSYS": "Gastrointestinal disorders",
    "AECAT": "GENERAL",
    "AESEV": "MODERATE",
    "AETOXGR": "2",
    "AESER": "N",
    "AEREL": "POSSIBLY RELATED",
    "AESTDTC": "2013-10-08",
    "AEENDTC": "2013-10-20",
    "AESTDY": 30,
    "AEENDY": 42
  },
  {
    "STUDYID": "CDISCPILOT01",
    "DOMAIN": "AE",
    "USUBJID": "01-716-004",
    "AESEQ": 2,
    "AETERM": "Agitation",
    "AEDECOD": "Agitation",
    "AEBODSYS": "Psychiatric disorders",
    "AECAT": "GENERAL",
    "AESEV": "MODERATE",
    "AETOXGR": "2",
    "AESER": "N",
    "AEREL": "RELATED",
    "AESTDTC": "2013-11-06",
    "AEENDTC": "2013-11-16",
    "AESTDY": 59,
    "AEENDY": 69
  },
  {
    "STUDYID": "CDISCPILOT01",
    "DOMAIN": "AE",
    "USUBJID": "01-716-008",
    "AESEQ": 1,
    "AETERM": "Dizziness",
    "AEDECOD": "Dizziness",
    "AEBODSYS": "Nervous system disorders",
    "AECAT": "GENERAL",
    "AESEV": "MILD",
    "AETOXGR": "1",
    "AESER": "N",
    "AEREL": "POSSIBLY RELATED",
    "AESTDTC": "2013-06-09",
    "AEENDTC": "2013-06-11",
    "AESTDY": 48,
    "AEENDY": 50
  },
  {
    "STUDYID": "CDISCPILOT01",
    "DOMAIN": "AE",
    "USUBJID": "01-716-009",
    "AESEQ": 1,
    "AETERM": "Application site pruritus",
    "AEDECOD": "Application site pruritus",
    "AEBODSYS": "General disorders and administration site conditions",
    "AECAT": "APPLICATION SITE",
    "AESEV": "MILD",
    "AETOXGR": "1",
    "AESER": "N",
    "AEREL": "RELATED",
    "AESTDTC": "2013-10-03",
    "AEENDTC": "2013-10-31",
    "AESTDY": 10,
    "AEENDY": 38
  },
  {
    "STUDYID": "CDISCPILOT01",
    "DOMAIN": "AE",
    "USUBJID": "01-716-009",
    "AESEQ": 2,
    "AETERM": "Application site erythema",
    "AEDECOD": "Application site erythema",
    "AEBODSYS": "General disorders and administration site conditions",
    "AECAT": "APPLICATION SITE",
    "AESEV": "MILD",
    "AETOXGR": "1",
    "AESER": "N",
    "AEREL": "RELATED",
    "AESTDTC": "2013-10-21",
    "AEENDTC": "2013-11-04",
    "AESTDY": 28,
    "AEENDY": 42
  },
  {
    "STUDYID": "CDISCPILOT01",
    "DOMAIN": "AE",
    "USUBJID": "01-716-009",
    "AESEQ": 3,
    "AETERM": "Hyperhidrosis",
    "AEDECOD": "Hyperhidrosis",
    "AEBODSYS": "Skin and subcutaneous tissue disorders",
    "AECAT": "GENERAL",
    "AESEV": "MODERATE",
    "AETOXGR": "2",
    "AESER": "N",
    "AEREL": "RELATED",
    "AESTDTC": "2013-11-25",
    "AEENDTC": "2013-12-13",
    "AESTDY": 63,
    "AEENDY": 81
  },
  {
    "STUDYID": "CDISCPILOT01",
    "DOMAIN": "AE",
    "USUBJID": "01-716-010",
    "AESEQ": 1,
    "AETERM": "Skin irritation",
    "AEDECOD": "Skin irritation",
    "AEBODSYS": "Skin and subcutaneous tissue disorders",
    "AECAT": "GENERAL",
    "AESEV": "MODERATE",
    "AETOXGR": "2",
    "AESER": "N",
    "AEREL": "NOT RELATED",
    "AESTDTC": "2014-01-19",
    "AEENDTC": "2014-02-05",
    "AESTDY": 22,
    "AEENDY": 39
  },
  {
    "STUDYID": "CDISCPILOT01",
    "DOMAIN": "AE",
    "USUBJID": "01-716-011",
    "AESEQ": 1,
    "AETERM": "Fatigue",
    "AEDECOD": "Fatigue",
    "AEBODSYS": "General disorders and administration site conditions",
    "AECAT": "GENERAL",
    "AESEV": "MODERATE",
    "AETOXGR": "2",
    "AESER": "N",
    "AEREL": "POSSIBLY RELATED",
    "AESTDTC": "2014-01-23",
    "AEENDTC": "2014-02-09",
    "AESTDY": 24,
    "AEENDY": 41
  },
  {
    "STUDYID": "CDISCPILOT01",
    "DOMAIN": "AE",
    "USUBJID": "01-716-013",
    "AESEQ": 1,
    "AETERM": "Syncope",
    "AEDECOD": "Syncope",
    "AEBODSYS": "Nervous system disorders",
    "AECAT": "GENERAL",
    "AESEV": "MODERATE",
    "AETOXGR": "2",
    "AESER": "Y",
    "AEREL": "RELATED",
    "AESTDTC": "2013-12-11",
    "AEENDTC": "2013-12-12",
    "AESTDY": 22,
    "AEENDY": 23
  },
  {
    "STUDYID": "CDISCPILOT01",
    "DOMAIN": "AE",
    "USUBJID": "01-716-015",
    "AESEQ": 1,
    "AETERM": "Application site erythema",
    "AEDECOD": "Application site erythema",
    "AEBODSYS": "General disorders and administration site conditions",
    "AECAT": "APPLICATION SITE",
    "AESEV": "MODERATE",
    "AETOXGR": "2",
    "AESER": "N",
    "AEREL": "RELATED",
    "AESTDTC": "2013-03-06",
    "AEENDTC": "2013-03-15",
    "AESTDY": 22,
    "AEENDY": 31
  },
  {
    "STUDYID": "CDISCPILOT01",
    "DOMAIN": "AE",
    "USUBJID": "01-716-019",
    "AESEQ": 1,
    "AETERM": "Headache",
    "AEDECOD": "Headache",
    "AEBODSYS": "Nervous system disorders",
    "AECAT": "GENERAL",
    "AESEV": "MODERATE",
    "AETOXGR": "2",
    "AESER": "N",
    "AEREL": "NOT RELATED",
    "AESTDTC": "2013-09-21",
    "AEENDTC": "2013-10-20",
    "AESTDY": 69,
    "AEENDY": 98
  },
  {
    "STUDYID": "CDISCPILOT01",
    "DOMAIN": "AE",
    "USUBJID": "01-716-019",
    "AESEQ": 2,
    "AETERM": "Nasal congestion",
    "AEDECOD": "Nasal congestion",
    "AEBODSYS": "Respiratory, thoracic and mediastinal disorders",
    "AECAT": "GENERAL",
    "AESEV": "MILD",
    "AETOXGR": "1",
    "AESER": "N",
    "AEREL": "POSSIBLY RELATED",
    "AESTDTC": "2013-10-04",
    "AEENDTC": "2013-10-25",
    "AESTDY": 82,
    "AEENDY": 103
  },
  {
    "STUDYID": "CDISCPILOT01",
    "DOMAIN": "AE",
    "USUBJID": "01-716-021",
    "AESEQ": 1,
    "AETERM": "Nasopharyngitis",
    "AEDECOD": "Nasopharyngitis",
    "AEBODSYS": "Infections and infestations",
    "AECAT": "GENERAL",
    "AESEV": "MILD",
    "AETOXGR": "1",
    "AESER": "N",
    "AEREL": "RELATED",
    "AESTDTC": "2013-11-27",
    "AEENDTC": "2014-01-08",
    "AESTDY": 19,
    "AEENDY": 61
  },
  {
    "STUDYID": "CDISCPILOT01",
    "DOMAIN": "AE",
    "USUBJID": "01-716-022",
    "AESEQ": 1,
    "AETERM": "Application site pruritus",
    "AEDECOD": "Application site pruritus",
    "AEBODSYS": "General disorders and administration site conditions",
    "AECAT": "APPLICATION SITE",
    "AESEV": "MODERATE",
    "AETOXGR": "2",
    "AESER": "N",
    "AEREL": "RELATED",
    "AESTDTC": "2013-08-22",
    "AEENDTC": "2013-09-02",
    "AESTDY": 14,
    "AEENDY": 25
  },
  {
    "STUDYID": "CDISCPILOT01",
    "DOMAIN": "AE",
    "USUBJID": "01-716-024",
    "AESEQ": 1,
    "AETERM": "Application site dermatitis",
    "AEDECOD": "Application site dermatitis",
    "AEBODSYS": "General disorders and administration site conditions",
    "AECAT": "APPLICATION SITE",
    "AESEV": "MODERATE",
    "AETOXGR": "2",
    "AESER": "N",
    "AEREL": "RELATED",
    "AESTDTC": "2013-01-14",
    "AEENDTC": "2013-01-25",
    "AESTDY": 4,
    "AEENDY": 15
  },
  {
    "STUDYID": "CDISCPILOT01",
    "DOMAIN": "AE",
    "USUBJID": "01-716-024",
    "AESEQ": 2,
    "AETERM": "Pruritus",
    "AEDECOD": "Pruritus",
    "AEBODSYS": "Skin and subcutaneous tissue disorders",
    "AECAT": "GENERAL",
    "AESEV": "MILD",
    "AETOXGR": "1",
    "AESER": "N",
    "AEREL": "POSSIBLY RELATED",
    "AESTDTC": "2013-04-04",
    "AEENDTC": "2013-04-06",
    "AESTDY": 84,
    "AEENDY": 86
  },
  {
    "STUDYID": "CDISCPILOT01",
    "DOMAIN": "AE",
    "USUBJID": "01-716-024",
    "AESEQ": 3,
    "AETERM": "Rash",
    "AEDECOD": "Rash",
    "AEBODSYS": "Skin and subcutaneous tissue disorders",
    "AECAT": "GENERAL",
    "AESEV": "MILD",
    "AETOXGR": "1",
    "AESER": "N",
    "AEREL": "POSSIBLY RELATED",
    "AESTDTC": "2013-05-07",
    "AEENDTC": "2013-06-17",
    "AESTDY": 117,
    "AEENDY": 158
  },
  {
    "STUDYID": "CDISCPILOT01",
    "DOMAIN": "AE",
    "USUBJID": "01-716-024",
    "AESEQ": 4,
    "AETERM": "Dizziness",
    "AEDECOD": "Dizziness",
    "AEBODSYS": "Nervous system disorders",
    "AECAT": "GENERAL",
    "AESEV": "MILD",
    "AETOXGR": "1",
    "AESER": "N",
    "AEREL": "RELATED",
    "AESTDTC": "2013-02-02",
    "AEENDTC": "2013-02-20",
    "AESTDY": 23,
    "AEENDY": 41
  },
  {
    "STUDYID": "CDISCPILOT01",
    "DOMAIN": "AE",
    "USUBJID": "01-716-024",
    "AESEQ": 5,
    "AETERM": "Diarrhoea",
    "AEDECOD": "Diarrhoea",
    "AEBODSYS": "Gastrointestinal disorders",
    "AECAT": "GENERAL",
    "AESEV": "MODERATE",
    "AETOXGR": "2",
    "AESER": "N",
    "AEREL": "POSSIBLY RELATED",
    "AESTDTC": "2013-03-13",
    "AEENDTC": "2013-03-30",
    "AESTDY": 62,
    "AEENDY": 79
  },
  {
    "STUDYID": "CDISCPILOT01",
    "DOMAIN": "AE",
    "USUBJID": "01-716-025",
    "AESEQ": 1,
    "AETERM": "Dizziness",
    "AEDECOD": "Dizziness",
    "AEBODSYS": "Nervous system disorders",
    "AECAT": "GENERAL",
    "AESEV": "MODERATE",
    "AETOXGR": "2",
    "AESER": "N",
    "AEREL": "NOT RELATED",
    "AESTDTC": "2013-04-14",
    "AEENDTC": "2013-04-24",
    "AESTDY": 47,
    "AEENDY": 57
  },
  {
    "STUDYID": "CDISCPILOT01",
    "DOMAIN": "AE",
    "USUBJID": "01-717-002",
    "AESEQ": 1,
    "AETERM": "Application site pruritus",
    "AEDECOD": "Application site pruritus",
    "AEBODSYS": "General disorders and administration site conditions",
    "AECAT": "APPLICATION SITE",
    "AESEV": "MODERATE",
    "AETOXGR": "2",
    "AESER": "N",
    "AEREL": "RELATED",
    "AESTDTC": "2013-04-22",
    "AEENDTC": "2013-05-08",
    "AESTDY": 13,
    "AEENDY": 29
  },
  {
    "STUDYID": "CDISCPILOT01",
    "DOMAIN": "AE",
    "USUBJID": "01-717-002",
    "AESEQ": 2,
    "AETERM": "Application site erythema",
    "AEDECOD": "Application site erythema",
    "AEBODSYS": "General disorders and administration site conditions",
    "AECAT": "APPLICATION SITE",
    "AESEV": "MODERATE",
    "AETOXGR": "2",
    "AESER": "N",
    "AEREL": "RELATED",
    "AESTDTC": "2013-04-23",
    "AEENDTC": "2013-05-10",
    "AESTDY": 14,
    "AEENDY": 31
  },
  {
    "STUDYID": "CDISCPILOT01",
    "DOMAIN": "AE",
    "USUBJID": "01-717-002",
    "AESEQ": 3,
    "AETERM": "Fatigue",
    "AEDECOD": "Fatigue",
    "AEBODSYS": "General disorders and administration site conditions",
    "AECAT": "GENERAL",
    "AESEV": "MODERATE",
    "AETOXGR": "2",
    "AESER": "N",
    "AEREL": "NOT RELATED",
    "AESTDTC": "2013-06-05",
    "AEENDTC": "2013-06-11",
    "AESTDY": 57,
    "AEENDY": 63
  },
  {
    "STUDYID": "CDISCPILOT01",
    "DOMAIN": "AE",
    "USUBJID": "01-718-004",
    "AESEQ": 1,
    "AETERM": "Pruritus",
    "AEDECOD": "Pruritus",
    "AEBODSYS": "Skin and subcutaneous tissue disorders",
    "AECAT": "GENERAL",
    "AESEV": "MODERATE",
    "AETOXGR": "2",
    "AESER": "N",
    "AEREL": "NOT RELATED",
    "AESTDTC": "2014-03-16",
    "AEENDTC": "2014-04-14",
    "AESTDY": 79,
    "AEENDY": 108
  },
  {
    "STUDYID": "CDISCPILOT01",
    "DOMAIN": "AE",
    "USUBJID": "01-718-004",
    "AESEQ": 2,
    "AETERM": "Erythema",
    "AEDECOD": "Erythema",
    "AEBODSYS": "Skin and subcutaneous tissue disorders",
    "AECAT": "GENERAL",
    "AESEV": "MILD",
    "AETOXGR": "1",
    "AESER": "N",
    "AEREL": "RELATED",
    "AESTDTC": "2014-01-08",
    "AEENDTC": "2014-01-13",
    "AESTDY": 12,
    "AEENDY": 17
  },
  {
    "STUDYID": "CDISCPILOT01",
    "DOMAIN": "AE",
    "USUBJID": "01-718-005",
    "AESEQ": 1,
    "AETERM": "Headache",
    "AEDECOD": "Headache",
    "AEBODSYS": "Nervous system disorders",
    "AECAT": "GENERAL",
    "AESEV": "MODERATE",
    "AETOXGR": "2",
    "AESER": "N",
    "AEREL": "NOT RELATED",
    "AESTDTC": "2013-07-08",
    "AEENDTC": "2013-07-20",
    "AESTDY": 29,
    "AEENDY": 41
  },
  {
    "STUDYID": "CDISCPILOT01",
    "DOMAIN": "AE",
    "USUBJID": "01-718-006",
    "AESEQ": 1,
    "AETERM": "Rash",
    "AEDECOD": "Rash",
    "AEBODSYS": "Skin and subcutaneous tissue disorders",
    "AECAT": "GENERAL",
    "AESEV": "MILD",
    "AETOXGR": "1",
    "AESER": "N",
    "AEREL": "POSSIBLY RELATED",
    "AESTDTC": "2013-07-23",
    "AEENDTC": "2013-09-08",
    "AESTDY": 53,
    "AEENDY": 100
  },
  {
    "STUDYID": "CDISCPILOT01",
    "DOMAIN": "AE",
    "USUBJID": "01-718-006",
    "AESEQ": 2,
    "AETERM": "Agitation",
    "AEDECOD": "Agitation",
    "AEBODSYS": "Psychiatric disorders",
    "AECAT": "GENERAL",
    "AESEV": "MODERATE",
    "AETOXGR": "2",
    "AESER": "N",
    "AEREL": "RELATED",
    "AESTDTC": "2013-06-03",
    "AEENDTC": "2013-06-06",
    "AESTDY": 3,
    "AEENDY": 6
  },
  {
    "STUDYID": "CDISCPILOT01",
    "DOMAIN": "AE",
    "USUBJID": "01-718-007",
    "AESEQ": 1,
    "AETERM": "Pruritus",
    "AEDECOD": "Pruritus",
    "AEBODSYS": "Skin and subcutaneous tissue disorders",
    "AECAT": "GENERAL",
    "AESEV": "MODERATE",
    "AETOXGR": "2",
    "AESER": "N",
    "AEREL": "NOT RELATED",
    "AESTDTC": "2013-10-04",
    "AEENDTC": "2013-10-11",
    "AESTDY": 12,
    "AEENDY": 19
  },
  {
    "STUDYID": "CDISCPILOT01",
    "DOMAIN": "AE",
    "USUBJID": "01-718-007",
    "AESEQ": 2,
    "AETERM": "Hyperhidrosis",
    "AEDECOD": "Hyperhidrosis",
    "AEBODSYS": "Skin and subcutaneous tissue disorders",
    "AECAT": "GENERAL",
    "AESEV": "MILD",
    "AETOXGR": "1",
    "AESER": "N",
    "AEREL": "RELATED",
    "AESTDTC": "2013-10-27",
    "AEENDTC": "2013-10-31",
    "AESTDY": 35,
    "AEENDY": 39
  },
  {
    "STUDYID": "CDISCPILOT01",
    "DOMAIN": "AE",
    "USUBJID": "01-718-007",
    "AESEQ": 3,
    "AETERM": "Dizziness",
    "AEDECOD": "Dizziness",
    "AEBODSYS": "Nervous system disorders",
    "AECAT": "GENERAL",
    "AESEV": "MODERATE",
    "AETOXGR": "2",
    "AESER": "N",
    "AEREL": "NOT RELATED",
    "AESTDTC": "2013-11-01",
    "AEENDTC": "2013-12-13",
    "AESTDY": 40,
    "AEENDY": 82
  },
  {
    "STUDYID": "CDISCPILOT01",
    "DOMAIN": "AE",
    "USUBJID": "01-718-007",
    "AESEQ": 4,
    "AETERM": "Syncope",
    "AEDECOD": "Syncope",
    "AEBODSYS": "Nervous system disorders",
    "AECAT": "GENERAL",
    "AESEV": "MODERATE",
    "AETOXGR": "2",
    "AESER": "N",
    "AEREL": "RELATED",
    "AESTDTC": "2013-10-29",
    "AEENDTC": "2013-11-15",
    "AESTDY": 37,
    "AEENDY": 54
  },
  {
    "STUDYID": "CDISCPILOT01",
    "DOMAIN": "AE",
    "USUBJID": "01-718-007",
    "AESEQ": 5,
    "AETERM": "Myocardial infarction",
    "AEDECOD": "Myocardial infarction",
    "AEBODSYS": "Cardiac disorders",
    "AECAT": "GENERAL",
    "AESEV": "SEVERE",
    "AETOXGR": "3",
    "AESER": "Y",
    "AEREL": "NOT RELATED",
    "AESTDTC": "2013-11-22",
    "AEENDTC": "2013-11-26",
    "AESTDY": 61,
    "AEENDY": 65
  },
  {
    "STUDYID": "CDISCPILOT01",
    "DOMAIN": "AE",
    "USUBJID": "01-718-009",
    "AESEQ": 1,
    "AETERM": "Upper respiratory tract infection",
    "AEDECOD": "Upper respiratory tract infection",
    "AEBODSYS": "Infections and infestations",
    "AECAT": "GENERAL",
    "AESEV": "MILD",
    "AETOXGR": "1",
    "AESER": "N",
    "AEREL": "POSSIBLY RELATED",
    "AESTDTC": "2013-04-28",
    "AEENDTC": "2013-05-05",
    "AESTDY": 46,
    "AEENDY": 53
  },
  {
    "STUDYID": "CDISCPILOT01",
    "DOMAIN": "AE",
    "USUBJID": "01-718-011",
    "AESEQ": 1,
    "AETERM": "Sinus bradycardia",
    "AEDECOD": "Sinus bradycardia",
    "AEBODSYS": "Cardiac disorders",
    "AECAT": "GENERAL",
    "AESEV": "SEVERE",
    "AETOXGR": "3",
    "AESER": "Y",
    "AEREL": "POSSIBLY RELATED",
    "AESTDTC": "2013-12-08",
    "AEENDTC": "2013-12-13",
    "AESTDY": 17,
    "AEENDY": 22
  },
  {
    "STUDYID": "CDISCPILOT01",
    "DOMAIN": "AE",
    "USUBJID": "01-718-011",
    "AESEQ": 2,
    "AETERM": "Nasal congestion",
    "AEDECOD": "Nasal congestion",
    "AEBODSYS": "Respiratory, thoracic and mediastinal disorders",
    "AECAT": "GENERAL",
    "AESEV": "MODERATE",
    "AETOXGR": "2",
    "AESER": "N",
    "AEREL": "RELATED",
    "AESTDTC": "2013-12-26",
    "AEENDTC": "2014-01-13",
    "AESTDY": 35,
    "AEENDY": 53
  },
  {
    "STUDYID": "CDISCPILOT01",
    "DOMAIN": "AE",
    "USUBJID": "01-718-012",
    "AESEQ": 1,
    "AETERM": "Application site erythema",
    "AEDECOD": "Application site erythema",
    "AEBODSYS": "General disorders and administration site conditions",
    "AECAT": "APPLICATION SITE",
    "AESEV": "MILD",
    "AETOXGR": "1",
    "AESER": "N",
    "AEREL": "RELATED",
    "AESTDTC": "2013-12-04",
    "AEENDTC": "2013-12-17",
    "AESTDY": 8,
    "AEENDY": 21
  },
  {
    "STUDYID": "CDISCPILOT01",
    "DOMAIN": "AE",
    "USUBJID": "01-718-012",
    "AESEQ": 2,
    "AETERM": "Hyperhidrosis",
    "AEDECOD": "Hyperhidrosis",
    "AEBODSYS": "Skin and subcutaneous tissue disorders",
    "AECAT": "GENERAL",
    "AESEV": "MILD",
    "AETOXGR": "1",
    "AESER": "N",
    "AEREL": "RELATED",
    "AESTDTC": "2013-12-05",
    "AEENDTC": "2014-01-12",
    "AESTDY": 9,
    "AEENDY": 47
  },
  {
    "STUDYID": "CDISCPILOT01",
    "DOMAIN": "AE",
    "USUBJID": "01-718-012",
    "AESEQ": 3,
    "AETERM": "Insomnia",
    "AEDECOD": "Insomnia",
    "AEBODSYS": "Psychiatric disorders",
    "AECAT": "GENERAL",
    "AESEV": "MILD",
    "AETOXGR": "1",
    "AESER": "N",
    "AEREL": "POSSIBLY RELATED",
    "AESTDTC": "2013-12-31",
    "AEENDTC": "2014-01-16",
    "AESTDY": 35,
    "AEENDY": 51
  },
  {
    "STUDYID": "CDISCPILOT01",
    "DOMAIN": "AE",
    "USUBJID": "01-718-012",
    "AESEQ": 4,
    "AETERM": "Upper respiratory tract infection",
    "AEDECOD": "Upper respiratory tract infection",
    "AEBODSYS": "Infections and infestations",
    "AECAT": "GENERAL",
    "AESEV": "LIFE-THREATENING",
    "AETOXGR": "4",
    "AESER": "Y",
    "AEREL": "POSSIBLY RELATED",
    "AESTDTC": "2014-02-09",
    "AEENDTC": "2014-03-09",
    "AESTDY": 75,
    "AEENDY": 103
  },
  {
    "STUDYID": "CDISCPILOT01",
    "DOMAIN": "AE",
    "USUBJID": "01-718-013",
    "AESEQ": 1,
    "AETERM": "Erythema",
    "AEDECOD": "Erythema",
    "AEBODSYS": "Skin and subcutaneous tissue disorders",
    "AECAT": "GENERAL",
    "AESEV": "MILD",
    "AETOXGR": "1",
    "AESER": "N",
    "AEREL": "POSSIBLY RELATED",
    "AESTDTC": "2013-07-23",
    "AEENDTC": "2013-08-19",
    "AESTDY": 60,
    "AEENDY": 87
  },
  {
    "STUDYID": "CDISCPILOT01",
    "DOMAIN": "AE",
    "USUBJID": "01-718-013",
    "AESEQ": 2,
    "AETERM": "Nausea",
    "AEDECOD": "Nausea",
    "AEBODSYS": "Gastrointestinal disorders",
    "AECAT": "GENERAL",
    "AESEV": "MODERATE",
    "AETOXGR": "2",
    "AESER": "N",
    "AEREL": "RELATED",
    "AESTDTC": "2013-06-21",
    "AEENDTC": "2013-07-01",
    "AESTDY": 28,
    "AEENDY": 38
  },
  {
    "STUDYID": "CDISCPILOT01",
    "DOMAIN": "AE",
    "USUBJID": "01-718-013",
    "AESEQ": 3,
    "AETERM": "Diarrhoea",
    "AEDECOD": "Diarrhoea",
    "AEBODSYS": "Gastrointestinal disorders",
    "AECAT": "GENERAL",
    "AESEV": "MODERATE",
    "AETOXGR": "2",
    "AESER": "N",
    "AEREL": "POSSIBLY RELATED",
    "AESTDTC": "2013-08-19",
    "AEENDTC": "2013-09-03",
    "AESTDY": 87,
    "AEENDY": 102
  },
  {
    "STUDYID": "CDISCPILOT01",
    "DOMAIN": "AE",
    "USUBJID": "01-718-014",
    "AESEQ": 1,
    "AETERM": "Application site irritation",
    "AEDECOD": "Application site irritation",
    "AEBODSYS": "General disorders and administration site conditions",
    "AECAT": "APPLICATION SITE",
    "AESEV": "MILD",
    "AETOXGR": "1",
    "AESER": "N",
    "AEREL": "RELATED",
    "AESTDTC": "2013-07-14",
    "AEENDTC": "2013-07-22",
    "AESTDY": 9,
    "AEENDY": 17
  },
  {
    "STUDYID": "CDISCPILOT01",
    "DOMAIN": "AE",
    "USUBJID": "01-718-016",
    "AESEQ": 1,
    "AETERM": "Application site pruritus",
    "AEDECOD": "Application site pruritus",
    "AEBODSYS": "General disorders and administration site conditions",
    "AECAT": "APPLICATION SITE",
    "AESEV": "MILD",
    "AETOXGR": "1",
    "AESER": "N",
    "AEREL": "POSSIBLY RELATED",
    "AESTDTC": "2013-03-15",
    "AEENDTC": "2013-03-31",
    "AESTDY": 12,
    "AEENDY": 28
  },
  {
    "STUDYID": "CDISCPILOT01",
    "DOMAIN": "AE",
    "USUBJID": "01-718-016",
    "AESEQ": 2,
    "AETERM": "Nasal congestion",
    "AEDECOD": "Nasal congestion",
    "AEBODSYS": "Respiratory, thoracic and mediastinal disorders",
    "AECAT": "GENERAL",
    "AESEV": "MODERATE",
    "AETOXGR": "2",
    "AESER": "N",
    "AEREL": "POSSIBLY RELATED",
    "AESTDTC": "2013-03-27",
    "AEENDTC": "2013-04-01",
    "AESTDY": 24,
    "AEENDY": 29
  },
  {
    "STUDYID": "CDISCPILOT01",
    "DOMAIN": "AE",
    "USUBJID": "01-718-016",
    "AESEQ": 3,
    "AETERM": "Upper respiratory tract infection",
    "AEDECOD": "Upper respiratory tract infection",
    "AEBODSYS": "Infections and infestations",
    "AECAT": "GENERAL",
    "AESEV": "SEVERE",
    "AETOXGR": "3",
    "AESER": "Y",
    "AEREL": "POSSIBLY RELATED",
    "AESTDTC": "2013-04-09",
    "AEENDTC": "2013-05-05",
    "AESTDY": 37,
    "AEENDY": 63
  },
  {
    "STUDYID": "CDISCPILOT01",
    "DOMAIN": "AE",
    "USUBJID": "01-718-017",
    "AESEQ": 1,
    "AETERM": "Pruritus",
    "AEDECOD": "Pruritus",
    "AEBODSYS": "Skin and subcutaneous tissue disorders",
    "AECAT": "GENERAL",
    "AESEV": "MILD",
    "AETOXGR": "1",
    "AESER": "N",
    "AEREL": "POSSIBLY RELATED",
    "AESTDTC": "2013-04-29",
    "AEENDTC": "2013-05-18",
    "AESTDY": 32,
    "AEENDY": 51
  },
  {
    "STUDYID": "CDISCPILOT01",
    "DOMAIN": "AE",
    "USUBJID": "01-718-018",
    "AESEQ": 1,
    "AETERM": "Insomnia",
    "AEDECOD": "Insomnia",
    "AEBODSYS": "Psychiatric disorders",
    "AECAT": "GENERAL",
    "AESEV": "MILD",
    "AETOXGR": "1",
    "AESER": "N",
    "AEREL": "NOT RELATED",
    "AESTDTC": "2013-10-26",
    "AEENDTC": "2013-11-19",
    "AESTDY": 20,
    "AEENDY": 44
  },
  {
    "STUDYID": "CDISCPILOT01",
    "DOMAIN": "AE",
    "USUBJID": "01-718-019",
    "AESEQ": 1,
    "AETERM": "Erythema",
    "AEDECOD": "Erythema",
    "AEBODSYS": "Skin and subcutaneous tissue disorders",
    "AECAT": "GENERAL",
    "AESEV": "MODERATE",
    "AETOXGR": "2",
    "AESER": "N",
    "AEREL": "NOT RELATED",
    "AESTDTC": "2013-07-09",
    "AEENDTC": "2013-07-31",
    "AESTDY": 45,
    "AEENDY": 67
  },
  {
    "STUDYID": "CDISCPILOT01",
    "DOMAIN": "AE",
    "USUBJID": "01-718-019",
    "AESEQ": 2,
    "AETERM": "Skin irritation",
    "AEDECOD": "Skin irritation",
    "AEBODSYS": "Skin and subcutaneous tissue disorders",
    "AECAT": "GENERAL",
    "AESEV": "MODERATE",
    "AETOXGR": "2",
    "AESER": "N",
    "AEREL": "POSSIBLY RELATED",
    "AESTDTC": "2013-07-12",
    "AEENDTC": "2013-07-18",
    "AESTDY": 48,
    "AEENDY": 54
  },
  {
    "STUDYID": "CDISCPILOT01",
    "DOMAIN": "AE",
    "USUBJID": "01-718-020",
    "AESEQ": 1,
    "AETERM": "Application site irritation",
    "AEDECOD": "Application site irritation",
    "AEBODSYS": "General disorders and administration site conditions",
    "AECAT": "APPLICATION SITE",
    "AESEV": "MODERATE",
    "AETOXGR": "2",
    "AESER": "N",
    "AEREL": "RELATED",
    "AESTDTC": "2013-02-27",
    "AEENDTC": "2013-03-02",
    "AESTDY": 21,
    "AEENDY": 24
  },
  {
    "STUDYID": "CDISCPILOT01",
    "DOMAIN": "AE",
    "USUBJID": "01-718-020",
    "AESEQ": 2,
    "AETERM": "Sinus bradycardia",
    "AEDECOD": "Sinus bradycardia",
    "AEBODSYS": "Cardiac disorders",
    "AECAT": "GENERAL",
    "AESEV": "MODERATE",
    "AETOXGR": "2",
    "AESER": "N",
    "AEREL": "NOT RELATED",
    "AESTDTC": "2013-02-14",
    "AEENDTC": "2013-02-27",
    "AESTDY": 8,
    "AEENDY": 21
  },
  {
    "STUDYID": "CDISCPILOT01",
    "DOMAIN": "AE",
    "USUBJID": "01-718-021",
    "AESEQ": 1,
    "AETERM": "Application site pruritus",
    "AEDECOD": "Application site pruritus",
    "AEBODSYS": "General disorders and administration site conditions",
    "AECAT": "APPLICATION SITE",
    "AESEV": "MILD",
    "AETOXGR": "1",
    "AESER": "N",
    "AEREL": "RELATED",
    "AESTDTC": "2013-09-24",
    "AEENDTC": "2013-09-26",
    "AESTDY": 19,
    "AEENDY": 21
  },
  {
    "STUDYID": "CDISCPILOT01",
    "DOMAIN": "AE",
    "USUBJID": "01-718-021",
    "AESEQ": 2,
    "AETERM": "Pruritus",
    "AEDECOD": "Pruritus",
    "AEBODSYS": "Skin and subcutaneous tissue disorders",
    "AECAT": "GENERAL",
    "AESEV": "MODERATE",
    "AETOXGR": "2",
    "AESER": "N",
    "AEREL": "POSSIBLY RELATED",
    "AESTDTC": "2013-09-18",
    "AEENDTC": "2013-10-23",
    "AESTDY": 13,
    "AEENDY": 48
  },
  {
    "STUDYID": "CDISCPILOT01",
    "DOMAIN": "AE",
    "USUBJID": "01-718-022",
    "AESEQ": 1,
    "AETERM": "Application site dermatitis",
    "AEDECOD": "Application site dermatitis",
    "AEBODSYS": "General disorders and administration site conditions",
    "AECAT": "APPLICATION SITE",
    "AESEV": "MODERATE",
    "AETOXGR": "2",
    "AESER": "N",
    "AEREL": "RELATED",
    "AESTDTC": "2013-10-01",
    "AEENDTC": "2013-10-01",
    "AESTDY": 7,
    "AEENDY": 7
  },
  {
    "STUDYID": "CDISCPILOT01",
    "DOMAIN": "AE",
    "USUBJID": "01-718-022",
    "AESEQ": 2,
    "AETERM": "Pruritus",
    "AEDECOD": "Pruritus",
    "AEBODSYS": "Skin and subcutaneous tissue disorders",
    "AECAT": "GENERAL",
    "AESEV": "MILD",
    "AETOXGR": "1",
    "AESER": "N",
    "AEREL": "POSSIBLY RELATED",
    "AESTDTC": "2013-11-21",
    "AEENDTC": "2013-12-26",
    "AESTDY": 58,
    "AEENDY": 93
  },
  {
    "STUDYID": "CDISCPILOT01",
    "DOMAIN": "AE",
    "USUBJID": "01-718-022",
    "AESEQ": 3,
    "AETERM": "Myocardial infarction",
    "AEDECOD": "Myocardial infarction",
    "AEBODSYS": "Cardiac disorders",
    "AECAT": "GENERAL",
    "AESEV": "MODERATE",
    "AETOXGR": "2",
    "AESER": "N",
    "AEREL": "POSSIBLY RELATED",
    "AESTDTC": "2013-09-30",
    "AEENDTC": "2013-10-25",
    "AESTDY": 6,
    "AEENDY": 31
  },
  {
    "STUDYID": "CDISCPILOT01",
    "DOMAIN": "AE",
    "USUBJID": "01-718-022",
    "AESEQ": 4,
    "AETERM": "Fatigue",
    "AEDECOD": "Fatigue",
    "AEBODSYS": "General disorders and administration site conditions",
    "AECAT": "GENERAL",
    "AESEV": "MILD",
    "AETOXGR": "1",
    "AESER": "N",
    "AEREL": "RELATED",
    "AESTDTC": "2013-11-07",
    "AEENDTC": "2013-11-14",
    "AESTDY": 44,
    "AEENDY": 51
  }
]
