[
  {
    "STUDYID": "KN868",
    "DOMAIN": "TR",
    "USUBJID": "KN868-0001-0001",
    "TRSEQ": 1,
    "TRLNKID": "T1",
    "TRTESTCD": "LDIAM",
    "TRTEST": "Longest Diameter",
    "TRORRES": 51.2,
    "TRORRESU": "mm",
    "TRSTRESN": 51.2,
    "TRSTRESU": "mm",
    "TREVAL": "INVESTIGATOR",
    "TRMETHOD": "CT SCAN",
    "VISITNUM": 1,
    "VISIT": "SCREENING",
    "TRDTC": "2020-04-03",
    "TRDY": -7
  },
  {
    "STUDYID": "KN868",
    "DOMAIN": "TR",
    "USUBJID": "KN868-0001-0001",
    "TRSEQ": 2,
    "TRLNKID": "T2",
    "TRTESTCD": "LDIAM",
    "TRTEST": "Longest Diameter",
    "TRORRES": 27.4,
    "TRORRESU": "mm",
    "TRSTRESN": 27.4,
    "TRSTRESU": "mm",
    "TREVAL": "INVESTIGATOR",
    "TRMETHOD": "CT SCAN",
    "VISITNUM": 1,
    "VISIT": "SCREENING",
    "TRDTC": "2020-04-03",
    "TRDY": -7
  },
  {
    "STUDYID": "KN868",
    "DOMAIN": "TR",
    "USUBJID": "KN868-0001-0001",
    "TRSEQ": 3,
    "TRLNKID": "T1",
    "TRTESTCD": "LDIAM",
    "TRTEST": "Longest Diameter",
    "TRORRES": 29.9,
    "TRORRESU": "mm",
    "TRSTRESN": 29.9,
    "TRSTRESU": "mm",
    "TREVAL": "INVESTIGATOR",
    "TRMETHOD": "CT SCAN",
    "VISITNUM": 2,
    "VISIT": "WEEK 9",
    "TRDTC": "2020-06-14",
    "TRDY": 63
  },
  {
    "STUDYID": "KN868",
    "DOMAIN": "TR",
    "USUBJID": "KN868-0001-0001",
    "TRSEQ": 4,
    "TRLNKID": "T2",
    "TRTESTCD": "LDIAM",
    "TRTEST": "Longest Diameter",
    "TRORRES": 16.6,
    "TRORRESU": "mm",
    "TRSTRESN": 16.6,
    "TRSTRESU": "mm",
    "TREVAL": "INVESTIGATOR",
    "TRMETHOD": "CT SCAN",
    "VISITNUM": 2,
    "VISIT": "WEEK 9",
    "TRDTC": "2020-06-17",
    "TRDY": 63
  },
  {
    "STUDYID": "KN868",
    "DOMAIN": "TR",
    "USUBJID": "KN868-0001-0001",
    "TRSEQ": 5,
    "TRLNKID": "T1",
    "TRTESTCD": "LDIAM",
    "TRTEST": "Longest Diameter",
    "TRORRES": 33.7,
    "TRORRESU": "mm",
    "TRSTRESN": 33.7,
    "TRSTRESU": "mm",
    "TREVAL": "INVESTIGATOR",
    "TRMETHOD": "CT SCAN",
    "VISITNUM": 3,
    "VISIT": "WEEK 18",
    "TRDTC": "2020-08-15",
    "TRDY": 126
  },
  {
    "STUDYID": "KN868",
    "DOMAIN": "TR",
    "USUBJID": "KN868-0001-0001",
    "TRSEQ": 6,
    "TRLNKID": "T2",
    "TRTESTCD": "LDIAM",
    "TRTEST": "Longest Diameter",
    "TRORRES": 17.6,
    "TRORRESU": "mm",
    "TRSTRESN": 17.6,
    "TRSTRESU": "mm",
    "TREVAL": "INVESTIGATOR",
    "TRMETHOD": "CT SCAN",
    "VISITNUM": 3,
    "VISIT": "WEEK 18",
    "TRDTC": "2020-08-18",
    "TRDY": 126
  },
  {
    "STUDYID": "KN868",
    "DOMAIN": "TR",
    "USUBJID": "KN868-0001-0001",
    "TRSEQ": 7,
    "TRLNKID": "T1",
    "TRTESTCD": "LDIAM",
    "TRTEST": "Longest Diameter",
    "TRORRES": 31.7,
    "TRORRESU": "mm",
    "TRSTRESN": 31.7,
    "TRSTRESU": "mm",
    "TREVAL": "INVESTIGATOR",
    "TRMETHOD": "CT SCAN",
    "VISITNUM": 4,
    "VISIT": "WEEK 27",
    "TRDTC": "2020-10-16",
    "TRDY": 189
  },
  {
    "STUDYID": "KN868",
    "DOMAIN": "TR",
    "USUBJID": "KN868-0001-0001",
    "TRSEQ": 8,
    "TRLNKID": "T2",
    "TRTESTCD": "LDIAM",
    "TRTEST": "Longest Diameter",
    "TRORRES": 16.8,
    "TRORRESU": "mm",
    "TRSTRESN": 16.8,
    "TRSTRESU": "mm",
    "TREVAL": "INVESTIGATOR",
    "TRMETHOD": "CT SCAN",
    "VISITNUM": 4,
    "VISIT": "WEEK 27",
    "TRDTC": "2020-10-22",
    "TRDY": 189
  },
  {
    "STUDYID": "KN868",
    "DOMAIN": "TR",
    "USUBJID": "KN868-0001-0001",
    "TRSEQ": 9,
    "TRLNKID": "T1",
    "TRTESTCD": "LDIAM",
    "TRTEST": "Longest Diameter",
    "TRORRES": 29.2,
    "TRORRESU": "mm",
    "TRSTRESN": 29.2,
    "TRSTRESU": "mm",
    "TREVAL": "INVESTIGATOR",
    "TRMETHOD": "CT SCAN",
    "VISITNUM": 5,
    "VISIT": "WEEK 36",
    "TRDTC": "2020-12-23",
    "TRDY": 252
  },
  {
    "STUDYID": "KN868",
    "DOMAIN": "TR",
    "USUBJID": "KN868-0001-0001",
    "TRSEQ": 10,
    "TRLNKID": "T2",
    "TRTESTCD": "LDIAM",
    "TRTEST": "Longest Diameter",
    "TRORRES": 14.8,
    "TRORRESU": "mm",
    "TRSTRESN": 14.8,
    "TRSTRESU": "mm",
    "TREVAL": "INVESTIGATOR",
    "TRMETHOD": "CT SCAN",
    "VISITNUM": 5,
    "VISIT": "WEEK 36",
    "TRDTC": "2020-12-18",
    "TRDY": 252
  },
  {
    "STUDYID": "KN868",
    "DOMAIN": "TR",
    "USUBJID": "KN868-0001-0001",
    "TRSEQ": 11,
    "TRLNKID": "T1",
    "TRTESTCD": "LDIAM",
    "TRTEST": "Longest Diameter",
    "TRORRES": 28.7,
    "TRORRESU": "mm",
    "TRSTRESN": 28.7,
    "TRSTRESU": "mm",
    "TREVAL": "INVESTIGATOR",
    "TRMETHOD": "CT SCAN",
    "VISITNUM": 6,
    "VISIT": "WEEK 45",
    "TRDTC": "2021-02-20",
    "TRDY": 315
  },
  {
    "STUDYID": "KN868",
    "DOMAIN": "TR",
    "USUBJID": "KN868-0001-0001",
    "TRSEQ": 12,
    "TRLNKID": "T2",
    "TRTESTCD": "LDIAM",
    "TRTEST": "Longest Diameter",
    "TRORRES": 15.8,
    "TRORRESU": "mm",
    "TRSTRESN": 15.8,
    "TRSTRESU": "mm",
    "TREVAL": "INVESTIGATOR",
    "TRMETHOD": "CT SCAN",
    "VISITNUM": 6,
    "VISIT": "WEEK 45",
    "TRDTC": "2021-02-22",
    "TRDY": 315
  },
  {
    "STUDYID": "KN868",
    "DOMAIN": "TR",
    "USUBJID": "KN868-0001-0001",
    "TRSEQ": 13,
    "TRLNKID": "T1",
    "TRTESTCD": "LDIAM",
    "TRTEST": "Longest Diameter",
    "TRORRES": 29.1,
    "TRORRESU": "mm",
    "TRSTRESN": 29.1,
    "TRSTRESU": "mm",
    "TREVAL": "INVESTIGATOR",
    "TRMETHOD": "CT SCAN",
    "VISITNUM": 7,
    "VISIT": "WEEK 54",
    "TRDTC": "2021-04-28",
    "TRDY": 378
  },
  {
    "STUDYID": "KN868",
    "DOMAIN": "TR",
    "USUBJID": "KN868-0001-0001",
    "TRSEQ": 14,
    "TRLNKID": "T2",
    "TRTESTCD": "LDIAM",
    "TRTEST": "Longest Diameter",
    "TRORRES": 13.7,
    "TRORRESU": "mm",
    "TRSTRESN": 13.7,
    "TRSTRESU": "mm",
    "TREVAL": "INVESTIGATOR",
    "TRMETHOD": "CT SCAN",
    "VISITNUM": 7,
    "VISIT": "WEEK 54",
    "TRDTC": "2021-04-23",
    "TRDY": 378
  },
  {
    "STUDYID": "KN868",
    "DOMAIN": "TR",
    "USUBJID": "KN868-0001-0001",
    "TRSEQ": 15,
    "TRLNKID": "T1",
    "TRTESTCD": "LDIAM",
    "TRTEST": "Longest Diameter",
    "TRORRES": 27.7,
    "TRORRESU": "mm",
    "TRSTRESN": 27.7,
    "TRSTRESU": "mm",
    "TREVAL": "INVESTIGATOR",
    "TRMETHOD": "CT SCAN",
    "VISITNUM": 8,
    "VISIT": "WEEK 63",
    "TRDTC": "2021-06-28",
    "TRDY": 441
  },
  {
    "STUDYID": "KN868",
    "DOMAIN": "TR",
    "USUBJID": "KN868-0001-0001",
    "TRSEQ": 16,
    "TRLNKID": "T2",
    "TRTESTCD": "LDIAM",
    "TRTEST": "Longest Diameter",
    "TRORRES": 13.6,
    "TRORRESU": "mm",
    "TRSTRESN": 13.6,
    "TRSTRESU": "mm",
    "TREVAL": "INVESTIGATOR",
    "TRMETHOD": "CT SCAN",
    "VISITNUM": 8,
    "VISIT": "WEEK 63",
    "TRDTC": "2021-07-01",
    "TRDY": 441
  },
  {
    "STUDYID": "KN868",
    "DOMAIN": "TR",
    "USUBJID": "KN868-0001-0001",
    "TRSEQ": 17,
    "TRLNKID": "T1",
    "TRTESTCD": "LDIAM",
    "TRTEST": "Longest Diameter",
    "TRORRES": 24.8,
    "TRORRESU": "mm",
    "TRSTRESN": 24.8,
    "TRSTRESU": "mm",
    "TREVAL": "INVESTIGATOR",
    "TRMETHOD": "CT SCAN",
    "VISITNUM": 9,
    "VISIT": "WEEK 72",
    "TRDTC": "2021-08-29",
    "TRDY": 504
  },
  {
    "STUDYID": "KN868",
    "DOMAIN": "TR",
    "USUBJID": "KN868-0001-0001",
    "TRSEQ": 18,
    "TRLNKID": "T2",
    "TRTESTCD": "LDIAM",
    "TRTEST": "Longest Diameter",
    "TRORRES": 15.1,
    "TRORRESU": "mm",
    "TRSTRESN": 15.1,
    "TRSTRESU": "mm",
    "TREVAL": "INVESTIGATOR",
    "TRMETHOD": "CT SCAN",
    "VISITNUM": 9,
    "VISIT": "WEEK 72",
    "TRDTC": "2021-09-02",
    "TRDY": 504
  },
  {
    "STUDYID": "KN868",
    "DOMAIN": "TR",
    "USUBJID": "KN868-0001-0002",
    "TRSEQ": 1,
    "TRLNKID": "T1",
    "TRTESTCD": "LDIAM",
    "TRTEST": "Longest Diameter",
    "TRORRES": 75.3,
    "TRORRESU": "mm",
    "TRSTRESN": 75.3,
    "TRSTRESU": "mm",
    "TREVAL": "INVESTIGATOR",
    "TRMETHOD": "CT SCAN",
    "VISITNUM": 1,
    "VISIT": "SCREENING",
    "TRDTC": "2020-06-02",
    "TRDY": -7
  },
  {
    "STUDYID": "KN868",
    "DOMAIN": "TR",
    "USUBJID": "KN868-0001-0002",
    "TRSEQ": 2,
    "TRLNKID": "T1",
    "TRTESTCD": "LDIAM",
    "TRTEST": "Longest Diameter",
    "TRORRES": 87.4,
    "TRORRESU": "mm",
    "TRSTRESN": 87.4,
    "TRSTRESU": "mm",
    "TREVAL": "INVESTIGATOR",
    "TRMETHOD": "CT SCAN",
    "VISITNUM": 2,
    "VISIT": "WEEK 9",
    "TRDTC": "2020-08-06",
    "TRDY": 63
  },
  {
    "STUDYID": "KN868",
    "DOMAIN": "TR",
    "USUBJID": "KN868-0001-0002",
    "TRSEQ": 3,
    "TRLNKID": "T1",
    "TRTESTCD": "LDIAM",
    "TRTEST": "Longest Diameter",
    "TRORRES": 96.2,
    "TRORRESU": "mm",
    "TRSTRESN": 96.2,
    "TRSTRESU": "mm",
    "TREVAL": "INVESTIGATOR",
    "TRMETHOD": "CT SCAN",
    "VISITNUM": 3,
    "VISIT": "WEEK 18",
    "TRDTC": "2020-10-09",
    "TRDY": 126
  },
  {
    "STUDYID": "KN868",
    "DOMAIN": "TR",
    "USUBJID": "KN868-0001-0002",
    "TRSEQ": 4,
    "TRLNKID": "T1",
    "TRTESTCD": "LDIAM",
    "TRTEST": "Longest Diameter",
    "TRORRES": 107.2,
    "TRORRESU": "mm",
    "TRSTRESN": 107.2,
    "TRSTRESU": "mm",
    "TREVAL": "INVESTIGATOR",
    "TRMETHOD": "CT SCAN",
    "VISITNUM": 4,
    "VISIT": "WEEK 27",
    "TRDTC": "2020-12-12",
    "TRDY": 189
  },
  {
    "STUDYID": "KN868",
    "DOMAIN": "TR",
    "USUBJID": "KN868-0001-0002",
    "TRSEQ": 5,
    "TRLNKID": "T1",
    "TRTESTCD": "LDIAM",
    "TRTEST": "Longest Diameter",
    "TRORRES": 129.3,
    "TRORRESU": "mm",
    "TRSTRESN": 129.3,
    "TRSTRESU": "mm",
    "TREVAL": "INVESTIGATOR",
    "TRMETHOD": "CT SCAN",
    "VISITNUM": 5,
    "VISIT": "WEEK 36",
    "TRDTC": "2021-02-10",
    "TRDY": 252
  },
  {
    "STUDYID": "KN868",
    "DOMAIN": "TR",
    "USUBJID": "KN868-0001-0002",
    "TRSEQ": 6,
    "TRLNKID": "T1",
    "TRTESTCD": "LDIAM",
    "TRTEST": "Longest Diameter",
    "TRORRES": 136.3,
    "TRORRESU": "mm",
    "TRSTRESN": 136.3,
    "TRSTRESU": "mm",
    "TREVAL": "INVESTIGATOR",
    "TRMETHOD": "CT SCAN",
    "VISITNUM": 6,
    "VISIT": "WEEK 45",
    "TRDTC": "2021-04-19",
    "TRDY": 315
  },
  {
    "STUDYID": "KN868",
    "DOMAIN": "TR",
    "USUBJID": "KN868-0001-0002",
    "TRSEQ": 7,
    "TRLNKID": "T1",
    "TRTESTCD": "LDIAM",
    "TRTEST": "Longest Diameter",
    "TRORRES": 117.5,
    "TRORRESU": "mm",
    "TRSTRESN": 117.5,
    "TRSTRESU": "mm",
    "TREVAL": "INVESTIGATOR",
    "TRMETHOD": "CT SCAN",
    "VISITNUM": 7,
    "VISIT": "WEEK 54",
    "TRDTC": "2021-06-18",
    "TRDY": 378
  },
  {
    "STUDYID": "KN868",
    "DOMAIN": "TR",
    "USUBJID": "KN868-0001-0002",
    "TRSEQ": 8,
    "TRLNKID": "T1",
    "TRTESTCD": "LDIAM",
    "TRTEST": "Longest Diameter",
    "TRORRES": 136.2,
    "TRORRESU": "mm",
    "TRSTRESN": 136.2,
    "TRSTRESU": "mm",
    "TREVAL": "INVESTIGATOR",
    "TRMETHOD": "CT SCAN",
    "VISITNUM": 8,
    "VISIT": "WEEK 63",
    "TRDTC": "2021-08-19",
    "TRDY": 441
  },
  {
    "STUDYID": "KN868",
    "DOMAIN": "TR",
    "USUBJID": "KN868-0001-0002",
    "TRSEQ": 9,
    "TRLNKID": "T1",
    "TRTESTCD": "LDIAM",
    "TRTEST": "Longest Diameter",
    "TRORRES": 155.4,
    "TRORRESU": "mm",
    "TRSTRESN": 155.4,
    "TRSTRESU": "mm",
    "TREVAL": "INVESTIGATOR",
    "TRMETHOD": "CT SCAN",
    "VISITNUM": 9,
    "VISIT": "WEEK 72",
    "TRDTC": "2021-10-22",
    "TRDY": 504
  },
  {
    "STUDYID": "KN868",
    "DOMAIN": "TR",
    "USUBJID": "KN868-0001-0003",
    "TRSEQ": 1,
    "TRLNKID": "T1",
    "TRTESTCD": "LDIAM",
    "TRTEST": "Longest Diameter",
    "TRORRES": 72.6,
    "TRORRESU": "mm",
    "TRSTRESN": 72.6,
    "TRSTRESU": "mm",
    "TREVAL": "INVESTIGATOR",
    "TRMETHOD": "CT SCAN",
    "VISITNUM": 1,
    "VISIT": "SCREENING",
    "TRDTC": "2022-01-14",
    "TRDY": -7
  },
  {
    "STUDYID": "KN868",
    "DOMAIN": "TR",
    "USUBJID": "KN868-0001-0003",
    "TRSEQ": 2,
    "TRLNKID": "T2",
    "TRTESTCD": "LDIAM",
    "TRTEST": "Longest Diameter",
    "TRORRES": 47,
    "TRORRESU": "mm",
    "TRSTRESN": 47,
    "TRSTRESU": "mm",
    "TREVAL": "INVESTIGATOR",
    "TRMETHOD": "CT SCAN",
    "VISITNUM": 1,
    "VISIT": "SCREENING",
    "TRDTC": "2022-01-12",
    "TRDY": -7
  },
  {
    "STUDYID": "KN868",
    "DOMAIN": "TR",
    "USUBJID": "KN868-0001-0003",
    "TRSEQ": 3,
    "TRLNKID": "T1",
    "TRTESTCD": "LDIAM",
    "TRTEST": "Longest Diameter",
    "TRORRES": 39.5,
    "TRORRESU": "mm",
    "TRSTRESN": 39.5,
    "TRSTRESU": "mm",
    "TREVAL": "INVESTIGATOR",
    "TRMETHOD": "CT SCAN",
    "VISITNUM": 2,
    "VISIT": "WEEK 9",
    "TRDTC": "2022-03-26",
    "TRDY": 63
  },
  {
    "STUDYID": "KN868",
    "DOMAIN": "TR",
    "USUBJID": "KN868-0001-0003",
    "TRSEQ": 4,
    "TRLNKID": "T2",
    "TRTESTCD": "LDIAM",
    "TRTEST": "Longest Diameter",
    "TRORRES": 25.8,
    "TRORRESU": "mm",
    "TRSTRESN": 25.8,
    "TRSTRESU": "mm",
    "TREVAL": "INVESTIGATOR",
    "TRMETHOD": "CT SCAN",
    "VISITNUM": 2,
    "VISIT": "WEEK 9",
    "TRDTC": "2022-03-23",
    "TRDY": 63
  },
  {
    "STUDYID": "KN868",
    "DOMAIN": "TR",
    "USUBJID": "KN868-0001-0003",
    "TRSEQ": 5,
    "TRLNKID": "T1",
    "TRTESTCD": "LDIAM",
    "TRTEST": "Longest Diameter",
    "TRORRES": 22.1,
    "TRORRESU": "mm",
    "TRSTRESN": 22.1,
    "TRSTRESU": "mm",
    "TREVAL": "INVESTIGATOR",
    "TRMETHOD": "CT SCAN",
    "VISITNUM": 3,
    "VISIT": "WEEK 18",
    "TRDTC": "2022-05-22",
    "TRDY": 126
  },
  {
    "STUDYID": "KN868",
    "DOMAIN": "TR",
    "USUBJID": "KN868-0001-0003",
    "TRSEQ": 6,
    "TRLNKID": "T2",
    "TRTESTCD": "LDIAM",
    "TRTEST": "Longest Diameter",
    "TRORRES": 16.4,
    "TRORRESU": "mm",
    "TRSTRESN": 16.4,
    "TRSTRESU": "mm",
    "TREVAL": "INVESTIGATOR",
    "TRMETHOD": "CT SCAN",
    "VISITNUM": 3,
    "VISIT": "WEEK 18",
    "TRDTC": "2022-05-28",
    "TRDY": 126
  },
  {
    "STUDYID": "KN868",
    "DOMAIN": "TR",
    "USUBJID": "KN868-0001-0003",
    "TRSEQ": 7,
    "TRLNKID": "T1",
    "TRTESTCD": "LDIAM",
    "TRTEST": "Longest Diameter",
    "TRORRES": 0,
    "TRORRESU": "mm",
    "TRSTRESN": 0,
    "TRSTRESU": "mm",
    "TREVAL": "INVESTIGATOR",
    "TRMETHOD": "CT SCAN",
    "VISITNUM": 4,
    "VISIT": "WEEK 27",
    "TRDTC": "2022-07-28",
    "TRDY": 189
  },
  {
    "STUDYID": "KN868",
    "DOMAIN": "TR",
    "USUBJID": "KN868-0001-0003",
    "TRSEQ": 8,
    "TRLNKID": "T2",
    "TRTESTCD": "LDIAM",
    "TRTEST": "Longest Diameter",
    "TRORRES": 0,
    "TRORRESU": "mm",
    "TRSTRESN": 0,
    "TRSTRESU": "mm",
    "TREVAL": "INVESTIGATOR",
    "TRMETHOD": "CT SCAN",
    "VISITNUM": 4,
    "VISIT": "WEEK 27",
    "TRDTC": "2022-07-30",
    "TRDY": 189
  },
  {
    "STUDYID": "KN868",
    "DOMAIN": "TR",
    "USUBJID": "KN868-0001-0003",
    "TRSEQ": 9,
    "TRLNKID": "T1",
    "TRTESTCD": "LDIAM",
    "TRTEST": "Longest Diameter",
    "TRORRES": 0,
    "TRORRESU": "mm",
    "TRSTRESN": 0,
    "TRSTRESU": "mm",
    "TREVAL": "INVESTIGATOR",
    "TRMETHOD": "CT SCAN",
    "VISITNUM": 5,
    "VISIT": "WEEK 36",
    "TRDTC": "2022-09-25",
    "TRDY": 252
  },
  {
    "STUDYID": "KN868",
    "DOMAIN": "TR",
    "USUBJID": "KN868-0001-0003",
    "TRSEQ": 10,
    "TRLNKID": "T2",
    "TRTESTCD": "LDIAM",
    "TRTEST": "Longest Diameter",
    "TRORRES": 0,
    "TRORRESU": "mm",
    "TRSTRESN": 0,
    "TRSTRESU": "mm",
    "TREVAL": "INVESTIGATOR",
    "TRMETHOD": "CT SCAN",
    "VISITNUM": 5,
    "VISIT": "WEEK 36",
    "TRDTC": "2022-09-29",
    "TRDY": 252
  },
  {
    "STUDYID": "KN868",
    "DOMAIN": "TR",
    "USUBJID": "KN868-0001-0003",
    "TRSEQ": 11,
    "TRLNKID": "T1",
    "TRTESTCD": "LDIAM",
    "TRTEST": "Longest Diameter",
    "TRORRES": 0,
    "TRORRESU": "mm",
    "TRSTRESN": 0,
    "TRSTRESU": "mm",
    "TREVAL": "INVESTIGATOR",
    "TRMETHOD": "CT SCAN",
    "VISITNUM": 6,
    "VISIT": "WEEK 45",
    "TRDTC": "2022-12-03",
    "TRDY": 315
  },
  {
    "STUDYID": "KN868",
    "DOMAIN": "TR",
    "USUBJID": "KN868-0001-0003",
    "TRSEQ": 12,
    "TRLNKID": "T2",
    "TRTESTCD": "LDIAM",
    "TRTEST": "Longest Diameter",
    "TRORRES": 0,
    "TRORRESU": "mm",
    "TRSTRESN": 0,
    "TRSTRESU": "mm",
    "TREVAL": "INVESTIGATOR",
    "TRMETHOD": "CT SCAN",
    "VISITNUM": 6,
    "VISIT": "WEEK 45",
    "TRDTC": "2022-11-29",
    "TRDY": 315
  },
  {
    "STUDYID": "KN868",
    "DOMAIN": "TR",
    "USUBJID": "KN868-0001-0003",
    "TRSEQ": 13,
    "TRLNKID": "T1",
    "TRTESTCD": "LDIAM",
    "TRTEST": "Longest Diameter",
    "TRORRES": 0,
    "TRORRESU": "mm",
    "TRSTRESN": 0,
    "TRSTRESU": "mm",
    "TREVAL": "INVESTIGATOR",
    "TRMETHOD": "CT SCAN",
    "VISITNUM": 7,
    "VISIT": "WEEK 54",
    "TRDTC": "2023-01-31",
    "TRDY": 378
  },
  {
    "STUDYID": "KN868",
    "DOMAIN": "TR",
    "USUBJID": "KN868-0001-0003",
    "TRSEQ": 14,
    "TRLNKID": "T2",
    "TRTESTCD": "LDIAM",
    "TRTEST": "Longest Diameter",
    "TRORRES": 0,
    "TRORRESU": "mm",
    "TRSTRESN": 0,
    "TRSTRESU": "mm",
    "TREVAL": "INVESTIGATOR",
    "TRMETHOD": "CT SCAN",
    "VISITNUM": 7,
    "VISIT": "WEEK 54",
    "TRDTC": "2023-02-03",
    "TRDY": 378
  },
  {
    "STUDYID": "KN868",
    "DOMAIN": "TR",
    "USUBJID": "KN868-0001-0003",
    "TRSEQ": 15,
    "TRLNKID": "T1",
    "TRTESTCD": "LDIAM",
    "TRTEST": "Longest Diameter",
    "TRORRES": 0,
    "TRORRESU": "mm",
    "TRSTRESN": 0,
    "TRSTRESU": "mm",
    "TREVAL": "INVESTIGATOR",
    "TRMETHOD": "CT SCAN",
    "VISITNUM": 8,
    "VISIT": "WEEK 63",
    "TRDTC": "2023-04-05",
    "TRDY": 441
  },
  {
    "STUDYID": "KN868",
    "DOMAIN": "TR",
    "USUBJID": "KN868-0001-0003",
    "TRSEQ": 16,
    "TRLNKID": "T2",
    "TRTESTCD": "LDIAM",
    "TRTEST": "Longest Diameter",
    "TRORRES": 0,
    "TRORRESU": "mm",
    "TRSTRESN": 0,
    "TRSTRESU": "mm",
    "TREVAL": "INVESTIGATOR",
    "TRMETHOD": "CT SCAN",
    "VISITNUM": 8,
    "VISIT": "WEEK 63",
    "TRDTC": "2023-04-05",
    "TRDY": 441
  },
  {
    "STUDYID": "KN868",
    "DOMAIN": "TR",
    "USUBJID": "KN868-0001-0003",
    "TRSEQ": 17,
    "TRLNKID": "T1",
    "TRTESTCD": "LDIAM",
    "TRTEST": "Longest Diameter",
    "TRORRES": 0,
    "TRORRESU": "mm",
    "TRSTRESN": 0,
    "TRSTRESU": "mm",
    "TREVAL": "INVESTIGATOR",
    "TRMETHOD": "CT SCAN",
    "VISITNUM": 9,
    "VISIT": "WEEK 72",
    "TRDTC": "2023-06-10",
    "TRDY": 504
  },
  {
    "STUDYID": "KN868",
    "DOMAIN": "TR",
    "USUBJID": "KN868-0001-0003",
    "TRSEQ": 18,
    "TRLNKID": "T2",
    "TRTESTCD": "LDIAM",
    "TRTEST": "Longest Diameter",
    "TRORRES": 0,
    "TRORRESU": "mm",
    "TRSTRESN": 0,
    "TRSTRESU": "mm",
    "TREVAL": "INVESTIGATOR",
    "TRMETHOD": "CT SCAN",
    "VISITNUM": 9,
    "VISIT": "WEEK 72",
    "TRDTC": "2023-06-10",
    "TRDY": 504
  },
  {
    "STUDYID": "KN868",
    "DOMAIN": "TR",
    "USUBJID": "KN868-0001-0004",
    "TRSEQ": 1,
    "TRLNKID": "T1",
    "TRTESTCD": "LDIAM",
    "TRTEST": "Longest Diameter",
    "TRORRES": 22,
    "TRORRESU": "mm",
    "TRSTRESN": 22,
    "TRSTRESU": "mm",
    "TREVAL": "INVESTIGATOR",
    "TRMETHOD": "CT SCAN",
    "VISITNUM": 1,
    "VISIT": "SCREENING",
    "TRDTC": "2021-09-09",
    "TRDY": -7
  },
  {
    "STUDYID": "KN868",
    "DOMAIN": "TR",
    "USUBJID": "KN868-0001-0004",
    "TRSEQ": 2,
    "TRLNKID": "T2",
    "TRTESTCD": "LDIAM",
    "TRTEST": "Longest Diameter",
    "TRORRES": 70.5,
    "TRORRESU": "mm",
    "TRSTRESN": 70.5,
    "TRSTRESU": "mm",
    "TREVAL": "INVESTIGATOR",
    "TRMETHOD": "CT SCAN",
    "VISITNUM": 1,
    "VISIT": "SCREENING",
    "TRDTC": "2021-09-05",
    "TRDY": -7
  },
  {
    "STUDYID": "KN868",
    "DOMAIN": "TR",
    "USUBJID": "KN868-0001-0004",
    "TRSEQ": 3,
    "TRLNKID": "T3",
    "TRTESTCD": "LDIAM",
    "TRTEST": "Longest Diameter",
    "TRORRES": 34.4,
    "TRORRESU": "mm",
    "TRSTRESN": 34.4,
    "TRSTRESU": "mm",
    "TREVAL": "INVESTIGATOR",
    "TRMETHOD": "CT SCAN",
    "VISITNUM": 1,
    "VISIT": "SCREENING",
    "TRDTC": "2021-09-04",
    "TRDY": -7
  },
  {
    "STUDYID": "KN868",
    "DOMAIN": "TR",
    "USUBJID": "KN868-0001-0004",
    "TRSEQ": 4,
    "TRLNKID": "T4",
    "TRTESTCD": "LDIAM",
    "TRTEST": "Longest Diameter",
    "TRORRES": 18.8,
    "TRORRESU": "mm",
    "TRSTRESN": 18.8,
    "TRSTRESU": "mm",
    "TREVAL": "INVESTIGATOR",
    "TRMETHOD": "CT SCAN",
    "VISITNUM": 1,
    "VISIT": "SCREENING",
    "TRDTC": "2021-09-04",
    "TRDY": -7
  },
  {
    "STUDYID": "KN868",
    "DOMAIN": "TR",
    "USUBJID": "KN868-0001-0004",
    "TRSEQ": 5,
    "TRLNKID": "T1",
    "TRTESTCD": "LDIAM",
    "TRTEST": "Longest Diameter",
    "TRORRES": 20.3,
    "TRORRESU": "mm",
    "TRSTRESN": 20.3,
    "TRSTRESU": "mm",
    "TREVAL": "INVESTIGATOR",
    "TRMETHOD": "CT SCAN",
    "VISITNUM": 2,
    "VISIT": "WEEK 9",
    "TRDTC": "2021-11-17",
    "TRDY": 63
  },
  {
    "STUDYID": "KN868",
    "DOMAIN": "TR",
    "USUBJID": "KN868-0001-0004",
    "TRSEQ": 6,
    "TRLNKID": "T2",
    "TRTESTCD": "LDIAM",
    "TRTEST": "Longest Diameter",
    "TRORRES": 67.3,
    "TRORRESU": "mm",
    "TRSTRESN": 67.3,
    "TRSTRESU": "mm",
    "TREVAL": "INVESTIGATOR",
    "TRMETHOD": "CT SCAN",
    "VISITNUM": 2,
    "VISIT": "WEEK 9",
    "TRDTC": "2021-11-16",
    "TRDY": 63
  },
  {
    "STUDYID": "KN868",
    "DOMAIN": "TR",
    "USUBJID": "KN868-0001-0004",
    "TRSEQ": 7,
    "TRLNKID": "T3",
    "TRTESTCD": "LDIAM",
    "TRTEST": "Longest Diameter",
    "TRORRES": 36.3,
    "TRORRESU": "mm",
    "TRSTRESN": 36.3,
    "TRSTRESU": "mm",
    "TREVAL": "INVESTIGATOR",
    "TRMETHOD": "CT SCAN",
    "VISITNUM": 2,
    "VISIT": "WEEK 9",
    "TRDTC": "2021-11-13",
    "TRDY": 63
  },
  {
    "STUDYID": "KN868",
    "DOMAIN": "TR",
    "USUBJID": "KN868-0001-0004",
    "TRSEQ": 8,
    "TRLNKID": "T4",
    "TRTESTCD": "LDIAM",
    "TRTEST": "Longest Diameter",
    "TRORRES": 21.5,
    "TRORRESU": "mm",
    "TRSTRESN": 21.5,
    "TRSTRESU": "mm",
    "TREVAL": "INVESTIGATOR",
    "TRMETHOD": "CT SCAN",
    "VISITNUM": 2,
    "VISIT": "WEEK 9",
    "TRDTC": "2021-11-14",
    "TRDY": 63
  },
  {
    "STUDYID": "KN868",
    "DOMAIN": "TR",
    "USUBJID": "KN868-0001-0004",
    "TRSEQ": 9,
    "TRLNKID": "T1",
    "TRTESTCD": "LDIAM",
    "TRTEST": "Longest Diameter",
    "TRORRES": 22.6,
    "TRORRESU": "mm",
    "TRSTRESN": 22.6,
    "TRSTRESU": "mm",
    "TREVAL": "INVESTIGATOR",
    "TRMETHOD": "CT SCAN",
    "VISITNUM": 3,
    "VISIT": "WEEK 18",
    "TRDTC": "2022-01-16",
    "TRDY": 126
  },
  {
    "STUDYID": "KN868",
    "DOMAIN": "TR",
    "USUBJID": "KN868-0001-0004",
    "TRSEQ": 10,
    "TRLNKID": "T2",
    "TRTESTCD": "LDIAM",
    "TRTEST": "Longest Diameter",
    "TRORRES": 69.8,
    "TRORRESU": "mm",
    "TRSTRESN": 69.8,
    "TRSTRESU": "mm",
    "TREVAL": "INVESTIGATOR",
    "TRMETHOD": "CT SCAN",
    "VISITNUM": 3,
    "VISIT": "WEEK 18",
    "TRDTC": "2022-01-15",
    "TRDY": 126
  },
  {
    "STUDYID": "KN868",
    "DOMAIN": "TR",
    "USUBJID": "KN868-0001-0004",
    "TRSEQ": 11,
    "TRLNKID": "T3",
    "TRTESTCD": "LDIAM",
    "TRTEST": "Longest Diameter",
    "TRORRES": 38.7,
    "TRORRESU": "mm",
    "TRSTRESN": 38.7,
    "TRSTRESU": "mm",
    "TREVAL": "INVESTIGATOR",
    "TRMETHOD": "CT SCAN",
    "VISITNUM": 3,
    "VISIT": "WEEK 18",
    "TRDTC": "2022-01-19",
    "TRDY": 126
  },
  {
    "STUDYID": "KN868",
    "DOMAIN": "TR",
    "USUBJID": "KN868-0001-0004",
    "TRSEQ": 12,
    "TRLNKID": "T4",
    "TRTESTCD": "LDIAM",
    "TRTEST": "Longest Diameter",
    "TRORRES": 17.8,
    "TRORRESU": "mm",
    "TRSTRESN": 17.8,
    "TRSTRESU": "mm",
    "TREVAL": "INVESTIGATOR",
    "TRMETHOD": "CT SCAN",
    "VISITNUM": 3,
    "VISIT": "WEEK 18",
    "TRDTC": "2022-01-21",
    "TRDY": 126
  },
  {
    "STUDYID": "KN868",
    "DOMAIN": "TR",
    "USUBJID": "KN868-0001-0004",
    "TRSEQ": 13,
    "TRLNKID": "T1",
    "TRTESTCD": "LDIAM",
    "TRTEST": "Longest Diameter",
    "TRORRES": 24.9,
    "TRORRESU": "mm",
    "TRSTRESN": 24.9,
    "TRSTRESU": "mm",
    "TREVAL": "INVESTIGATOR",
    "TRMETHOD": "CT SCAN",
    "VISITNUM": 4,
    "VISIT": "WEEK 27",
    "TRDTC": "2022-03-23",
    "TRDY": 189
  },
  {
    "STUDYID": "KN868",
    "DOMAIN": "TR",
    "USUBJID": "KN868-0001-0004",
    "TRSEQ": 14,
    "TRLNKID": "T2",
    "TRTESTCD": "LDIAM",
    "TRTEST": "Longest Diameter",
    "TRORRES": 76.2,
    "TRORRESU": "mm",
    "TRSTRESN": 76.2,
    "TRSTRESU": "mm",
    "TREVAL": "INVESTIGATOR",
    "TRMETHOD": "CT SCAN",
    "VISITNUM": 4,
    "VISIT": "WEEK 27",
    "TRDTC": "2022-03-21",
    "TRDY": 189
  },
  {
    "STUDYID": "KN868",
    "DOMAIN": "TR",
    "USUBJID": "KN868-0001-0004",
    "TRSEQ": 15,
    "TRLNKID": "T3",
    "TRTESTCD": "LDIAM",
    "TRTEST": "Longest Diameter",
    "TRORRES": 33.7,
    "TRORRESU": "mm",
    "TRSTRESN": 33.7,
    "TRSTRESU": "mm",
    "TREVAL": "INVESTIGATOR",
    "TRMETHOD": "CT SCAN",
    "VISITNUM": 4,
    "VISIT": "WEEK 27",
    "TRDTC": "2022-03-24",
    "TRDY": 189
  },
  {
    "STUDYID": "KN868",
    "DOMAIN": "TR",
    "USUBJID": "KN868-0001-0004",
    "TRSEQ": 16,
    "TRLNKID": "T4",
    "TRTESTCD": "LDIAM",
    "TRTEST": "Longest Diameter",
    "TRORRES": 20.4,
    "TRORRESU": "mm",
    "TRSTRESN": 20.4,
    "TRSTRESU": "mm",
    "TREVAL": "INVESTIGATOR",
    "TRMETHOD": "CT SCAN",
    "VISITNUM": 4,
    "VISIT": "WEEK 27",
    "TRDTC": "2022-03-21",
    "TRDY": 189
  },
  {
    "STUDYID": "KN868",
    "DOMAIN": "TR",
    "USUBJID": "KN868-0001-0004",
    "TRSEQ": 17,
    "TRLNKID": "T1",
    "TRTESTCD": "LDIAM",
    "TRTEST": "Longest Diameter",
    "TRORRES": 23.4,
    "TRORRESU": "mm",
    "TRSTRESN": 23.4,
    "TRSTRESU": "mm",
    "TREVAL": "INVESTIGATOR",
    "TRMETHOD": "CT SCAN",
    "VISITNUM": 5,
    "VISIT": "WEEK 36",
    "TRDTC": "2022-05-26",
    "TRDY": 252
  },
  {
    "STUDYID": "KN868",
    "DOMAIN": "TR",
    "USUBJID": "KN868-0001-0004",
    "TRSEQ": 18,
    "TRLNKID": "T2",
    "TRTESTCD": "LDIAM",
    "TRTEST": "Longest Diameter",
    "TRORRES": 63.1,
    "TRORRESU": "mm",
    "TRSTRESN": 63.1,
    "TRSTRESU": "mm",
    "TREVAL": "INVESTIGATOR",
    "TRMETHOD": "CT SCAN",
    "VISITNUM": 5,
    "VISIT": "WEEK 36",
    "TRDTC": "2022-05-27",
    "TRDY": 252
  },
  {
    "STUDYID": "KN868",
    "DOMAIN": "TR",
    "USUBJID": "KN868-0001-0004",
    "TRSEQ": 19,
    "TRLNKID": "T3",
    "TRTESTCD": "LDIAM",
    "TRTEST": "Longest Diameter",
    "TRORRES": 37.6,
    "TRORRESU": "mm",
    "TRSTRESN": 37.6,
    "TRSTRESU": "mm",
    "TREVAL": "INVESTIGATOR",
    "TRMETHOD": "CT SCAN",
    "VISITNUM": 5,
    "VISIT": "WEEK 36",
    "TRDTC": "2022-05-24",
    "TRDY": 252
  },
  {
    "STUDYID": "KN868",
    "DOMAIN": "TR",
    "USUBJID": "KN868-0001-0004",
    "TRSEQ": 20,
    "TRLNKID": "T4",
    "TRTESTCD": "LDIAM",
    "TRTEST": "Longest Diameter",
    "TRORRES": 16.2,
    "TRORRESU": "mm",
    "TRSTRESN": 16.2,
    "TRSTRESU": "mm",
    "TREVAL": "INVESTIGATOR",
    "TRMETHOD": "CT SCAN",
    "VISITNUM": 5,
    "VISIT": "WEEK 36",
    "TRDTC": "2022-05-24",
    "TRDY": 252
  },
  {
    "STUDYID": "KN868",
    "DOMAIN": "TR",
    "USUBJID": "KN868-0001-0004",
    "TRSEQ": 21,
    "TRLNKID": "T1",
    "TRTESTCD": "LDIAM",
    "TRTEST": "Longest Diameter",
    "TRORRES": 24.1,
    "TRORRESU": "mm",
    "TRSTRESN": 24.1,
    "TRSTRESU": "mm",
    "TREVAL": "INVESTIGATOR",
    "TRMETHOD": "CT SCAN",
    "VISITNUM": 6,
    "VISIT": "WEEK 45",
    "TRDTC": "2022-07-26",
    "TRDY": 315
  },
  {
    "STUDYID": "KN868",
    "DOMAIN": "TR",
    "USUBJID": "KN868-0001-0004",
    "TRSEQ": 22,
    "TRLNKID": "T2",
    "TRTESTCD": "LDIAM",
    "TRTEST": "Longest Diameter",
    "TRORRES": 61.6,
    "TRORRESU": "mm",
    "TRSTRESN": 61.6,
    "TRSTRESU": "mm",
    "TREVAL": "INVESTIGATOR",
    "TRMETHOD": "CT SCAN",
    "VISITNUM": 6,
    "VISIT": "WEEK 45",
    "TRDTC": "2022-07-26",
    "TRDY": 315
  },
  {
    "STUDYID": "KN868",
    "DOMAIN": "TR",
    "USUBJID": "KN868-0001-0004",
    "TRSEQ": 23,
    "TRLNKID": "T3",
    "TRTESTCD": "LDIAM",
    "TRTEST": "Longest Diameter",
    "TRORRES": 30.5,
    "TRORRESU": "mm",
    "TRSTRESN": 30.5,
    "TRSTRESU": "mm",
    "TREVAL": "INVESTIGATOR",
    "TRMETHOD": "CT SCAN",
    "VISITNUM": 6,
    "VISIT": "WEEK 45",
    "TRDTC": "2022-07-27",
    "TRDY": 315
  },
  {
    "STUDYID": "KN868",
    "DOMAIN": "TR",
    "USUBJID": "KN868-0001-0004",
    "TRSEQ": 24,
    "TRLNKID": "T4",
    "TRTESTCD": "LDIAM",
    "TRTEST": "Longest Diameter",
    "TRORRES": 21,
    "TRORRESU": "mm",
    "TRSTRESN": 21,
    "TRSTRESU": "mm",
    "TREVAL": "INVESTIGATOR",
    "TRMETHOD": "CT SCAN",
    "VISITNUM": 6,
    "VISIT": "WEEK 45",
    "TRDTC": "2022-07-23",
    "TRDY": 315
  },
  {
    "STUDYID": "KN868",
    "DOMAIN": "TR",
    "USUBJID": "KN868-0001-0004",
    "TRSEQ": 25,
    "TRLNKID": "T1",
    "TRTESTCD": "LDIAM",
    "TRTEST": "Longest Diameter",
    "TRORRES": 20.8,
    "TRORRESU": "mm",
    "TRSTRESN": 20.8,
    "TRSTRESU": "mm",
    "TREVAL": "INVESTIGATOR",
    "TRMETHOD": "CT SCAN",
    "VISITNUM": 7,
    "VISIT": "WEEK 54",
    "TRDTC": "2022-09-28",
    "TRDY": 378
  },
  {
    "STUDYID": "KN868",
    "DOMAIN": "TR",
    "USUBJID": "KN868-0001-0004",
    "TRSEQ": 26,
    "TRLNKID": "T2",
    "TRTESTCD": "LDIAM",
    "TRTEST": "Longest Diameter",
    "TRORRES": 80.2,
    "TRORRESU": "mm",
    "TRSTRESN": 80.2,
    "TRSTRESU": "mm",
    "TREVAL": "INVESTIGATOR",
    "TRMETHOD": "CT SCAN",
    "VISITNUM": 7,
    "VISIT": "WEEK 54",
    "TRDTC": "2022-09-28",
    "TRDY": 378
  },
  {
    "STUDYID": "KN868",
    "DOMAIN": "TR",
    "USUBJID": "KN868-0001-0004",
    "TRSEQ": 27,
    "TRLNKID": "T3",
    "TRTESTCD": "LDIAM",
    "TRTEST": "Longest Diameter",
    "TRORRES": 33.7,
    "TRORRESU": "mm",
    "TRSTRESN": 33.7,
    "TRSTRESU": "mm",
    "TREVAL": "INVESTIGATOR",
    "TRMETHOD": "CT SCAN",
    "VISITNUM": 7,
    "VISIT": "WEEK 54",
    "TRDTC": "2022-09-30",
    "TRDY": 378
  },
  {
    "STUDYID": "KN868",
    "DOMAIN": "TR",
    "USUBJID": "KN868-0001-0004",
    "TRSEQ": 28,
    "TRLNKID": "T4",
    "TRTESTCD": "LDIAM",
    "TRTEST": "Longest Diameter",
    "TRORRES": 16.6,
    "TRORRESU": "mm",
    "TRSTRESN": 16.6,
    "TRSTRESU": "mm",
    "TREVAL": "INVESTIGATOR",
    "TRMETHOD": "CT SCAN",
    "VISITNUM": 7,
    "VISIT": "WEEK 54",
    "TRDTC": "2022-09-26",
    "TRDY": 378
  },
  {
    "STUDYID": "KN868",
    "DOMAIN": "TR",
    "USUBJID": "KN868-0001-0004",
    "TRSEQ": 29,
    "TRLNKID": "T1",
    "TRTESTCD": "LDIAM",
    "TRTEST": "Longest Diameter",
    "TRORRES": 22.9,
    "TRORRESU": "mm",
    "TRSTRESN": 22.9,
    "TRSTRESU": "mm",
    "TREVAL": "INVESTIGATOR",
    "TRMETHOD": "CT SCAN",
    "VISITNUM": 8,
    "VISIT": "WEEK 63",
    "TRDTC": "2022-12-02",
    "TRDY": 441
  },
  {
    "STUDYID": "KN868",
    "DOMAIN": "TR",
    "USUBJID": "KN868-0001-0004",
    "TRSEQ": 30,
    "TRLNKID": "T2",
    "TRTESTCD": "LDIAM",
    "TRTEST": "Longest Diameter",
    "TRORRES": 61.7,
    "TRORRESU": "mm",
    "TRSTRESN": 61.7,
    "TRSTRESU": "mm",
    "TREVAL": "INVESTIGATOR",
    "TRMETHOD": "CT SCAN",
    "VISITNUM": 8,
    "VISIT": "WEEK 63",
    "TRDTC": "2022-11-28",
    "TRDY": 441
  },
  {
    "STUDYID": "KN868",
    "DOMAIN": "TR",
    "USUBJID": "KN868-0001-0004",
    "TRSEQ": 31,
    "TRLNKID": "T3",
    "TRTESTCD": "LDIAM",
    "TRTEST": "Longest Diameter",
    "TRORRES": 35.9,
    "TRORRESU": "mm",
    "TRSTRESN": 35.9,
    "TRSTRESU": "mm",
    "TREVAL": "INVESTIGATOR",
    "TRMETHOD": "CT SCAN",
    "VISITNUM": 8,
    "VISIT": "WEEK 63",
    "TRDTC": "2022-12-02",
    "TRDY": 441
  },
  {
    "STUDYID": "KN868",
    "DOMAIN": "TR",
    "USUBJID": "KN868-0001-0004",
    "TRSEQ": 32,
    "TRLNKID": "T4",
    "TRTESTCD": "LDIAM",
    "TRTEST": "Longest Diameter",
    "TRORRES": 17.7,
    "TRORRESU": "mm",
    "TRSTRESN": 17.7,
    "TRSTRESU": "mm",
    "TREVAL": "INVESTIGATOR",
    "TRMETHOD": "CT SCAN",
    "VISITNUM": 8,
    "VISIT": "WEEK 63",
    "TRDTC": "2022-11-28",
    "TRDY": 441
  },
  {
    "STUDYID": "KN868",
    "DOMAIN": "TR",
    "USUBJID": "KN868-0001-0004",
    "TRSEQ": 33,
    "TRLNKID": "T1",
    "TRTESTCD": "LDIAM",
    "TRTEST": "Longest Diameter",
    "TRORRES": 19,
    "TRORRESU": "mm",
    "TRSTRESN": 19,
    "TRSTRESU": "mm",
    "TREVAL": "INVESTIGATOR",
    "TRMETHOD": "CT SCAN",
    "VISITNUM": 9,
    "VISIT": "WEEK 72",
    "TRDTC": "2023-01-28",
    "TRDY": 504
  },
  {
    "STUDYID": "KN868",
    "DOMAIN": "TR",
    "USUBJID": "KN868-0001-0004",
    "TRSEQ": 34,
    "TRLNKID": "T2",
    "TRTESTCD": "LDIAM",
    "TRTEST": "Longest Diameter",
    "TRORRES": 70,
    "TRORRESU": "mm",
    "TRSTRESN": 70,
    "TRSTRESU": "mm",
    "TREVAL": "INVESTIGATOR",
    "TRMETHOD": "CT SCAN",
    "VISITNUM": 9,
    "VISIT": "WEEK 72",
    "TRDTC": "2023-02-01",
    "TRDY": 504
  },
  {
    "STUDYID": "KN868",
    "DOMAIN": "TR",
    "USUBJID": "KN868-0001-0004",
    "TRSEQ": 35,
    "TRLNKID": "T3",
    "TRTESTCD": "LDIAM",
    "TRTEST": "Longest Diameter",
    "TRORRES": 34.1,
    "TRORRESU": "mm",
    "TRSTRESN": 34.1,
    "TRSTRESU": "mm",
    "TREVAL": "INVESTIGATOR",
    "TRMETHOD": "CT SCAN",
    "VISITNUM": 9,
    "VISIT": "WEEK 72",
    "TRDTC": "2023-01-30",
    "TRDY": 504
  },
  {
    "STUDYID": "KN868",
    "DOMAIN": "TR",
    "USUBJID": "KN868-0001-0004",
    "TRSEQ": 36,
    "TRLNKID": "T4",
    "TRTESTCD": "LDIAM",
    "TRTEST": "Longest Diameter",
    "TRORRES": 20,
    "TRORRESU": "mm",
    "TRSTRESN": 20,
    "TRSTRESU": "mm",
    "TREVAL": "INVESTIGATOR",
    "TRMETHOD": "CT SCAN",
    "VISITNUM": 9,
    "VISIT": "WEEK 72",
    "TRDTC": "2023-02-01",
    "TRDY": 504
  },
  {
    "STUDYID": "KN868",
    "DOMAIN": "TR",
    "USUBJID": "KN868-0001-0005",
    "TRSEQ": 1,
    "TRLNKID": "T1",
    "TRTESTCD": "LDIAM",
    "TRTEST": "Longest Diameter",
    "TRORRES": 42.2,
    "TRORRESU": "mm",
    "TRSTRESN": 42.2,
    "TRSTRESU": "mm",
    "TREVAL": "INVESTIGATOR",
    "TRMETHOD": "CT SCAN",
    "VISITNUM": 1,
    "VISIT": "SCREENING",
    "TRDTC": "2020-12-12",
    "TRDY": -7
  },
  {
    "STUDYID": "KN868",
    "DOMAIN": "TR",
    "USUBJID": "KN868-0001-0005",
    "TRSEQ": 2,
    "TRLNKID": "T2",
    "TRTESTCD": "LDIAM",
    "TRTEST": "Longest Diameter",
    "TRORRES": 39.3,
    "TRORRESU": "mm",
    "TRSTRESN": 39.3,
    "TRSTRESU": "mm",
    "TREVAL": "INVESTIGATOR",
    "TRMETHOD": "CT SCAN",
    "VISITNUM": 1,
    "VISIT": "SCREENING",
    "TRDTC": "2020-12-15",
    "TRDY": -7
  },
  {
    "STUDYID": "KN868",
    "DOMAIN": "TR",
    "USUBJID": "KN868-0001-0005",
    "TRSEQ": 3,
    "TRLNKID": "T3",
    "TRTESTCD": "LDIAM",
    "TRTEST": "Longest Diameter",
    "TRORRES": 21.7,
    "TRORRESU": "mm",
    "TRSTRESN": 21.7,
    "TRSTRESU": "mm",
    "TREVAL": "INVESTIGATOR",
    "TRMETHOD": "CT SCAN",
    "VISITNUM": 1,
    "VISIT": "SCREENING",
    "TRDTC": "2020-12-14",
    "TRDY": -7
  },
  {
    "STUDYID": "KN868",
    "DOMAIN": "TR",
    "USUBJID": "KN868-0001-0005",
    "TRSEQ": 4,
    "TRLNKID": "T1",
    "TRTESTCD": "LDIAM",
    "TRTEST": "Longest Diameter",
    "TRORRES": 24.8,
    "TRORRESU": "mm",
    "TRSTRESN": 24.8,
    "TRSTRESU": "mm",
    "TREVAL": "INVESTIGATOR",
    "TRMETHOD": "CT SCAN",
    "VISITNUM": 2,
    "VISIT": "WEEK 9",
    "TRDTC": "2021-02-22",
    "TRDY": 63
  },
  {
    "STUDYID": "KN868",
    "DOMAIN": "TR",
    "USUBJID": "KN868-0001-0005",
    "TRSEQ": 5,
    "TRLNKID": "T2",
    "TRTESTCD": "LDIAM",
    "TRTEST": "Longest Diameter",
    "TRORRES": 26,
    "TRORRESU": "mm",
    "TRSTRESN": 26,
    "TRSTRESU": "mm",
    "TREVAL": "INVESTIGATOR",
    "TRMETHOD": "CT SCAN",
    "VISITNUM": 2,
    "VISIT": "WEEK 9",
    "TRDTC": "2021-02-23",
    "TRDY": 63
  },
  {
    "STUDYID": "KN868",
    "DOMAIN": "TR",
    "USUBJID": "KN868-0001-0005",
    "TRSEQ": 6,
    "TRLNKID": "T3",
    "TRTESTCD": "LDIAM",
    "TRTEST": "Longest Diameter",
    "TRORRES": 15.2,
    "TRORRESU": "mm",
    "TRSTRESN": 15.2,
    "TRSTRESU": "mm",
    "TREVAL": "INVESTIGATOR",
    "TRMETHOD": "CT SCAN",
    "VISITNUM": 2,
    "VISIT": "WEEK 9",
    "TRDTC": "2021-02-19",
    "TRDY": 63
  },
  {
    "STUDYID": "KN868",
    "DOMAIN": "TR",
    "USUBJID": "KN868-0001-0005",
    "TRSEQ": 7,
    "TRLNKID": "T1",
    "TRTESTCD": "LDIAM",
    "TRTEST": "Longest Diameter",
    "TRORRES": 25.5,
    "TRORRESU": "mm",
    "TRSTRESN": 25.5,
    "TRSTRESU": "mm",
    "TREVAL": "INVESTIGATOR",
    "TRMETHOD": "CT SCAN",
    "VISITNUM": 3,
    "VISIT": "WEEK 18",
    "TRDTC": "2021-04-23",
    "TRDY": 126
  },
  {
    "STUDYID": "KN868",
    "DOMAIN": "TR",
    "USUBJID": "KN868-0001-0005",
    "TRSEQ": 8,
    "TRLNKID": "T2",
    "TRTESTCD": "LDIAM",
    "TRTEST": "Longest Diameter",
    "TRORRES": 23.5,
    "TRORRESU": "mm",
    "TRSTRESN": 23.5,
    "TRSTRESU": "mm",
    "TREVAL": "INVESTIGATOR",
    "TRMETHOD": "CT SCAN",
    "VISITNUM": 3,
    "VISIT": "WEEK 18",
    "TRDTC": "2021-04-25",
    "TRDY": 126
  },
  {
    "STUDYID": "KN868",
    "DOMAIN": "TR",
    "USUBJID": "KN868-0001-0005",
    "TRSEQ": 9,
    "TRLNKID": "T3",
    "TRTESTCD": "LDIAM",
    "TRTEST": "Longest Diameter",
    "TRORRES": 12.4,
    "TRORRESU": "mm",
    "TRSTRESN": 12.4,
    "TRSTRESU": "mm",
    "TREVAL": "INVESTIGATOR",
    "TRMETHOD": "CT SCAN",
    "VISITNUM": 3,
    "VISIT": "WEEK 18",
    "TRDTC": "2021-04-27",
    "TRDY": 126
  },
  {
    "STUDYID": "KN868",
    "DOMAIN": "TR",
    "USUBJID": "KN868-0001-0005",
    "TRSEQ": 10,
    "TRLNKID": "T1",
    "TRTESTCD": "LDIAM",
    "TRTEST": "Longest Diameter",
    "TRORRES": 25.2,
    "TRORRESU": "mm",
    "TRSTRESN": 25.2,
    "TRSTRESU": "mm",
    "TREVAL": "INVESTIGATOR",
    "TRMETHOD": "CT SCAN",
    "VISITNUM": 4,
    "VISIT": "WEEK 27",
    "TRDTC": "2021-06-29",
    "TRDY": 189
  },
  {
    "STUDYID": "KN868",
    "DOMAIN": "TR",
    "USUBJID": "KN868-0001-0005",
    "TRSEQ": 11,
    "TRLNKID": "T2",
    "TRTESTCD": "LDIAM",
    "TRTEST": "Longest Diameter",
    "TRORRES": 21,
    "TRORRESU": "mm",
    "TRSTRESN": 21,
    "TRSTRESU": "mm",
    "TREVAL": "INVESTIGATOR",
    "TRMETHOD": "CT SCAN",
    "VISITNUM": 4,
    "VISIT": "WEEK 27",
    "TRDTC": "2021-06-28",
    "TRDY": 189
  },
  {
    "STUDYID": "KN868",
    "DOMAIN": "TR",
    "USUBJID": "KN868-0001-0005",
    "TRSEQ": 12,
    "TRLNKID": "T3",
    "TRTESTCD": "LDIAM",
    "TRTEST": "Longest Diameter",
    "TRORRES": 11.6,
    "TRORRESU": "mm",
    "TRSTRESN": 11.6,
    "TRSTRESU": "mm",
    "TREVAL": "INVESTIGATOR",
    "TRMETHOD": "CT SCAN",
    "VISITNUM": 4,
    "VISIT": "WEEK 27",
    "TRDTC": "2021-06-25",
    "TRDY": 189
  },
  {
    "STUDYID": "KN868",
    "DOMAIN": "TR",
    "USUBJID": "KN868-0001-0005",
    "TRSEQ": 13,
    "TRLNKID": "T1",
    "TRTESTCD": "LDIAM",
    "TRTEST": "Longest Diameter",
    "TRORRES": 23.3,
    "TRORRESU": "mm",
    "TRSTRESN": 23.3,
    "TRSTRESU": "mm",
    "TREVAL": "INVESTIGATOR",
    "TRMETHOD": "CT SCAN",
    "VISITNUM": 5,
    "VISIT": "WEEK 36",
    "TRDTC": "2021-08-28",
    "TRDY": 252
  },
  {
    "STUDYID": "KN868",
    "DOMAIN": "TR",
    "USUBJID": "KN868-0001-0005",
    "TRSEQ": 14,
    "TRLNKID": "T2",
    "TRTESTCD": "LDIAM",
    "TRTEST": "Longest Diameter",
    "TRORRES": 23.7,
    "TRORRESU": "mm",
    "TRSTRESN": 23.7,
    "TRSTRESU": "mm",
    "TREVAL": "INVESTIGATOR",
    "TRMETHOD": "CT SCAN",
    "VISITNUM": 5,
    "VISIT": "WEEK 36",
    "TRDTC": "2021-08-30",
    "TRDY": 252
  },
  {
    "STUDYID": "KN868",
    "DOMAIN": "TR",
    "USUBJID": "KN868-0001-0005",
    "TRSEQ": 15,
    "TRLNKID": "T3",
    "TRTESTCD": "LDIAM",
    "TRTEST": "Longest Diameter",
    "TRORRES": 11.7,
    "TRORRESU": "mm",
    "TRSTRESN": 11.7,
    "TRSTRESU": "mm",
    "TREVAL": "INVESTIGATOR",
    "TRMETHOD": "CT SCAN",
    "VISITNUM": 5,
    "VISIT": "WEEK 36",
    "TRDTC": "2021-08-27",
    "TRDY": 252
  },
  {
    "STUDYID": "KN868",
    "DOMAIN": "TR",
    "USUBJID": "KN868-0001-0005",
    "TRSEQ": 16,
    "TRLNKID": "T1",
    "TRTESTCD": "LDIAM",
    "TRTEST": "Longest Diameter",
    "TRORRES": 23.8,
    "TRORRESU": "mm",
    "TRSTRESN": 23.8,
    "TRSTRESU": "mm",
    "TREVAL": "INVESTIGATOR",
    "TRMETHOD": "CT SCAN",
    "VISITNUM": 6,
    "VISIT": "WEEK 45",
    "TRDTC": "2021-10-31",
    "TRDY": 315
  },
  {
    "STUDYID": "KN868",
    "DOMAIN": "TR",
    "USUBJID": "KN868-0001-0005",
    "TRSEQ": 17,
    "TRLNKID": "T2",
    "TRTESTCD": "LDIAM",
    "TRTEST": "Longest Diameter",
    "TRORRES": 19.9,
    "TRORRESU": "mm",
    "TRSTRESN": 19.9,
    "TRSTRESU": "mm",
    "TREVAL": "INVESTIGATOR",
    "TRMETHOD": "CT SCAN",
    "VISITNUM": 6,
    "VISIT": "WEEK 45",
    "TRDTC": "2021-11-01",
    "TRDY": 315
  },
  {
    "STUDYID": "KN868",
    "DOMAIN": "TR",
    "USUBJID": "KN868-0001-0005",
    "TRSEQ": 18,
    "TRLNKID": "T3",
    "TRTESTCD": "LDIAM",
    "TRTEST": "Longest Diameter",
    "TRORRES": 11.7,
    "TRORRESU": "mm",
    "TRSTRESN": 11.7,
    "TRSTRESU": "mm",
    "TREVAL": "INVESTIGATOR",
    "TRMETHOD": "CT SCAN",
    "VISITNUM": 6,
    "VISIT": "WEEK 45",
    "TRDTC": "2021-10-29",
    "TRDY": 315
  },
  {
    "STUDYID": "KN868",
    "DOMAIN": "TR",
    "USUBJID": "KN868-0001-0005",
    "TRSEQ": 19,
    "TRLNKID": "T1",
    "TRTESTCD": "LDIAM",
    "TRTEST": "Longest Diameter",
    "TRORRES": 23.6,
    "TRORRESU": "mm",
    "TRSTRESN": 23.6,
    "TRSTRESU": "mm",
    "TREVAL": "INVESTIGATOR",
    "TRMETHOD": "CT SCAN",
    "VISITNUM": 7,
    "VISIT": "WEEK 54",
    "TRDTC": "2021-12-31",
    "TRDY": 378
  },
  {
    "STUDYID": "KN868",
    "DOMAIN": "TR",
    "USUBJID": "KN868-0001-0005",
    "TRSEQ": 20,
    "TRLNKID": "T2",
    "TRTESTCD": "LDIAM",
    "TRTEST": "Longest Diameter",
    "TRORRES": 21.1,
    "TRORRESU": "mm",
    "TRSTRESN": 21.1,
    "TRSTRESU": "mm",
    "TREVAL": "INVESTIGATOR",
    "TRMETHOD": "CT SCAN",
    "VISITNUM": 7,
    "VISIT": "WEEK 54",
    "TRDTC": "2022-01-02",
    "TRDY": 378
  },
  {
    "STUDYID": "KN868",
    "DOMAIN": "TR",
    "USUBJID": "KN868-0001-0005",
    "TRSEQ": 21,
    "TRLNKID": "T3",
    "TRTESTCD": "LDIAM",
    "TRTEST": "Longest Diameter",
    "TRORRES": 11.9,
    "TRORRESU": "mm",
    "TRSTRESN": 11.9,
    "TRSTRESU": "mm",
    "TREVAL": "INVESTIGATOR",
    "TRMETHOD": "CT SCAN",
    "VISITNUM": 7,
    "VISIT": "WEEK 54",
    "TRDTC": "2022-01-05",
    "TRDY": 378
  },
  {
    "STUDYID": "KN868",
    "DOMAIN": "TR",
    "USUBJID": "KN868-0001-0005",
    "TRSEQ": 22,
    "TRLNKID": "T1",
    "TRTESTCD": "LDIAM",
    "TRTEST": "Longest Diameter",
    "TRORRES": 23.9,
    "TRORRESU": "mm",
    "TRSTRESN": 23.9,
    "TRSTRESU": "mm",
    "TREVAL": "INVESTIGATOR",
    "TRMETHOD": "CT SCAN",
    "VISITNUM": 8,
    "VISIT": "WEEK 63",
    "TRDTC": "2022-03-04",
    "TRDY": 441
  },
  {
    "STUDYID": "KN868",
    "DOMAIN": "TR",
    "USUBJID": "KN868-0001-0005",
    "TRSEQ": 23,
    "TRLNKID": "T2",
    "TRTESTCD": "LDIAM",
    "TRTEST": "Longest Diameter",
    "TRORRES": 18.5,
    "TRORRESU": "mm",
    "TRSTRESN": 18.5,
    "TRSTRESU": "mm",
    "TREVAL": "INVESTIGATOR",
    "TRMETHOD": "CT SCAN",
    "VISITNUM": 8,
    "VISIT": "WEEK 63",
    "TRDTC": "2022-03-05",
    "TRDY": 441
  },
  {
    "STUDYID": "KN868",
    "DOMAIN": "TR",
    "USUBJID": "KN868-0001-0005",
    "TRSEQ": 24,
    "TRLNKID": "T3",
    "TRTESTCD": "LDIAM",
    "TRTEST": "Longest Diameter",
    "TRORRES": 10.2,
    "TRORRESU": "mm",
    "TRSTRESN": 10.2,
    "TRSTRESU": "mm",
    "TREVAL": "INVESTIGATOR",
    "TRMETHOD": "CT SCAN",
    "VISITNUM": 8,
    "VISIT": "WEEK 63",
    "TRDTC": "2022-03-05",
    "TRDY": 441
  },
  {
    "STUDYID": "KN868",
    "DOMAIN": "TR",
    "USUBJID": "KN868-0001-0005",
    "TRSEQ": 25,
    "TRLNKID": "T1",
    "TRTESTCD": "LDIAM",
    "TRTEST": "Longest Diameter",
    "TRORRES": 23.7,
    "TRORRESU": "mm",
    "TRSTRESN": 23.7,
    "TRSTRESU": "mm",
    "TREVAL": "INVESTIGATOR",
    "TRMETHOD": "CT SCAN",
    "VISITNUM": 9,
    "VISIT": "WEEK 72",
    "TRDTC": "2022-05-11",
    "TRDY": 504
  },
  {
    "STUDYID": "KN868",
    "DOMAIN": "TR",
    "USUBJID": "KN868-0001-0005",
    "TRSEQ": 26,
    "TRLNKID": "T2",
    "TRTESTCD": "LDIAM",
    "TRTEST": "Longest Diameter",
    "TRORRES": 18.3,
    "TRORRESU": "mm",
    "TRSTRESN": 18.3,
    "TRSTRESU": "mm",
    "TREVAL": "INVESTIGATOR",
    "TRMETHOD": "CT SCAN",
    "VISITNUM": 9,
    "VISIT": "WEEK 72",
    "TRDTC": "2022-05-09",
    "TRDY": 504
  },
  {
    "STUDYID": "KN868",
    "DOMAIN": "TR",
    "USUBJID": "KN868-0001-0005",
    "TRSEQ": 27,
    "TRLNKID": "T3",
    "TRTESTCD": "LDIAM",
    "TRTEST": "Longest Diameter",
    "TRORRES": 11.9,
    "TRORRESU": "mm",
    "TRSTRESN": 11.9,
    "TRSTRESU": "mm",
    "TREVAL": "INVESTIGATOR",
    "TRMETHOD": "CT SCAN",
    "VISITNUM": 9,
    "VISIT": "WEEK 72",
    "TRDTC": "2022-05-10",
    "TRDY": 504
  },
  {
    "STUDYID": "KN868",
    "DOMAIN": "TR",
    "USUBJID": "KN868-0001-0006",
    "TRSEQ": 1,
    "TRLNKID": "T1",
    "TRTESTCD": "LDIAM",
    "TRTEST": "Longest Diameter",
    "TRORRES": 57.8,
    "TRORRESU": "mm",
    "TRSTRESN": 57.8,
    "TRSTRESU": "mm",
    "TREVAL": "INVESTIGATOR",
    "TRMETHOD": "CT SCAN",
    "VISITNUM": 1,
    "VISIT": "SCREENING",
    "TRDTC": "2022-02-02",
    "TRDY": -7
  },
  {
    "STUDYID": "KN868",
    "DOMAIN": "TR",
    "USUBJID": "KN868-0001-0006",
    "TRSEQ": 2,
    "TRLNKID": "T2",
    "TRTESTCD": "LDIAM",
    "TRTEST": "Longest Diameter",
    "TRORRES": 68.4,
    "TRORRESU": "mm",
    "TRSTRESN": 68.4,
    "TRSTRESU": "mm",
    "TREVAL": "INVESTIGATOR",
    "TRMETHOD": "CT SCAN",
    "VISITNUM": 1,
    "VISIT": "SCREENING",
    "TRDTC": "2022-01-29",
    "TRDY": -7
  },
  {
    "STUDYID": "KN868",
    "DOMAIN": "TR",
    "USUBJID": "KN868-0001-0006",
    "TRSEQ": 3,
    "TRLNKID": "T1",
    "TRTESTCD": "LDIAM",
    "TRTEST": "Longest Diameter",
    "TRORRES": 39.4,
    "TRORRESU": "mm",
    "TRSTRESN": 39.4,
    "TRSTRESU": "mm",
    "TREVAL": "INVESTIGATOR",
    "TRMETHOD": "CT SCAN",
    "VISITNUM": 2,
    "VISIT": "WEEK 9",
    "TRDTC": "2022-04-11",
    "TRDY": 63
  },
  {
    "STUDYID": "KN868",
    "DOMAIN": "TR",
    "USUBJID": "KN868-0001-0006",
    "TRSEQ": 4,
    "TRLNKID": "T2",
    "TRTESTCD": "LDIAM",
    "TRTEST": "Longest Diameter",
    "TRORRES": 40.2,
    "TRORRESU": "mm",
    "TRSTRESN": 40.2,
    "TRSTRESU": "mm",
    "TREVAL": "INVESTIGATOR",
    "TRMETHOD": "CT SCAN",
    "VISITNUM": 2,
    "VISIT": "WEEK 9",
    "TRDTC": "2022-04-09",
    "TRDY": 63
  },
  {
    "STUDYID": "KN868",
    "DOMAIN": "TR",
    "USUBJID": "KN868-0001-0006",
    "TRSEQ": 5,
    "TRLNKID": "T1",
    "TRTESTCD": "LDIAM",
    "TRTEST": "Longest Diameter",
    "TRORRES": 33.3,
    "TRORRESU": "mm",
    "TRSTRESN": 33.3,
    "TRSTRESU": "mm",
    "TREVAL": "INVESTIGATOR",
    "TRMETHOD": "CT SCAN",
    "VISITNUM": 3,
    "VISIT": "WEEK 18",
    "TRDTC": "2022-06-16",
    "TRDY": 126
  },
  {
    "STUDYID": "KN868",
    "DOMAIN": "TR",
    "USUBJID": "KN868-0001-0006",
    "TRSEQ": 6,
    "TRLNKID": "T2",
    "TRTESTCD": "LDIAM",
    "TRTEST": "Longest Diameter",
    "TRORRES": 42.1,
    "TRORRESU": "mm",
    "TRSTRESN": 42.1,
    "TRSTRESU": "mm",
    "TREVAL": "INVESTIGATOR",
    "TRMETHOD": "CT SCAN",
    "VISITNUM": 3,
    "VISIT": "WEEK 18",
    "TRDTC": "2022-06-16",
    "TRDY": 126
  },
  {
    "STUDYID": "KN868",
    "DOMAIN": "TR",
    "USUBJID": "KN868-0001-0006",
    "TRSEQ": 7,
    "TRLNKID": "T1",
    "TRTESTCD": "LDIAM",
    "TRTEST": "Longest Diameter",
    "TRORRES": 31.2,
    "TRORRESU": "mm",
    "TRSTRESN": 31.2,
    "TRSTRESU": "mm",
    "TREVAL": "INVESTIGATOR",
    "TRMETHOD": "CT SCAN",
    "VISITNUM": 4,
    "VISIT": "WEEK 27",
    "TRDTC": "2022-08-12",
    "TRDY": 189
  },
  {
    "STUDYID": "KN868",
    "DOMAIN": "TR",
    "USUBJID": "KN868-0001-0006",
    "TRSEQ": 8,
    "TRLNKID": "T2",
    "TRTESTCD": "LDIAM",
    "TRTEST": "Longest Diameter",
    "TRORRES": 35.9,
    "TRORRESU": "mm",
    "TRSTRESN": 35.9,
    "TRSTRESU": "mm",
    "TREVAL": "INVESTIGATOR",
    "TRMETHOD": "CT SCAN",
    "VISITNUM": 4,
    "VISIT": "WEEK 27",
    "TRDTC": "2022-08-12",
    "TRDY": 189
  },
  {
    "STUDYID": "KN868",
    "DOMAIN": "TR",
    "USUBJID": "KN868-0001-0006",
    "TRSEQ": 9,
    "TRLNKID": "T1",
    "TRTESTCD": "LDIAM",
    "TRTEST": "Longest Diameter",
    "TRORRES": 34,
    "TRORRESU": "mm",
    "TRSTRESN": 34,
    "TRSTRESU": "mm",
    "TREVAL": "INVESTIGATOR",
    "TRMETHOD": "CT SCAN",
    "VISITNUM": 5,
    "VISIT": "WEEK 36",
    "TRDTC": "2022-10-16",
    "TRDY": 252
  },
  {
    "STUDYID": "KN868",
    "DOMAIN": "TR",
    "USUBJID": "KN868-0001-0006",
    "TRSEQ": 10,
    "TRLNKID": "T2",
    "TRTESTCD": "LDIAM",
    "TRTEST": "Longest Diameter",
    "TRORRES": 40.9,
    "TRORRESU": "mm",
    "TRSTRESN": 40.9,
    "TRSTRESU": "mm",
    "TREVAL": "INVESTIGATOR",
    "TRMETHOD": "CT SCAN",
    "VISITNUM": 5,
    "VISIT": "WEEK 36",
    "TRDTC": "2022-10-17",
    "TRDY": 252
  },
  {
    "STUDYID": "KN868",
    "DOMAIN": "TR",
    "USUBJID": "KN868-0001-0006",
    "TRSEQ": 11,
    "TRLNKID": "T1",
    "TRTESTCD": "LDIAM",
    "TRTEST": "Longest Diameter",
    "TRORRES": 29.6,
    "TRORRESU": "mm",
    "TRSTRESN": 29.6,
    "TRSTRESU": "mm",
    "TREVAL": "INVESTIGATOR",
    "TRMETHOD": "CT SCAN",
    "VISITNUM": 6,
    "VISIT": "WEEK 45",
    "TRDTC": "2022-12-20",
    "TRDY": 315
  },
  {
    "STUDYID": "KN868",
    "DOMAIN": "TR",
    "USUBJID": "KN868-0001-0006",
    "TRSEQ": 12,
    "TRLNKID": "T2",
    "TRTESTCD": "LDIAM",
    "TRTEST": "Longest Diameter",
    "TRORRES": 34.5,
    "TRORRESU": "mm",
    "TRSTRESN": 34.5,
    "TRSTRESU": "mm",
    "TREVAL": "INVESTIGATOR",
    "TRMETHOD": "CT SCAN",
    "VISITNUM": 6,
    "VISIT": "WEEK 45",
    "TRDTC": "2022-12-17",
    "TRDY": 315
  },
  {
    "STUDYID": "KN868",
    "DOMAIN": "TR",
    "USUBJID": "KN868-0001-0006",
    "TRSEQ": 13,
    "TRLNKID": "T1",
    "TRTESTCD": "LDIAM",
    "TRTEST": "Longest Diameter",
    "TRORRES": 29.3,
    "TRORRESU": "mm",
    "TRSTRESN": 29.3,
    "TRSTRESU": "mm",
    "TREVAL": "INVESTIGATOR",
    "TRMETHOD": "CT SCAN",
    "VISITNUM": 7,
    "VISIT": "WEEK 54",
    "TRDTC": "2023-02-23",
    "TRDY": 378
  },
  {
    "STUDYID": "KN868",
    "DOMAIN": "TR",
    "USUBJID": "KN868-0001-0006",
    "TRSEQ": 14,
    "TRLNKID": "T2",
    "TRTESTCD": "LDIAM",
    "TRTEST": "Longest Diameter",
    "TRORRES": 35.1,
    "TRORRESU": "mm",
    "TRSTRESN": 35.1,
    "TRSTRESU": "mm",
    "TREVAL": "INVESTIGATOR",
    "TRMETHOD": "CT SCAN",
    "VISITNUM": 7,
    "VISIT": "WEEK 54",
    "TRDTC": "2023-02-18",
    "TRDY": 378
  },
  {
    "STUDYID": "KN868",
    "DOMAIN": "TR",
    "USUBJID": "KN868-0001-0006",
    "TRSEQ": 15,
    "TRLNKID": "T1",
    "TRTESTCD": "LDIAM",
    "TRTEST": "Longest Diameter",
    "TRORRES": 32.8,
    "TRORRESU": "mm",
    "TRSTRESN": 32.8,
    "TRSTRESU": "mm",
    "TREVAL": "INVESTIGATOR",
    "TRMETHOD": "CT SCAN",
    "VISITNUM": 8,
    "VISIT": "WEEK 63",
    "TRDTC": "2023-04-24",
    "TRDY": 441
  },
  {
    "STUDYID": "KN868",
    "DOMAIN": "TR",
    "USUBJID": "KN868-0001-0006",
    "TRSEQ": 16,
    "TRLNKID": "T2",
    "TRTESTCD": "LDIAM",
    "TRTEST": "Longest Diameter",
    "TRORRES": 33.9,
    "TRORRESU": "mm",
    "TRSTRESN": 33.9,
    "TRSTRESU": "mm",
    "TREVAL": "INVESTIGATOR",
    "TRMETHOD": "CT SCAN",
    "VISITNUM": 8,
    "VISIT": "WEEK 63",
    "TRDTC": "2023-04-21",
    "TRDY": 441
  },
  {
    "STUDYID": "KN868",
    "DOMAIN": "TR",
    "USUBJID": "KN868-0001-0006",
    "TRSEQ": 17,
    "TRLNKID": "T1",
    "TRTESTCD": "LDIAM",
    "TRTEST": "Longest Diameter",
    "TRORRES": 32.4,
    "TRORRESU": "mm",
    "TRSTRESN": 32.4,
    "TRSTRESU": "mm",
    "TREVAL": "INVESTIGATOR",
    "TRMETHOD": "CT SCAN",
    "VISITNUM": 9,
    "VISIT": "WEEK 72",
    "TRDTC": "2023-06-24",
    "TRDY": 504
  },
  {
    "STUDYID": "KN868",
    "DOMAIN": "TR",
    "USUBJID": "KN868-0001-0006",
    "TRSEQ": 18,
    "TRLNKID": "T2",
    "TRTESTCD": "LDIAM",
    "TRTEST": "Longest Diameter",
    "TRORRES": 34.2,
    "TRORRESU": "mm",
    "TRSTRESN": 34.2,
    "TRSTRESU": "mm",
    "TREVAL": "INVESTIGATOR",
    "TRMETHOD": "CT SCAN",
    "VISITNUM": 9,
    "VISIT": "WEEK 72",
    "TRDTC": "2023-06-27",
    "TRDY": 504
  },
  {
    "STUDYID": "KN868",
    "DOMAIN": "TR",
    "USUBJID": "KN868-0001-0007",
    "TRSEQ": 1,
    "TRLNKID": "T1",
    "TRTESTCD": "LDIAM",
    "TRTEST": "Longest Diameter",
    "TRORRES": 26.2,
    "TRORRESU": "mm",
    "TRSTRESN": 26.2,
    "TRSTRESU": "mm",
    "TREVAL": "INVESTIGATOR",
    "TRMETHOD": "CT SCAN",
    "VISITNUM": 1,
    "VISIT": "SCREENING",
    "TRDTC": "2020-07-09",
    "TRDY": -7
  },
  {
    "STUDYID": "KN868",
    "DOMAIN": "TR",
    "USUBJID": "KN868-0001-0007",
    "TRSEQ": 2,
    "TRLNKID": "T2",
    "TRTESTCD": "LDIAM",
    "TRTEST": "Longest Diameter",
    "TRORRES": 70.6,
    "TRORRESU": "mm",
    "TRSTRESN": 70.6,
    "TRSTRESU": "mm",
    "TREVAL": "INVESTIGATOR",
    "TRMETHOD": "CT SCAN",
    "VISITNUM": 1,
    "VISIT": "SCREENING",
    "TRDTC": "2020-07-14",
    "TRDY": -7
  },
  {
    "STUDYID": "KN868",
    "DOMAIN": "TR",
    "USUBJID": "KN868-0001-0007",
    "TRSEQ": 3,
    "TRLNKID": "T1",
    "TRTESTCD": "LDIAM",
    "TRTEST": "Longest Diameter",
    "TRORRES": 15.6,
    "TRORRESU": "mm",
    "TRSTRESN": 15.6,
    "TRSTRESU": "mm",
    "TREVAL": "INVESTIGATOR",
    "TRMETHOD": "CT SCAN",
    "VISITNUM": 2,
    "VISIT": "WEEK 9",
    "TRDTC": "2020-09-22",
    "TRDY": 63
  },
  {
    "STUDYID": "KN868",
    "DOMAIN": "TR",
    "USUBJID": "KN868-0001-0007",
    "TRSEQ": 4,
    "TRLNKID": "T2",
    "TRTESTCD": "LDIAM",
    "TRTEST": "Longest Diameter",
    "TRORRES": 43.7,
    "TRORRESU": "mm",
    "TRSTRESN": 43.7,
    "TRSTRESU": "mm",
    "TREVAL": "INVESTIGATOR",
    "TRMETHOD": "CT SCAN",
    "VISITNUM": 2,
    "VISIT": "WEEK 9",
    "TRDTC": "2020-09-16",
    "TRDY": 63
  },
  {
    "STUDYID": "KN868",
    "DOMAIN": "TR",
    "USUBJID": "KN868-0001-0007",
    "TRSEQ": 5,
    "TRLNKID": "T1",
    "TRTESTCD": "LDIAM",
    "TRTEST": "Longest Diameter",
    "TRORRES": 11.1,
    "TRORRESU": "mm",
    "TRSTRESN": 11.1,
    "TRSTRESU": "mm",
    "TREVAL": "INVESTIGATOR",
    "TRMETHOD": "CT SCAN",
    "VISITNUM": 3,
    "VISIT": "WEEK 18",
    "TRDTC": "2020-11-19",
    "TRDY": 126
  },
  {
    "STUDYID": "KN868",
    "DOMAIN": "TR",
    "USUBJID": "KN868-0001-0007",
    "TRSEQ": 6,
    "TRLNKID": "T2",
    "TRTESTCD": "LDIAM",
    "TRTEST": "Longest Diameter",
    "TRORRES": 25.8,
    "TRORRESU": "mm",
    "TRSTRESN": 25.8,
    "TRSTRESU": "mm",
    "TREVAL": "INVESTIGATOR",
    "TRMETHOD": "CT SCAN",
    "VISITNUM": 3,
    "VISIT": "WEEK 18",
    "TRDTC": "2020-11-23",
    "TRDY": 126
  },
  {
    "STUDYID": "KN868",
    "DOMAIN": "TR",
    "USUBJID": "KN868-0001-0007",
    "TRSEQ": 7,
    "TRLNKID": "T1",
    "TRTESTCD": "LDIAM",
    "TRTEST": "Longest Diameter",
    "TRORRES": 0,
    "TRORRESU": "mm",
    "TRSTRESN": 0,
    "TRSTRESU": "mm",
    "TREVAL": "INVESTIGATOR",
    "TRMETHOD": "CT SCAN",
    "VISITNUM": 4,
    "VISIT": "WEEK 27",
    "TRDTC": "2021-01-24",
    "TRDY": 189
  },
  {
    "STUDYID": "KN868",
    "DOMAIN": "TR",
    "USUBJID": "KN868-0001-0007",
    "TRSEQ": 8,
    "TRLNKID": "T2",
    "TRTESTCD": "LDIAM",
    "TRTEST": "Longest Diameter",
    "TRORRES": 0,
    "TRORRESU": "mm",
    "TRSTRESN": 0,
    "TRSTRESU": "mm",
    "TREVAL": "INVESTIGATOR",
    "TRMETHOD": "CT SCAN",
    "VISITNUM": 4,
    "VISIT": "WEEK 27",
    "TRDTC": "2021-01-26",
    "TRDY": 189
  },
  {
    "STUDYID": "KN868",
    "DOMAIN": "TR",
    "USUBJID": "KN868-0001-0007",
    "TRSEQ": 9,
    "TRLNKID": "T1",
    "TRTESTCD": "LDIAM",
    "TRTEST": "Longest Diameter",
    "TRORRES": 0,
    "TRORRESU": "mm",
    "TRSTRESN": 0,
    "TRSTRESU": "mm",
    "TREVAL": "INVESTIGATOR",
    "TRMETHOD": "CT SCAN",
    "VISITNUM": 5,
    "VISIT": "WEEK 36",
    "TRDTC": "2021-03-28",
    "TRDY": 252
  },
  {
    "STUDYID": "KN868",
    "DOMAIN": "TR",
    "USUBJID": "KN868-0001-0007",
    "TRSEQ": 10,
    "TRLNKID": "T2",
    "TRTESTCD": "LDIAM",
    "TRTEST": "Longest Diameter",
    "TRORRES": 0,
    "TRORRESU": "mm",
    "TRSTRESN": 0,
    "TRSTRESU": "mm",
    "TREVAL": "INVESTIGATOR",
    "TRMETHOD": "CT SCAN",
    "VISITNUM": 5,
    "VISIT": "WEEK 36",
    "TRDTC": "2021-03-28",
    "TRDY": 252
  },
  {
    "STUDYID": "KN868",
    "DOMAIN": "TR",
    "USUBJID": "KN868-0001-0007",
    "TRSEQ": 11,
    "TRLNKID": "T1",
    "TRTESTCD": "LDIAM",
    "TRTEST": "Longest Diameter",
    "TRORRES": 0,
    "TRORRESU": "mm",
    "TRSTRESN": 0,
    "TRSTRESU": "mm",
    "TREVAL": "INVESTIGATOR",
    "TRMETHOD": "CT SCAN",
    "VISITNUM": 6,
    "VISIT": "WEEK 45",
    "TRDTC": "2021-05-28",
    "TRDY": 315
  },
  {
    "STUDYID": "KN868",
    "DOMAIN": "TR",
    "USUBJID": "KN868-0001-0007",
    "TRSEQ": 12,
    "TRLNKID": "T2",
    "TRTESTCD": "LDIAM",
    "TRTEST": "Longest Diameter",
    "TRORRES": 0,
    "TRORRESU": "mm",
    "TRSTRESN": 0,
    "TRSTRESU": "mm",
    "TREVAL": "INVESTIGATOR",
    "TRMETHOD": "CT SCAN",
    "VISITNUM": 6,
    "VISIT": "WEEK 45",
    "TRDTC": "2021-05-30",
    "TRDY": 315
  },
  {
    "STUDYID": "KN868",
    "DOMAIN": "TR",
    "USUBJID": "KN868-0001-0007",
    "TRSEQ": 13,
    "TRLNKID": "T1",
    "TRTESTCD": "LDIAM",
    "TRTEST": "Longest Diameter",
    "TRORRES": 0,
    "TRORRESU": "mm",
    "TRSTRESN": 0,
    "TRSTRESU": "mm",
    "TREVAL": "INVESTIGATOR",
    "TRMETHOD": "CT SCAN",
    "VISITNUM": 7,
    "VISIT": "WEEK 54",
    "TRDTC": "2021-07-29",
    "TRDY": 378
  },
  {
    "STUDYID": "KN868",
    "DOMAIN": "TR",
    "USUBJID": "KN868-0001-0007",
    "TRSEQ": 14,
    "TRLNKID": "T2",
    "TRTESTCD": "LDIAM",
    "TRTEST": "Longest Diameter",
    "TRORRES": 0,
    "TRORRESU": "mm",
    "TRSTRESN": 0,
    "TRSTRESU": "mm",
    "TREVAL": "INVESTIGATOR",
    "TRMETHOD": "CT SCAN",
    "VISITNUM": 7,
    "VISIT": "WEEK 54",
    "TRDTC": "2021-08-02",
    "TRDY": 378
  },
  {
    "STUDYID": "KN868",
    "DOMAIN": "TR",
    "USUBJID": "KN868-0001-0007",
    "TRSEQ": 15,
    "TRLNKID": "T1",
    "TRTESTCD": "LDIAM",
    "TRTEST": "Longest Diameter",
    "TRORRES": 0,
    "TRORRESU": "mm",
    "TRSTRESN": 0,
    "TRSTRESU": "mm",
    "TREVAL": "INVESTIGATOR",
    "TRMETHOD": "CT SCAN",
    "VISITNUM": 8,
    "VISIT": "WEEK 63",
    "TRDTC": "2021-10-02",
    "TRDY": 441
  },
  {
    "STUDYID": "KN868",
    "DOMAIN": "TR",
    "USUBJID": "KN868-0001-0007",
    "TRSEQ": 16,
    "TRLNKID": "T2",
    "TRTESTCD": "LDIAM",
    "TRTEST": "Longest Diameter",
    "TRORRES": 0,
    "TRORRESU": "mm",
    "TRSTRESN": 0,
    "TRSTRESU": "mm",
    "TREVAL": "INVESTIGATOR",
    "TRMETHOD": "CT SCAN",
    "VISITNUM": 8,
    "VISIT": "WEEK 63",
    "TRDTC": "2021-10-03",
    "TRDY": 441
  },
  {
    "STUDYID": "KN868",
    "DOMAIN": "TR",
    "USUBJID": "KN868-0001-0007",
    "TRSEQ": 17,
    "TRLNKID": "T1",
    "TRTESTCD": "LDIAM",
    "TRTEST": "Longest Diameter",
    "TRORRES": 0,
    "TRORRESU": "mm",
    "TRSTRESN": 0,
    "TRSTRESU": "mm",
    "TREVAL": "INVESTIGATOR",
    "TRMETHOD": "CT SCAN",
    "VISITNUM": 9,
    "VISIT": "WEEK 72",
    "TRDTC": "2021-12-02",
    "TRDY": 504
  },
  {
    "STUDYID": "KN868",
    "DOMAIN": "TR",
    "USUBJID": "KN868-0001-0007",
    "TRSEQ": 18,
    "TRLNKID": "T2",
    "TRTESTCD": "LDIAM",
    "TRTEST": "Longest Diameter",
    "TRORRES": 0,
    "TRORRESU": "mm",
    "TRSTRESN": 0,
    "TRSTRESU": "mm",
    "TREVAL": "INVESTIGATOR",
    "TRMETHOD": "CT SCAN",
    "VISITNUM": 9,
    "VISIT": "WEEK 72",
    "TRDTC": "2021-12-07",
    "TRDY": 504
  },
  {
    "STUDYID": "KN868",
    "DOMAIN": "TR",
    "USUBJID": "KN868-0001-0008",
    "TRSEQ": 1,
    "TRLNKID": "T1",
    "TRTESTCD": "LDIAM",
    "TRTEST": "Longest Diameter",
    "TRORRES": 49.7,
    "TRORRESU": "mm",
    "TRSTRESN": 49.7,
    "TRSTRESU": "mm",
    "TREVAL": "INVESTIGATOR",
    "TRMETHOD": "CT SCAN",
    "VISITNUM": 1,
    "VISIT": "SCREENING",
    "TRDTC": "2022-01-04",
    "TRDY": -7
  },
  {
    "STUDYID": "KN868",
    "DOMAIN": "TR",
    "USUBJID": "KN868-0001-0008",
    "TRSEQ": 2,
    "TRLNKID": "T2",
    "TRTESTCD": "LDIAM",
    "TRTEST": "Longest Diameter",
    "TRORRES": 36.1,
    "TRORRESU": "mm",
    "TRSTRESN": 36.1,
    "TRSTRESU": "mm",
    "TREVAL": "INVESTIGATOR",
    "TRMETHOD": "CT SCAN",
    "VISITNUM": 1,
    "VISIT": "SCREENING",
    "TRDTC": "2021-12-29",
    "TRDY": -7
  },
  {
    "STUDYID": "KN868",
    "DOMAIN": "TR",
    "USUBJID": "KN868-0001-0008",
    "TRSEQ": 3,
    "TRLNKID": "T3",
    "TRTESTCD": "LDIAM",
    "TRTEST": "Longest Diameter",
    "TRORRES": 57.5,
    "TRORRESU": "mm",
    "TRSTRESN": 57.5,
    "TRSTRESU": "mm",
    "TREVAL": "INVESTIGATOR",
    "TRMETHOD": "CT SCAN",
    "VISITNUM": 1,
    "VISIT": "SCREENING",
    "TRDTC": "2022-01-02",
    "TRDY": -7
  },
  {
    "STUDYID": "KN868",
    "DOMAIN": "TR",
    "USUBJID": "KN868-0001-0008",
    "TRSEQ": 4,
    "TRLNKID": "T1",
    "TRTESTCD": "LDIAM",
    "TRTEST": "Longest Diameter",
    "TRORRES": 34.8,
    "TRORRESU": "mm",
    "TRSTRESN": 34.8,
    "TRSTRESU": "mm",
    "TREVAL": "INVESTIGATOR",
    "TRMETHOD": "CT SCAN",
    "VISITNUM": 2,
    "VISIT": "WEEK 9",
    "TRDTC": "2022-03-10",
    "TRDY": 63
  },
  {
    "STUDYID": "KN868",
    "DOMAIN": "TR",
    "USUBJID": "KN868-0001-0008",
    "TRSEQ": 5,
    "TRLNKID": "T2",
    "TRTESTCD": "LDIAM",
    "TRTEST": "Longest Diameter",
    "TRORRES": 23.5,
    "TRORRESU": "mm",
    "TRSTRESN": 23.5,
    "TRSTRESU": "mm",
    "TREVAL": "INVESTIGATOR",
    "TRMETHOD": "CT SCAN",
    "VISITNUM": 2,
    "VISIT": "WEEK 9",
    "TRDTC": "2022-03-11",
    "TRDY": 63
  },
  {
    "STUDYID": "KN868",
    "DOMAIN": "TR",
    "USUBJID": "KN868-0001-0008",
    "TRSEQ": 6,
    "TRLNKID": "T3",
    "TRTESTCD": "LDIAM",
    "TRTEST": "Longest Diameter",
    "TRORRES": 36.4,
    "TRORRESU": "mm",
    "TRSTRESN": 36.4,
    "TRSTRESU": "mm",
    "TREVAL": "INVESTIGATOR",
    "TRMETHOD": "CT SCAN",
    "VISITNUM": 2,
    "VISIT": "WEEK 9",
    "TRDTC": "2022-03-14",
    "TRDY": 63
  },
  {
    "STUDYID": "KN868",
    "DOMAIN": "TR",
    "USUBJID": "KN868-0001-0008",
    "TRSEQ": 7,
    "TRLNKID": "T1",
    "TRTESTCD": "LDIAM",
    "TRTEST": "Longest Diameter",
    "TRORRES": 20,
    "TRORRESU": "mm",
    "TRSTRESN": 20,
    "TRSTRESU": "mm",
    "TREVAL": "INVESTIGATOR",
    "TRMETHOD": "CT SCAN",
    "VISITNUM": 3,
    "VISIT": "WEEK 18",
    "TRDTC": "2022-05-12",
    "TRDY": 126
  },
  {
    "STUDYID": "KN868",
    "DOMAIN": "TR",
    "USUBJID": "KN868-0001-0008",
    "TRSEQ": 8,
    "TRLNKID": "T2",
    "TRTESTCD": "LDIAM",
    "TRTEST": "Longest Diameter",
    "TRORRES": 11.3,
    "TRORRESU": "mm",
    "TRSTRESN": 11.3,
    "TRSTRESU": "mm",
    "TREVAL": "INVESTIGATOR",
    "TRMETHOD": "CT SCAN",
    "VISITNUM": 3,
    "VISIT": "WEEK 18",
    "TRDTC": "2022-05-14",
    "TRDY": 126
  },
  {
    "STUDYID": "KN868",
    "DOMAIN": "TR",
    "USUBJID": "KN868-0001-0008",
    "TRSEQ": 9,
    "TRLNKID": "T3",
    "TRTESTCD": "LDIAM",
    "TRTEST": "Longest Diameter",
    "TRORRES": 24.5,
    "TRORRESU": "mm",
    "TRSTRESN": 24.5,
    "TRSTRESU": "mm",
    "TREVAL": "INVESTIGATOR",
    "TRMETHOD": "CT SCAN",
    "VISITNUM": 3,
    "VISIT": "WEEK 18",
    "TRDTC": "2022-05-13",
    "TRDY": 126
  },
  {
    "STUDYID": "KN868",
    "DOMAIN": "TR",
    "USUBJID": "KN868-0001-0008",
    "TRSEQ": 10,
    "TRLNKID": "T1",
    "TRTESTCD": "LDIAM",
    "TRTEST": "Longest Diameter",
    "TRORRES": 0,
    "TRORRESU": "mm",
    "TRSTRESN": 0,
    "TRSTRESU": "mm",
    "TREVAL": "INVESTIGATOR",
    "TRMETHOD": "CT SCAN",
    "VISITNUM": 4,
    "VISIT": "WEEK 27",
    "TRDTC": "2022-07-14",
    "TRDY": 189
  },
  {
    "STUDYID": "KN868",
    "DOMAIN": "TR",
    "USUBJID": "KN868-0001-0008",
    "TRSEQ": 11,
    "TRLNKID": "T2",
    "TRTESTCD": "LDIAM",
    "TRTEST": "Longest Diameter",
    "TRORRES": 0,
    "TRORRESU": "mm",
    "TRSTRESN": 0,
    "TRSTRESU": "mm",
    "TREVAL": "INVESTIGATOR",
    "TRMETHOD": "CT SCAN",
    "VISITNUM": 4,
    "VISIT": "WEEK 27",
    "TRDTC": "2022-07-16",
    "TRDY": 189
  },
  {
    "STUDYID": "KN868",
    "DOMAIN": "TR",
    "USUBJID": "KN868-0001-0008",
    "TRSEQ": 12,
    "TRLNKID": "T3",
    "TRTESTCD": "LDIAM",
    "TRTEST": "Longest Diameter",
    "TRORRES": 0,
    "TRORRESU": "mm",
    "TRSTRESN": 0,
    "TRSTRESU": "mm",
    "TREVAL": "INVESTIGATOR",
    "TRMETHOD": "CT SCAN",
    "VISITNUM": 4,
    "VISIT": "WEEK 27",
    "TRDTC": "2022-07-15",
    "TRDY": 189
  },
  {
    "STUDYID": "KN868",
    "DOMAIN": "TR",
    "USUBJID": "KN868-0001-0008",
    "TRSEQ": 13,
    "TRLNKID": "T1",
    "TRTESTCD": "LDIAM",
    "TRTEST": "Longest Diameter",
    "TRORRES": 0,
    "TRORRESU": "mm",
    "TRSTRESN": 0,
    "TRSTRESU": "mm",
    "TREVAL": "INVESTIGATOR",
    "TRMETHOD": "CT SCAN",
    "VISITNUM": 5,
    "VISIT": "WEEK 36",
    "TRDTC": "2022-09-19",
    "TRDY": 252
  },
  {
    "STUDYID": "KN868",
    "DOMAIN": "TR",
    "USUBJID": "KN868-0001-0008",
    "TRSEQ": 14,
    "TRLNKID": "T2",
    "TRTESTCD": "LDIAM",
    "TRTEST": "Longest Diameter",
    "TRORRES": 0,
    "TRORRESU": "mm",
    "TRSTRESN": 0,
    "TRSTRESU": "mm",
    "TREVAL": "INVESTIGATOR",
    "TRMETHOD": "CT SCAN",
    "VISITNUM": 5,
    "VISIT": "WEEK 36",
    "TRDTC": "2022-09-16",
    "TRDY": 252
  },
  {
    "STUDYID": "KN868",
    "DOMAIN": "TR",
    "USUBJID": "KN868-0001-0008",
    "TRSEQ": 15,
    "TRLNKID": "T3",
    "TRTESTCD": "LDIAM",
    "TRTEST": "Longest Diameter",
    "TRORRES": 0,
    "TRORRESU": "mm",
    "TRSTRESN": 0,
    "TRSTRESU": "mm",
    "TREVAL": "INVESTIGATOR",
    "TRMETHOD": "CT SCAN",
    "VISITNUM": 5,
    "VISIT": "WEEK 36",
    "TRDTC": "2022-09-15",
    "TRDY": 252
  },
  {
    "STUDYID": "KN868",
    "DOMAIN": "TR",
    "USUBJID": "KN868-0001-0008",
    "TRSEQ": 16,
    "TRLNKID": "T1",
    "TRTESTCD": "LDIAM",
    "TRTEST": "Longest Diameter",
    "TRORRES": 0,
    "TRORRESU": "mm",
    "TRSTRESN": 0,
    "TRSTRESU": "mm",
    "TREVAL": "INVESTIGATOR",
    "TRMETHOD": "CT SCAN",
    "VISITNUM": 6,
    "VISIT": "WEEK 45",
    "TRDTC": "2022-11-16",
    "TRDY": 315
  },
  {
    "STUDYID": "KN868",
    "DOMAIN": "TR",
    "USUBJID": "KN868-0001-0008",
    "TRSEQ": 17,
    "TRLNKID": "T2",
    "TRTESTCD": "LDIAM",
    "TRTEST": "Longest Diameter",
    "TRORRES": 0,
    "TRORRESU": "mm",
    "TRSTRESN": 0,
    "TRSTRESU": "mm",
    "TREVAL": "INVESTIGATOR",
    "TRMETHOD": "CT SCAN",
    "VISITNUM": 6,
    "VISIT": "WEEK 45",
    "TRDTC": "2022-11-16",
    "TRDY": 315
  },
  {
    "STUDYID": "KN868",
    "DOMAIN": "TR",
    "USUBJID": "KN868-0001-0008",
    "TRSEQ": 18,
    "TRLNKID": "T3",
    "TRTESTCD": "LDIAM",
    "TRTEST": "Longest Diameter",
    "TRORRES": 0,
    "TRORRESU": "mm",
    "TRSTRESN": 0,
    "TRSTRESU": "mm",
    "TREVAL": "INVESTIGATOR",
    "TRMETHOD": "CT SCAN",
    "VISITNUM": 6,
    "VISIT": "WEEK 45",
    "TRDTC": "2022-11-18",
    "TRDY": 315
  },
  {
    "STUDYID": "KN868",
    "DOMAIN": "TR",
    "USUBJID": "KN868-0001-0008",
    "TRSEQ": 19,
    "TRLNKID": "T1",
    "TRTESTCD": "LDIAM",
    "TRTEST": "Longest Diameter",
    "TRORRES": 0,
    "TRORRESU": "mm",
    "TRSTRESN": 0,
    "TRSTRESU": "mm",
    "TREVAL": "INVESTIGATOR",
    "TRMETHOD": "CT SCAN",
    "VISITNUM": 7,
    "VISIT": "WEEK 54",
    "TRDTC": "2023-01-22",
    "TRDY": 378
  },
  {
    "STUDYID": "KN868",
    "DOMAIN": "TR",
    "USUBJID": "KN868-0001-0008",
    "TRSEQ": 20,
    "TRLNKID": "T2",
    "TRTESTCD": "LDIAM",
    "TRTEST": "Longest Diameter",
    "TRORRES": 0,
    "TRORRESU": "mm",
    "TRSTRESN": 0,
    "TRSTRESU": "mm",
    "TREVAL": "INVESTIGATOR",
    "TRMETHOD": "CT SCAN",
    "VISITNUM": 7,
    "VISIT": "WEEK 54",
    "TRDTC": "2023-01-20",
    "TRDY": 378
  },
  {
    "STUDYID": "KN868",
    "DOMAIN": "TR",
    "USUBJID": "KN868-0001-0008",
    "TRSEQ": 21,
    "TRLNKID": "T3",
    "TRTESTCD": "LDIAM",
    "TRTEST": "Longest Diameter",
    "TRORRES": 0,
    "TRORRESU": "mm",
    "TRSTRESN": 0,
    "TRSTRESU": "mm",
    "TREVAL": "INVESTIGATOR",
    "TRMETHOD": "CT SCAN",
    "VISITNUM": 7,
    "VISIT": "WEEK 54",
    "TRDTC": "2023-01-23",
    "TRDY": 378
  },
  {
    "STUDYID": "KN868",
    "DOMAIN": "TR",
    "USUBJID": "KN868-0001-0008",
    "TRSEQ": 22,
    "TRLNKID": "T1",
    "TRTESTCD": "LDIAM",
    "TRTEST": "Longest Diameter",
    "TRORRES": 0,
    "TRORRESU": "mm",
    "TRSTRESN": 0,
    "TRSTRESU": "mm",
    "TREVAL": "INVESTIGATOR",
    "TRMETHOD": "CT SCAN",
    "VISITNUM": 8,
    "VISIT": "WEEK 63",
    "TRDTC": "2023-03-28",
    "TRDY": 441
  },
  {
    "STUDYID": "KN868",
    "DOMAIN": "TR",
    "USUBJID": "KN868-0001-0008",
    "TRSEQ": 23,
    "TRLNKID": "T2",
    "TRTESTCD": "LDIAM",
    "TRTEST": "Longest Diameter",
    "TRORRES": 0,
    "TRORRESU": "mm",
    "TRSTRESN": 0,
    "TRSTRESU": "mm",
    "TREVAL": "INVESTIGATOR",
    "TRMETHOD": "CT SCAN",
    "VISITNUM": 8,
    "VISIT": "WEEK 63",
    "TRDTC": "2023-03-22",
    "TRDY": 441
  },
  {
    "STUDYID": "KN868",
    "DOMAIN": "TR",
    "USUBJID": "KN868-0001-0008",
    "TRSEQ": 24,
    "TRLNKID": "T3",
    "TRTESTCD": "LDIAM",
    "TRTEST": "Longest Diameter",
    "TRORRES": 0,
    "TRORRESU": "mm",
    "TRSTRESN": 0,
    "TRSTRESU": "mm",
    "TREVAL": "INVESTIGATOR",
    "TRMETHOD": "CT SCAN",
    "VISITNUM": 8,
    "VISIT": "WEEK 63",
    "TRDTC": "2023-03-22",
    "TRDY": 441
  },
  {
    "STUDYID": "KN868",
    "DOMAIN": "TR",
    "USUBJID": "KN868-0001-0008",
    "TRSEQ": 25,
    "TRLNKID": "T1",
    "TRTESTCD": "LDIAM",
    "TRTEST": "Longest Diameter",
    "TRORRES": 0,
    "TRORRESU": "mm",
    "TRSTRESN": 0,
    "TRSTRESU": "mm",
    "TREVAL": "INVESTIGATOR",
    "TRMETHOD": "CT SCAN",
    "VISITNUM": 9,
    "VISIT": "WEEK 72",
    "TRDTC": "2023-05-28",
    "TRDY": 504
  },
  {
    "STUDYID": "KN868",
    "DOMAIN": "TR",
    "USUBJID": "KN868-0001-0008",
    "TRSEQ": 26,
    "TRLNKID": "T2",
    "TRTESTCD": "LDIAM",
    "TRTEST": "Longest Diameter",
    "TRORRES": 0,
    "TRORRESU": "mm",
    "TRSTRESN": 0,
    "TRSTRESU": "mm",
    "TREVAL": "INVESTIGATOR",
    "TRMETHOD": "CT SCAN",
    "VISITNUM": 9,
    "VISIT": "WEEK 72",
    "TRDTC": "2023-05-30",
    "TRDY": 504
  },
  {
    "STUDYID": "KN868",
    "DOMAIN": "TR",
    "USUBJID": "KN868-0001-0008",
    "TRSEQ": 27,
    "TRLNKID": "T3",
    "TRTESTCD": "LDIAM",
    "TRTEST": "Longest Diameter",
    "TRORRES": 0,
    "TRORRESU": "mm",
    "TRSTRESN": 0,
    "TRSTRESU": "mm",
    "TREVAL": "INVESTIGATOR",
    "TRMETHOD": "CT SCAN",
    "VISITNUM": 9,
    "VISIT": "WEEK 72",
    "TRDTC": "2023-05-26",
    "TRDY": 504
  },
  {
    "STUDYID": "KN868",
    "DOMAIN": "TR",
    "USUBJID": "KN868-0001-0009",
    "TRSEQ": 1,
    "TRLNKID": "T1",
    "TRTESTCD": "LDIAM",
    "TRTEST": "Longest Diameter",
    "TRORRES": 35.4,
    "TRORRESU": "mm",
    "TRSTRESN": 35.4,
    "TRSTRESU": "mm",
    "TREVAL": "INVESTIGATOR",
    "TRMETHOD": "CT SCAN",
    "VISITNUM": 1,
    "VISIT": "SCREENING",
    "TRDTC": "2021-06-27",
    "TRDY": -7
  },
  {
    "STUDYID": "KN868",
    "DOMAIN": "TR",
    "USUBJID": "KN868-0001-0009",
    "TRSEQ": 2,
    "TRLNKID": "T2",
    "TRTESTCD": "LDIAM",
    "TRTEST": "Longest Diameter",
    "TRORRES": 61.1,
    "TRORRESU": "mm",
    "TRSTRESN": 61.1,
    "TRSTRESU": "mm",
    "TREVAL": "INVESTIGATOR",
    "TRMETHOD": "CT SCAN",
    "VISITNUM": 1,
    "VISIT": "SCREENING",
    "TRDTC": "2021-06-23",
    "TRDY": -7
  },
  {
    "STUDYID": "KN868",
    "DOMAIN": "TR",
    "USUBJID": "KN868-0001-0009",
    "TRSEQ": 3,
    "TRLNKID": "T1",
    "TRTESTCD": "LDIAM",
    "TRTEST": "Longest Diameter",
    "TRORRES": 17.8,
    "TRORRESU": "mm",
    "TRSTRESN": 17.8,
    "TRSTRESU": "mm",
    "TREVAL": "INVESTIGATOR",
    "TRMETHOD": "CT SCAN",
    "VISITNUM": 2,
    "VISIT": "WEEK 9",
    "TRDTC": "2021-09-03",
    "TRDY": 63
  },
  {
    "STUDYID": "KN868",
    "DOMAIN": "TR",
    "USUBJID": "KN868-0001-0009",
    "TRSEQ": 4,
    "TRLNKID": "T2",
    "TRTESTCD": "LDIAM",
    "TRTEST": "Longest Diameter",
    "TRORRES": 43.6,
    "TRORRESU": "mm",
    "TRSTRESN": 43.6,
    "TRSTRESU": "mm",
    "TREVAL": "INVESTIGATOR",
    "TRMETHOD": "CT SCAN",
    "VISITNUM": 2,
    "VISIT": "WEEK 9",
    "TRDTC": "2021-08-30",
    "TRDY": 63
  },
  {
    "STUDYID": "KN868",
    "DOMAIN": "TR",
    "USUBJID": "KN868-0001-0009",
    "TRSEQ": 5,
    "TRLNKID": "T1",
    "TRTESTCD": "LDIAM",
    "TRTEST": "Longest Diameter",
    "TRORRES": 13.9,
    "TRORRESU": "mm",
    "TRSTRESN": 13.9,
    "TRSTRESU": "mm",
    "TREVAL": "INVESTIGATOR",
    "TRMETHOD": "CT SCAN",
    "VISITNUM": 3,
    "VISIT": "WEEK 18",
    "TRDTC": "2021-11-02",
    "TRDY": 126
  },
  {
    "STUDYID": "KN868",
    "DOMAIN": "TR",
    "USUBJID": "KN868-0001-0009",
    "TRSEQ": 6,
    "TRLNKID": "T2",
    "TRTESTCD": "LDIAM",
    "TRTEST": "Longest Diameter",
    "TRORRES": 22.2,
    "TRORRESU": "mm",
    "TRSTRESN": 22.2,
    "TRSTRESU": "mm",
    "TREVAL": "INVESTIGATOR",
    "TRMETHOD": "CT SCAN",
    "VISITNUM": 3,
    "VISIT": "WEEK 18",
    "TRDTC": "2021-11-06",
    "TRDY": 126
  },
  {
    "STUDYID": "KN868",
    "DOMAIN": "TR",
    "USUBJID": "KN868-0001-0009",
    "TRSEQ": 7,
    "TRLNKID": "T1",
    "TRTESTCD": "LDIAM",
    "TRTEST": "Longest Diameter",
    "TRORRES": 0,
    "TRORRESU": "mm",
    "TRSTRESN": 0,
    "TRSTRESU": "mm",
    "TREVAL": "INVESTIGATOR",
    "TRMETHOD": "CT SCAN",
    "VISITNUM": 4,
    "VISIT": "WEEK 27",
    "TRDTC": "2022-01-05",
    "TRDY": 189
  },
  {
    "STUDYID": "KN868",
    "DOMAIN": "TR",
    "USUBJID": "KN868-0001-0009",
    "TRSEQ": 8,
    "TRLNKID": "T2",
    "TRTESTCD": "LDIAM",
    "TRTEST": "Longest Diameter",
    "TRORRES": 0,
    "TRORRESU": "mm",
    "TRSTRESN": 0,
    "TRSTRESU": "mm",
    "TREVAL": "INVESTIGATOR",
    "TRMETHOD": "CT SCAN",
    "VISITNUM": 4,
    "VISIT": "WEEK 27",
    "TRDTC": "2022-01-05",
    "TRDY": 189
  },
  {
    "STUDYID": "KN868",
    "DOMAIN": "TR",
    "USUBJID": "KN868-0001-0009",
    "TRSEQ": 9,
    "TRLNKID": "T1",
    "TRTESTCD": "LDIAM",
    "TRTEST": "Longest Diameter",
    "TRORRES": 0,
    "TRORRESU": "mm",
    "TRSTRESN": 0,
    "TRSTRESU": "mm",
    "TREVAL": "INVESTIGATOR",
    "TRMETHOD": "CT SCAN",
    "VISITNUM": 5,
    "VISIT": "WEEK 36",
    "TRDTC": "2022-03-08",
    "TRDY": 252
  },
  {
    "STUDYID": "KN868",
    "DOMAIN": "TR",
    "USUBJID": "KN868-0001-0009",
    "TRSEQ": 10,
    "TRLNKID": "T2",
    "TRTESTCD": "LDIAM",
    "TRTEST": "Longest Diameter",
    "TRORRES": 0,
    "TRORRESU": "mm",
    "TRSTRESN": 0,
    "TRSTRESU": "mm",
    "TREVAL": "INVESTIGATOR",
    "TRMETHOD": "CT SCAN",
    "VISITNUM": 5,
    "VISIT": "WEEK 36",
    "TRDTC": "2022-03-13",
    "TRDY": 252
  },
  {
    "STUDYID": "KN868",
    "DOMAIN": "TR",
    "USUBJID": "KN868-0001-0009",
    "TRSEQ": 11,
    "TRLNKID": "T1",
    "TRTESTCD": "LDIAM",
    "TRTEST": "Longest Diameter",
    "TRORRES": 0,
    "TRORRESU": "mm",
    "TRSTRESN": 0,
    "TRSTRESU": "mm",
    "TREVAL": "INVESTIGATOR",
    "TRMETHOD": "CT SCAN",
    "VISITNUM": 6,
    "VISIT": "WEEK 45",
    "TRDTC": "2022-05-13",
    "TRDY": 315
  },
  {
    "STUDYID": "KN868",
    "DOMAIN": "TR",
    "USUBJID": "KN868-0001-0009",
    "TRSEQ": 12,
    "TRLNKID": "T2",
    "TRTESTCD": "LDIAM",
    "TRTEST": "Longest Diameter",
    "TRORRES": 0,
    "TRORRESU": "mm",
    "TRSTRESN": 0,
    "TRSTRESU": "mm",
    "TREVAL": "INVESTIGATOR",
    "TRMETHOD": "CT SCAN",
    "VISITNUM": 6,
    "VISIT": "WEEK 45",
    "TRDTC": "2022-05-13",
    "TRDY": 315
  },
  {
    "STUDYID": "KN868",
    "DOMAIN": "TR",
    "USUBJID": "KN868-0001-0009",
    "TRSEQ": 13,
    "TRLNKID": "T1",
    "TRTESTCD": "LDIAM",
    "TRTEST": "Longest Diameter",
    "TRORRES": 0,
    "TRORRESU": "mm",
    "TRSTRESN": 0,
    "TRSTRESU": "mm",
    "TREVAL": "INVESTIGATOR",
    "TRMETHOD": "CT SCAN",
    "VISITNUM": 7,
    "VISIT": "WEEK 54",
    "TRDTC": "2022-07-15",
    "TRDY": 378
  },
  {
    "STUDYID": "KN868",
    "DOMAIN": "TR",
    "USUBJID": "KN868-0001-0009",
    "TRSEQ": 14,
    "TRLNKID": "T2",
    "TRTESTCD": "LDIAM",
    "TRTEST": "Longest Diameter",
    "TRORRES": 0,
    "TRORRESU": "mm",
    "TRSTRESN": 0,
    "TRSTRESU": "mm",
    "TREVAL": "INVESTIGATOR",
    "TRMETHOD": "CT SCAN",
    "VISITNUM": 7,
    "VISIT": "WEEK 54",
    "TRDTC": "2022-07-16",
    "TRDY": 378
  },
  {
    "STUDYID": "KN868",
    "DOMAIN": "TR",
    "USUBJID": "KN868-0001-0009",
    "TRSEQ": 15,
    "TRLNKID": "T1",
    "TRTESTCD": "LDIAM",
    "TRTEST": "Longest Diameter",
    "TRORRES": 0,
    "TRORRESU": "mm",
    "TRSTRESN": 0,
    "TRSTRESU": "mm",
    "TREVAL": "INVESTIGATOR",
    "TRMETHOD": "CT SCAN",
    "VISITNUM": 8,
    "VISIT": "WEEK 63",
    "TRDTC": "2022-09-13",
    "TRDY": 441
  },
  {
    "STUDYID": "KN868",
    "DOMAIN": "TR",
    "USUBJID": "KN868-0001-0009",
    "TRSEQ": 16,
    "TRLNKID": "T2",
    "TRTESTCD": "LDIAM",
    "TRTEST": "Longest Diameter",
    "TRORRES": 0,
    "TRORRESU": "mm",
    "TRSTRESN": 0,
    "TRSTRESU": "mm",
    "TREVAL": "INVESTIGATOR",
    "TRMETHOD": "CT SCAN",
    "VISITNUM": 8,
    "VISIT": "WEEK 63",
    "TRDTC": "2022-09-12",
    "TRDY": 441
  },
  {
    "STUDYID": "KN868",
    "DOMAIN": "TR",
    "USUBJID": "KN868-0001-0009",
    "TRSEQ": 17,
    "TRLNKID": "T1",
    "TRTESTCD": "LDIAM",
    "TRTEST": "Longest Diameter",
    "TRORRES": 0,
    "TRORRESU": "mm",
    "TRSTRESN": 0,
    "TRSTRESU": "mm",
    "TREVAL": "INVESTIGATOR",
    "TRMETHOD": "CT SCAN",
    "VISITNUM": 9,
    "VISIT": "WEEK 72",
    "TRDTC": "2022-11-20",
    "TRDY": 504
  },
  {
    "STUDYID": "KN868",
    "DOMAIN": "TR",
    "USUBJID": "KN868-0001-0009",
    "TRSEQ": 18,
    "TRLNKID": "T2",
    "TRTESTCD": "LDIAM",
    "TRTEST": "Longest Diameter",
    "TRORRES": 0,
    "TRORRESU": "mm",
    "TRSTRESN": 0,
    "TRSTRESU": "mm",
    "TREVAL": "INVESTIGATOR",
    "TRMETHOD": "CT SCAN",
    "VISITNUM": 9,
    "VISIT": "WEEK 72",
    "TRDTC": "2022-11-19",
    "TRDY": 504
  },
  {
    "STUDYID": "KN868",
    "DOMAIN": "TR",
    "USUBJID": "KN868-0001-0010",
    "TRSEQ": 1,
    "TRLNKID": "T1",
    "TRTESTCD": "LDIAM",
    "TRTEST": "Longest Diameter",
    "TRORRES": 76.2,
    "TRORRESU": "mm",
    "TRSTRESN": 76.2,
    "TRSTRESU": "mm",
    "TREVAL": "INVESTIGATOR",
    "TRMETHOD": "CT SCAN",
    "VISITNUM": 1,
    "VISIT": "SCREENING",
    "TRDTC": "2021-04-30",
    "TRDY": -7
  },
  {
    "STUDYID": "KN868",
    "DOMAIN": "TR",
    "USUBJID": "KN868-0001-0010",
    "TRSEQ": 2,
    "TRLNKID": "T2",
    "TRTESTCD": "LDIAM",
    "TRTEST": "Longest Diameter",
    "TRORRES": 60.9,
    "TRORRESU": "mm",
    "TRSTRESN": 60.9,
    "TRSTRESU": "mm",
    "TREVAL": "INVESTIGATOR",
    "TRMETHOD": "CT SCAN",
    "VISITNUM": 1,
    "VISIT": "SCREENING",
    "TRDTC": "2021-04-29",
    "TRDY": -7
  },
  {
    "STUDYID": "KN868",
    "DOMAIN": "TR",
    "USUBJID": "KN868-0001-0010",
    "TRSEQ": 3,
    "TRLNKID": "T1",
    "TRTESTCD": "LDIAM",
    "TRTEST": "Longest Diameter",
    "TRORRES": 71.3,
    "TRORRESU": "mm",
    "TRSTRESN": 71.3,
    "TRSTRESU": "mm",
    "TREVAL": "INVESTIGATOR",
    "TRMETHOD": "CT SCAN",
    "VISITNUM": 2,
    "VISIT": "WEEK 9",
    "TRDTC": "2021-07-13",
    "TRDY": 63
  },
  {
    "STUDYID": "KN868",
    "DOMAIN": "TR",
    "USUBJID": "KN868-0001-0010",
    "TRSEQ": 4,
    "TRLNKID": "T2",
    "TRTESTCD": "LDIAM",
    "TRTEST": "Longest Diameter",
    "TRORRES": 64.6,
    "TRORRESU": "mm",
    "TRSTRESN": 64.6,
    "TRSTRESU": "mm",
    "TREVAL": "INVESTIGATOR",
    "TRMETHOD": "CT SCAN",
    "VISITNUM": 2,
    "VISIT": "WEEK 9",
    "TRDTC": "2021-07-08",
    "TRDY": 63
  },
  {
    "STUDYID": "KN868",
    "DOMAIN": "TR",
    "USUBJID": "KN868-0001-0010",
    "TRSEQ": 5,
    "TRLNKID": "T1",
    "TRTESTCD": "LDIAM",
    "TRTEST": "Longest Diameter",
    "TRORRES": 75.8,
    "TRORRESU": "mm",
    "TRSTRESN": 75.8,
    "TRSTRESU": "mm",
    "TREVAL": "INVESTIGATOR",
    "TRMETHOD": "CT SCAN",
    "VISITNUM": 3,
    "VISIT": "WEEK 18",
    "TRDTC": "2021-09-10",
    "TRDY": 126
  },
  {
    "STUDYID": "KN868",
    "DOMAIN": "TR",
    "USUBJID": "KN868-0001-0010",
    "TRSEQ": 6,
    "TRLNKID": "T2",
    "TRTESTCD": "LDIAM",
    "TRTEST": "Longest Diameter",
    "TRORRES": 60.9,
    "TRORRESU": "mm",
    "TRSTRESN": 60.9,
    "TRSTRESU": "mm",
    "TREVAL": "INVESTIGATOR",
    "TRMETHOD": "CT SCAN",
    "VISITNUM": 3,
    "VISIT": "WEEK 18",
    "TRDTC": "2021-09-11",
    "TRDY": 126
  },
  {
    "STUDYID": "KN868",
    "DOMAIN": "TR",
    "USUBJID": "KN868-0001-0010",
    "TRSEQ": 7,
    "TRLNKID": "T1",
    "TRTESTCD": "LDIAM",
    "TRTEST": "Longest Diameter",
    "TRORRES": 75.4,
    "TRORRESU": "mm",
    "TRSTRESN": 75.4,
    "TRSTRESU": "mm",
    "TREVAL": "INVESTIGATOR",
    "TRMETHOD": "CT SCAN",
    "VISITNUM": 4,
    "VISIT": "WEEK 27",
    "TRDTC": "2021-11-11",
    "TRDY": 189
  },
  {
    "STUDYID": "KN868",
    "DOMAIN": "TR",
    "USUBJID": "KN868-0001-0010",
    "TRSEQ": 8,
    "TRLNKID": "T2",
    "TRTESTCD": "LDIAM",
    "TRTEST": "Longest Diameter",
    "TRORRES": 52.8,
    "TRORRESU": "mm",
    "TRSTRESN": 52.8,
    "TRSTRESU": "mm",
    "TREVAL": "INVESTIGATOR",
    "TRMETHOD": "CT SCAN",
    "VISITNUM": 4,
    "VISIT": "WEEK 27",
    "TRDTC": "2021-11-10",
    "TRDY": 189
  },
  {
    "STUDYID": "KN868",
    "DOMAIN": "TR",
    "USUBJID": "KN868-0001-0010",
    "TRSEQ": 9,
    "TRLNKID": "T1",
    "TRTESTCD": "LDIAM",
    "TRTEST": "Longest Diameter",
    "TRORRES": 78.5,
    "TRORRESU": "mm",
    "TRSTRESN": 78.5,
    "TRSTRESU": "mm",
    "TREVAL": "INVESTIGATOR",
    "TRMETHOD": "CT SCAN",
    "VISITNUM": 5,
    "VISIT": "WEEK 36",
    "TRDTC": "2022-01-16",
    "TRDY": 252
  },
  {
    "STUDYID": "KN868",
    "DOMAIN": "TR",
    "USUBJID": "KN868-0001-0010",
    "TRSEQ": 10,
    "TRLNKID": "T2",
    "TRTESTCD": "LDIAM",
    "TRTEST": "Longest Diameter",
    "TRORRES": 69,
    "TRORRESU": "mm",
    "TRSTRESN": 69,
    "TRSTRESU": "mm",
    "TREVAL": "INVESTIGATOR",
    "TRMETHOD": "CT SCAN",
    "VISITNUM": 5,
    "VISIT": "WEEK 36",
    "TRDTC": "2022-01-14",
    "TRDY": 252
  },
  {
    "STUDYID": "KN868",
    "DOMAIN": "TR",
    "USUBJID": "KN868-0001-0010",
    "TRSEQ": 11,
    "TRLNKID": "T1",
    "TRTESTCD": "LDIAM",
    "TRTEST": "Longest Diameter",
    "TRORRES": 79.6,
    "TRORRESU": "mm",
    "TRSTRESN": 79.6,
    "TRSTRESU": "mm",
    "TREVAL": "INVESTIGATOR",
    "TRMETHOD": "CT SCAN",
    "VISITNUM": 6,
    "VISIT": "WEEK 45",
    "TRDTC": "2022-03-21",
    "TRDY": 315
  },
  {
    "STUDYID": "KN868",
    "DOMAIN": "TR",
    "USUBJID": "KN868-0001-0010",
    "TRSEQ": 12,
    "TRLNKID": "T2",
    "TRTESTCD": "LDIAM",
    "TRTEST": "Longest Diameter",
    "TRORRES": 52.5,
    "TRORRESU": "mm",
    "TRSTRESN": 52.5,
    "TRSTRESU": "mm",
    "TREVAL": "INVESTIGATOR",
    "TRMETHOD": "CT SCAN",
    "VISITNUM": 6,
    "VISIT": "WEEK 45",
    "TRDTC": "2022-03-20",
    "TRDY": 315
  },
  {
    "STUDYID": "KN868",
    "DOMAIN": "TR",
    "USUBJID": "KN868-0001-0010",
    "TRSEQ": 13,
    "TRLNKID": "T1",
    "TRTESTCD": "LDIAM",
    "TRTEST": "Longest Diameter",
    "TRORRES": 79.8,
    "TRORRESU": "mm",
    "TRSTRESN": 79.8,
    "TRSTRESU": "mm",
    "TREVAL": "INVESTIGATOR",
    "TRMETHOD": "CT SCAN",
    "VISITNUM": 7,
    "VISIT": "WEEK 54",
    "TRDTC": "2022-05-24",
    "TRDY": 378
  },
  {
    "STUDYID": "KN868",
    "DOMAIN": "TR",
    "USUBJID": "KN868-0001-0010",
    "TRSEQ": 14,
    "TRLNKID": "T2",
    "TRTESTCD": "LDIAM",
    "TRTEST": "Longest Diameter",
    "TRORRES": 63.6,
    "TRORRESU": "mm",
    "TRSTRESN": 63.6,
    "TRSTRESU": "mm",
    "TREVAL": "INVESTIGATOR",
    "TRMETHOD": "CT SCAN",
    "VISITNUM": 7,
    "VISIT": "WEEK 54",
    "TRDTC": "2022-05-21",
    "TRDY": 378
  },
  {
    "STUDYID": "KN868",
    "DOMAIN": "TR",
    "USUBJID": "KN868-0001-0010",
    "TRSEQ": 15,
    "TRLNKID": "T1",
    "TRTESTCD": "LDIAM",
    "TRTEST": "Longest Diameter",
    "TRORRES": 66.2,
    "TRORRESU": "mm",
    "TRSTRESN": 66.2,
    "TRSTRESU": "mm",
    "TREVAL": "INVESTIGATOR",
    "TRMETHOD": "CT SCAN",
    "VISITNUM": 8,
    "VISIT": "WEEK 63",
    "TRDTC": "2022-07-21",
    "TRDY": 441
  },
  {
    "STUDYID": "KN868",
    "DOMAIN": "TR",
    "USUBJID": "KN868-0001-0010",
    "TRSEQ": 16,
    "TRLNKID": "T2",
    "TRTESTCD": "LDIAM",
    "TRTEST": "Longest Diameter",
    "TRORRES": 54.8,
    "TRORRESU": "mm",
    "TRSTRESN": 54.8,
    "TRSTRESU": "mm",
    "TREVAL": "INVESTIGATOR",
    "TRMETHOD": "CT SCAN",
    "VISITNUM": 8,
    "VISIT": "WEEK 63",
    "TRDTC": "2022-07-25",
    "TRDY": 441
  },
  {
    "STUDYID": "KN868",
    "DOMAIN": "TR",
    "USUBJID": "KN868-0001-0010",
    "TRSEQ": 17,
    "TRLNKID": "T1",
    "TRTESTCD": "LDIAM",
    "TRTEST": "Longest Diameter",
    "TRORRES": 71.3,
    "TRORRESU": "mm",
    "TRSTRESN": 71.3,
    "TRSTRESU": "mm",
    "TREVAL": "INVESTIGATOR",
    "TRMETHOD": "CT SCAN",
    "VISITNUM": 9,
    "VISIT": "WEEK 72",
    "TRDTC": "2022-09-27",
    "TRDY": 504
  },
  {
    "STUDYID": "KN868",
    "DOMAIN": "TR",
    "USUBJID": "KN868-0001-0010",
    "TRSEQ": 18,
    "TRLNKID": "T2",
    "TRTESTCD": "LDIAM",
    "TRTEST": "Longest Diameter",
    "TRORRES": 58.5,
    "TRORRESU": "mm",
    "TRSTRESN": 58.5,
    "TRSTRESU": "mm",
    "TREVAL": "INVESTIGATOR",
    "TRMETHOD": "CT SCAN",
    "VISITNUM": 9,
    "VISIT": "WEEK 72",
    "TRDTC": "2022-09-26",
    "TRDY": 504
  },
  {
    "STUDYID": "KN868",
    "DOMAIN": "TR",
    "USUBJID": "KN868-0001-0011",
    "TRSEQ": 1,
    "TRLNKID": "T1",
    "TRTESTCD": "LDIAM",
    "TRTEST": "Longest Diameter",
    "TRORRES": 77.9,
    "TRORRESU": "mm",
    "TRSTRESN": 77.9,
    "TRSTRESU": "mm",
    "TREVAL": "INVESTIGATOR",
    "TRMETHOD": "CT SCAN",
    "VISITNUM": 1,
    "VISIT": "SCREENING",
    "TRDTC": "2021-04-30",
    "TRDY": -7
  },
  {
    "STUDYID": "KN868",
    "DOMAIN": "TR",
    "USUBJID": "KN868-0001-0011",
    "TRSEQ": 2,
    "TRLNKID": "T2",
    "TRTESTCD": "LDIAM",
    "TRTEST": "Longest Diameter",
    "TRORRES": 45,
    "TRORRESU": "mm",
    "TRSTRESN": 45,
    "TRSTRESU": "mm",
    "TREVAL": "INVESTIGATOR",
    "TRMETHOD": "CT SCAN",
    "VISITNUM": 1,
    "VISIT": "SCREENING",
    "TRDTC": "2021-05-02",
    "TRDY": -7
  },
  {
    "STUDYID": "KN868",
    "DOMAIN": "TR",
    "USUBJID": "KN868-0001-0011",
    "TRSEQ": 3,
    "TRLNKID": "T1",
    "TRTESTCD": "LDIAM",
    "TRTEST": "Longest Diameter",
    "TRORRES": 48,
    "TRORRESU": "mm",
    "TRSTRESN": 48,
    "TRSTRESU": "mm",
    "TREVAL": "INVESTIGATOR",
    "TRMETHOD": "CT SCAN",
    "VISITNUM": 2,
    "VISIT": "WEEK 9",
    "TRDTC": "2021-07-11",
    "TRDY": 63
  },
  {
    "STUDYID": "KN868",
    "DOMAIN": "TR",
    "USUBJID": "KN868-0001-0011",
    "TRSEQ": 4,
    "TRLNKID": "T2",
    "TRTESTCD": "LDIAM",
    "TRTEST": "Longest Diameter",
    "TRORRES": 28.2,
    "TRORRESU": "mm",
    "TRSTRESN": 28.2,
    "TRSTRESU": "mm",
    "TREVAL": "INVESTIGATOR",
    "TRMETHOD": "CT SCAN",
    "VISITNUM": 2,
    "VISIT": "WEEK 9",
    "TRDTC": "2021-07-10",
    "TRDY": 63
  },
  {
    "STUDYID": "KN868",
    "DOMAIN": "TR",
    "USUBJID": "KN868-0001-0011",
    "TRSEQ": 5,
    "TRLNKID": "T1",
    "TRTESTCD": "LDIAM",
    "TRTEST": "Longest Diameter",
    "TRORRES": 50.4,
    "TRORRESU": "mm",
    "TRSTRESN": 50.4,
    "TRSTRESU": "mm",
    "TREVAL": "INVESTIGATOR",
    "TRMETHOD": "CT SCAN",
    "VISITNUM": 3,
    "VISIT": "WEEK 18",
    "TRDTC": "2021-09-08",
    "TRDY": 126
  },
  {
    "STUDYID": "KN868",
    "DOMAIN": "TR",
    "USUBJID": "KN868-0001-0011",
    "TRSEQ": 6,
    "TRLNKID": "T2",
    "TRTESTCD": "LDIAM",
    "TRTEST": "Longest Diameter",
    "TRORRES": 24.4,
    "TRORRESU": "mm",
    "TRSTRESN": 24.4,
    "TRSTRESU": "mm",
    "TREVAL": "INVESTIGATOR",
    "TRMETHOD": "CT SCAN",
    "VISITNUM": 3,
    "VISIT": "WEEK 18",
    "TRDTC": "2021-09-11",
    "TRDY": 126
  },
  {
    "STUDYID": "KN868",
    "DOMAIN": "TR",
    "USUBJID": "KN868-0001-0011",
    "TRSEQ": 7,
    "TRLNKID": "T1",
    "TRTESTCD": "LDIAM",
    "TRTEST": "Longest Diameter",
    "TRORRES": 47.7,
    "TRORRESU": "mm",
    "TRSTRESN": 47.7,
    "TRSTRESU": "mm",
    "TREVAL": "INVESTIGATOR",
    "TRMETHOD": "CT SCAN",
    "VISITNUM": 4,
    "VISIT": "WEEK 27",
    "TRDTC": "2021-11-11",
    "TRDY": 189
  },
  {
    "STUDYID": "KN868",
    "DOMAIN": "TR",
    "USUBJID": "KN868-0001-0011",
    "TRSEQ": 8,
    "TRLNKID": "T2",
    "TRTESTCD": "LDIAM",
    "TRTEST": "Longest Diameter",
    "TRORRES": 26.2,
    "TRORRESU": "mm",
    "TRSTRESN": 26.2,
    "TRSTRESU": "mm",
    "TREVAL": "INVESTIGATOR",
    "TRMETHOD": "CT SCAN",
    "VISITNUM": 4,
    "VISIT": "WEEK 27",
    "TRDTC": "2021-11-16",
    "TRDY": 189
  },
  {
    "STUDYID": "KN868",
    "DOMAIN": "TR",
    "USUBJID": "KN868-0001-0011",
    "TRSEQ": 9,
    "TRLNKID": "T1",
    "TRTESTCD": "LDIAM",
    "TRTEST": "Longest Diameter",
    "TRORRES": 39.2,
    "TRORRESU": "mm",
    "TRSTRESN": 39.2,
    "TRSTRESU": "mm",
    "TREVAL": "INVESTIGATOR",
    "TRMETHOD": "CT SCAN",
    "VISITNUM": 5,
    "VISIT": "WEEK 36",
    "TRDTC": "2022-01-17",
    "TRDY": 252
  },
  {
    "STUDYID": "KN868",
    "DOMAIN": "TR",
    "USUBJID": "KN868-0001-0011",
    "TRSEQ": 10,
    "TRLNKID": "T2",
    "TRTESTCD": "LDIAM",
    "TRTEST": "Longest Diameter",
    "TRORRES": 26.9,
    "TRORRESU": "mm",
    "TRSTRESN": 26.9,
    "TRSTRESU": "mm",
    "TREVAL": "INVESTIGATOR",
    "TRMETHOD": "CT SCAN",
    "VISITNUM": 5,
    "VISIT": "WEEK 36",
    "TRDTC": "2022-01-17",
    "TRDY": 252
  },
  {
    "STUDYID": "KN868",
    "DOMAIN": "TR",
    "USUBJID": "KN868-0001-0011",
    "TRSEQ": 11,
    "TRLNKID": "T1",
    "TRTESTCD": "LDIAM",
    "TRTEST": "Longest Diameter",
    "TRORRES": 44.6,
    "TRORRESU": "mm",
    "TRSTRESN": 44.6,
    "TRSTRESU": "mm",
    "TREVAL": "INVESTIGATOR",
    "TRMETHOD": "CT SCAN",
    "VISITNUM": 6,
    "VISIT": "WEEK 45",
    "TRDTC": "2022-03-18",
    "TRDY": 315
  },
  {
    "STUDYID": "KN868",
    "DOMAIN": "TR",
    "USUBJID": "KN868-0001-0011",
    "TRSEQ": 12,
    "TRLNKID": "T2",
    "TRTESTCD": "LDIAM",
    "TRTEST": "Longest Diameter",
    "TRORRES": 24.5,
    "TRORRESU": "mm",
    "TRSTRESN": 24.5,
    "TRSTRESU": "mm",
    "TREVAL": "INVESTIGATOR",
    "TRMETHOD": "CT SCAN",
    "VISITNUM": 6,
    "VISIT": "WEEK 45",
    "TRDTC": "2022-03-17",
    "TRDY": 315
  },
  {
    "STUDYID": "KN868",
    "DOMAIN": "TR",
    "USUBJID": "KN868-0001-0011",
    "TRSEQ": 13,
    "TRLNKID": "T1",
    "TRTESTCD": "LDIAM",
    "TRTEST": "Longest Diameter",
    "TRORRES": 43.1,
    "TRORRESU": "mm",
    "TRSTRESN": 43.1,
    "TRSTRESU": "mm",
    "TREVAL": "INVESTIGATOR",
    "TRMETHOD": "CT SCAN",
    "VISITNUM": 7,
    "VISIT": "WEEK 54",
    "TRDTC": "2022-05-24",
    "TRDY": 378
  },
  {
    "STUDYID": "KN868",
    "DOMAIN": "TR",
    "USUBJID": "KN868-0001-0011",
    "TRSEQ": 14,
    "TRLNKID": "T2",
    "TRTESTCD": "LDIAM",
    "TRTEST": "Longest Diameter",
    "TRORRES": 23.9,
    "TRORRESU": "mm",
    "TRSTRESN": 23.9,
    "TRSTRESU": "mm",
    "TREVAL": "INVESTIGATOR",
    "TRMETHOD": "CT SCAN",
    "VISITNUM": 7,
    "VISIT": "WEEK 54",
    "TRDTC": "2022-05-22",
    "TRDY": 378
  },
  {
    "STUDYID": "KN868",
    "DOMAIN": "TR",
    "USUBJID": "KN868-0001-0011",
    "TRSEQ": 15,
    "TRLNKID": "T1",
    "TRTESTCD": "LDIAM",
    "TRTEST": "Longest Diameter",
    "TRORRES": 38.4,
    "TRORRESU": "mm",
    "TRSTRESN": 38.4,
    "TRSTRESU": "mm",
    "TREVAL": "INVESTIGATOR",
    "TRMETHOD": "CT SCAN",
    "VISITNUM": 8,
    "VISIT": "WEEK 63",
    "TRDTC": "2022-07-21",
    "TRDY": 441
  },
  {
    "STUDYID": "KN868",
    "DOMAIN": "TR",
    "USUBJID": "KN868-0001-0011",
    "TRSEQ": 16,
    "TRLNKID": "T2",
    "TRTESTCD": "LDIAM",
    "TRTEST": "Longest Diameter",
    "TRORRES": 25.2,
    "TRORRESU": "mm",
    "TRSTRESN": 25.2,
    "TRSTRESU": "mm",
    "TREVAL": "INVESTIGATOR",
    "TRMETHOD": "CT SCAN",
    "VISITNUM": 8,
    "VISIT": "WEEK 63",
    "TRDTC": "2022-07-26",
    "TRDY": 441
  },
  {
    "STUDYID": "KN868",
    "DOMAIN": "TR",
    "USUBJID": "KN868-0001-0011",
    "TRSEQ": 17,
    "TRLNKID": "T1",
    "TRTESTCD": "LDIAM",
    "TRTEST": "Longest Diameter",
    "TRORRES": 39.5,
    "TRORRESU": "mm",
    "TRSTRESN": 39.5,
    "TRSTRESU": "mm",
    "TREVAL": "INVESTIGATOR",
    "TRMETHOD": "CT SCAN",
    "VISITNUM": 9,
    "VISIT": "WEEK 72",
    "TRDTC": "2022-09-21",
    "TRDY": 504
  },
  {
    "STUDYID": "KN868",
    "DOMAIN": "TR",
    "USUBJID": "KN868-0001-0011",
    "TRSEQ": 18,
    "TRLNKID": "T2",
    "TRTESTCD": "LDIAM",
    "TRTEST": "Longest Diameter",
    "TRORRES": 22.8,
    "TRORRESU": "mm",
    "TRSTRESN": 22.8,
    "TRSTRESU": "mm",
    "TREVAL": "INVESTIGATOR",
    "TRMETHOD": "CT SCAN",
    "VISITNUM": 9,
    "VISIT": "WEEK 72",
    "TRDTC": "2022-09-22",
    "TRDY": 504
  },
  {
    "STUDYID": "KN868",
    "DOMAIN": "TR",
    "USUBJID": "KN868-0001-0012",
    "TRSEQ": 1,
    "TRLNKID": "T1",
    "TRTESTCD": "LDIAM",
    "TRTEST": "Longest Diameter",
    "TRORRES": 22.6,
    "TRORRESU": "mm",
    "TRSTRESN": 22.6,
    "TRSTRESU": "mm",
    "TREVAL": "INVESTIGATOR",
    "TRMETHOD": "CT SCAN",
    "VISITNUM": 1,
    "VISIT": "SCREENING",
    "TRDTC": "2021-11-20",
    "TRDY": -7
  },
  {
    "STUDYID": "KN868",
    "DOMAIN": "TR",
    "USUBJID": "KN868-0001-0012",
    "TRSEQ": 2,
    "TRLNKID": "T2",
    "TRTESTCD": "LDIAM",
    "TRTEST": "Longest Diameter",
    "TRORRES": 18.3,
    "TRORRESU": "mm",
    "TRSTRESN": 18.3,
    "TRSTRESU": "mm",
    "TREVAL": "INVESTIGATOR",
    "TRMETHOD": "CT SCAN",
    "VISITNUM": 1,
    "VISIT": "SCREENING",
    "TRDTC": "2021-11-17",
    "TRDY": -7
  },
  {
    "STUDYID": "KN868",
    "DOMAIN": "TR",
    "USUBJID": "KN868-0001-0012",
    "TRSEQ": 3,
    "TRLNKID": "T1",
    "TRTESTCD": "LDIAM",
    "TRTEST": "Longest Diameter",
    "TRORRES": 13.6,
    "TRORRESU": "mm",
    "TRSTRESN": 13.6,
    "TRSTRESU": "mm",
    "TREVAL": "INVESTIGATOR",
    "TRMETHOD": "CT SCAN",
    "VISITNUM": 2,
    "VISIT": "WEEK 9",
    "TRDTC": "2022-01-27",
    "TRDY": 63
  },
  {
    "STUDYID": "KN868",
    "DOMAIN": "TR",
    "USUBJID": "KN868-0001-0012",
    "TRSEQ": 4,
    "TRLNKID": "T2",
    "TRTESTCD": "LDIAM",
    "TRTEST": "Longest Diameter",
    "TRORRES": 10.9,
    "TRORRESU": "mm",
    "TRSTRESN": 10.9,
    "TRSTRESU": "mm",
    "TREVAL": "INVESTIGATOR",
    "TRMETHOD": "CT SCAN",
    "VISITNUM": 2,
    "VISIT": "WEEK 9",
    "TRDTC": "2022-02-01",
    "TRDY": 63
  },
  {
    "STUDYID": "KN868",
    "DOMAIN": "TR",
    "USUBJID": "KN868-0001-0012",
    "TRSEQ": 5,
    "TRLNKID": "T1",
    "TRTESTCD": "LDIAM",
    "TRTEST": "Longest Diameter",
    "TRORRES": 12.4,
    "TRORRESU": "mm",
    "TRSTRESN": 12.4,
    "TRSTRESU": "mm",
    "TREVAL": "INVESTIGATOR",
    "TRMETHOD": "CT SCAN",
    "VISITNUM": 3,
    "VISIT": "WEEK 18",
    "TRDTC": "2022-04-01",
    "TRDY": 126
  },
  {
    "STUDYID": "KN868",
    "DOMAIN": "TR",
    "USUBJID": "KN868-0001-0012",
    "TRSEQ": 6,
    "TRLNKID": "T2",
    "TRTESTCD": "LDIAM",
    "TRTEST": "Longest Diameter",
    "TRORRES": 11.4,
    "TRORRESU": "mm",
    "TRSTRESN": 11.4,
    "TRSTRESU": "mm",
    "TREVAL": "INVESTIGATOR",
    "TRMETHOD": "CT SCAN",
    "VISITNUM": 3,
    "VISIT": "WEEK 18",
    "TRDTC": "2022-04-03",
    "TRDY": 126
  },
  {
    "STUDYID": "KN868",
    "DOMAIN": "TR",
    "USUBJID": "KN868-0001-0012",
    "TRSEQ": 7,
    "TRLNKID": "T1",
    "TRTESTCD": "LDIAM",
    "TRTEST": "Longest Diameter",
    "TRORRES": 13.8,
    "TRORRESU": "mm",
    "TRSTRESN": 13.8,
    "TRSTRESU": "mm",
    "TREVAL": "INVESTIGATOR",
    "TRMETHOD": "CT SCAN",
    "VISITNUM": 4,
    "VISIT": "WEEK 27",
    "TRDTC": "2022-06-06",
    "TRDY": 189
  },
  {
    "STUDYID": "KN868",
    "DOMAIN": "TR",
    "USUBJID": "KN868-0001-0012",
    "TRSEQ": 8,
    "TRLNKID": "T2",
    "TRTESTCD": "LDIAM",
    "TRTEST": "Longest Diameter",
    "TRORRES": 10.5,
    "TRORRESU": "mm",
    "TRSTRESN": 10.5,
    "TRSTRESU": "mm",
    "TREVAL": "INVESTIGATOR",
    "TRMETHOD": "CT SCAN",
    "VISITNUM": 4,
    "VISIT": "WEEK 27",
    "TRDTC": "2022-06-04",
    "TRDY": 189
  },
  {
    "STUDYID": "KN868",
    "DOMAIN": "TR",
    "USUBJID": "KN868-0001-0012",
    "TRSEQ": 9,
    "TRLNKID": "T1",
    "TRTESTCD": "LDIAM",
    "TRTEST": "Longest Diameter",
    "TRORRES": 12.2,
    "TRORRESU": "mm",
    "TRSTRESN": 12.2,
    "TRSTRESU": "mm",
    "TREVAL": "INVESTIGATOR",
    "TRMETHOD": "CT SCAN",
    "VISITNUM": 5,
    "VISIT": "WEEK 36",
    "TRDTC": "2022-08-03",
    "TRDY": 252
  },
  {
    "STUDYID": "KN868",
    "DOMAIN": "TR",
    "USUBJID": "KN868-0001-0012",
    "TRSEQ": 10,
    "TRLNKID": "T2",
    "TRTESTCD": "LDIAM",
    "TRTEST": "Longest Diameter",
    "TRORRES": 9.6,
    "TRORRESU": "mm",
    "TRSTRESN": 9.6,
    "TRSTRESU": "mm",
    "TREVAL": "INVESTIGATOR",
    "TRMETHOD": "CT SCAN",
    "VISITNUM": 5,
    "VISIT": "WEEK 36",
    "TRDTC": "2022-08-03",
    "TRDY": 252
  },
  {
    "STUDYID": "KN868",
    "DOMAIN": "TR",
    "USUBJID": "KN868-0001-0012",
    "TRSEQ": 11,
    "TRLNKID": "T1",
    "TRTESTCD": "LDIAM",
    "TRTEST": "Longest Diameter",
    "TRORRES": 12.2,
    "TRORRESU": "mm",
    "TRSTRESN": 12.2,
    "TRSTRESU": "mm",
    "TREVAL": "INVESTIGATOR",
    "TRMETHOD": "CT SCAN",
    "VISITNUM": 6,
    "VISIT": "WEEK 45",
    "TRDTC": "2022-10-09",
    "TRDY": 315
  },
  {
    "STUDYID": "KN868",
    "DOMAIN": "TR",
    "USUBJID": "KN868-0001-0012",
    "TRSEQ": 12,
    "TRLNKID": "T2",
    "TRTESTCD": "LDIAM",
    "TRTEST": "Longest Diameter",
    "TRORRES": 9.3,
    "TRORRESU": "mm",
    "TRSTRESN": 9.3,
    "TRSTRESU": "mm",
    "TREVAL": "INVESTIGATOR",
    "TRMETHOD": "CT SCAN",
    "VISITNUM": 6,
    "VISIT": "WEEK 45",
    "TRDTC": "2022-10-11",
    "TRDY": 315
  },
  {
    "STUDYID": "KN868",
    "DOMAIN": "TR",
    "USUBJID": "KN868-0001-0012",
    "TRSEQ": 13,
    "TRLNKID": "T1",
    "TRTESTCD": "LDIAM",
    "TRTEST": "Longest Diameter",
    "TRORRES": 11.5,
    "TRORRESU": "mm",
    "TRSTRESN": 11.5,
    "TRSTRESU": "mm",
    "TREVAL": "INVESTIGATOR",
    "TRMETHOD": "CT SCAN",
    "VISITNUM": 7,
    "VISIT": "WEEK 54",
    "TRDTC": "2022-12-10",
    "TRDY": 378
  },
  {
    "STUDYID": "KN868",
    "DOMAIN": "TR",
    "USUBJID": "KN868-0001-0012",
    "TRSEQ": 14,
    "TRLNKID": "T2",
    "TRTESTCD": "LDIAM",
    "TRTEST": "Longest Diameter",
    "TRORRES": 9.5,
    "TRORRESU": "mm",
    "TRSTRESN": 9.5,
    "TRSTRESU": "mm",
    "TREVAL": "INVESTIGATOR",
    "TRMETHOD": "CT SCAN",
    "VISITNUM": 7,
    "VISIT": "WEEK 54",
    "TRDTC": "2022-12-12",
    "TRDY": 378
  },
  {
    "STUDYID": "KN868",
    "DOMAIN": "TR",
    "USUBJID": "KN868-0001-0012",
    "TRSEQ": 15,
    "TRLNKID": "T1",
    "TRTESTCD": "LDIAM",
    "TRTEST": "Longest Diameter",
    "TRORRES": 11,
    "TRORRESU": "mm",
    "TRSTRESN": 11,
    "TRSTRESU": "mm",
    "TREVAL": "INVESTIGATOR",
    "TRMETHOD": "CT SCAN",
    "VISITNUM": 8,
    "VISIT": "WEEK 63",
    "TRDTC": "2023-02-13",
    "TRDY": 441
  },
  {
    "STUDYID": "KN868",
    "DOMAIN": "TR",
    "USUBJID": "KN868-0001-0012",
    "TRSEQ": 16,
    "TRLNKID": "T2",
    "TRTESTCD": "LDIAM",
    "TRTEST": "Longest Diameter",
    "TRORRES": 9.5,
    "TRORRESU": "mm",
    "TRSTRESN": 9.5,
    "TRSTRESU": "mm",
    "TREVAL": "INVESTIGATOR",
    "TRMETHOD": "CT SCAN",
    "VISITNUM": 8,
    "VISIT": "WEEK 63",
    "TRDTC": "2023-02-13",
    "TRDY": 441
  },
  {
    "STUDYID": "KN868",
    "DOMAIN": "TR",
    "USUBJID": "KN868-0001-0012",
    "TRSEQ": 17,
    "TRLNKID": "T1",
    "TRTESTCD": "LDIAM",
    "TRTEST": "Longest Diameter",
    "TRORRES": 11.1,
    "TRORRESU": "mm",
    "TRSTRESN": 11.1,
    "TRSTRESU": "mm",
    "TREVAL": "INVESTIGATOR",
    "TRMETHOD": "CT SCAN",
    "VISITNUM": 9,
    "VISIT": "WEEK 72",
    "TRDTC": "2023-04-15",
    "TRDY": 504
  },
  {
    "STUDYID": "KN868",
    "DOMAIN": "TR",
    "USUBJID": "KN868-0001-0012",
    "TRSEQ": 18,
    "TRLNKID": "T2",
    "TRTESTCD": "LDIAM",
    "TRTEST": "Longest Diameter",
    "TRORRES": 10.2,
    "TRORRESU": "mm",
    "TRSTRESN": 10.2,
    "TRSTRESU": "mm",
    "TREVAL": "INVESTIGATOR",
    "TRMETHOD": "CT SCAN",
    "VISITNUM": 9,
    "VISIT": "WEEK 72",
    "TRDTC": "2023-04-14",
    "TRDY": 504
  },
  {
    "STUDYID": "KN868",
    "DOMAIN": "TR",
    "USUBJID": "KN868-0001-0013",
    "TRSEQ": 1,
    "TRLNKID": "T1",
    "TRTESTCD": "LDIAM",
    "TRTEST": "Longest Diameter",
    "TRORRES": 40.7,
    "TRORRESU": "mm",
    "TRSTRESN": 40.7,
    "TRSTRESU": "mm",
    "TREVAL": "INVESTIGATOR",
    "TRMETHOD": "CT SCAN",
    "VISITNUM": 1,
    "VISIT": "SCREENING",
    "TRDTC": "2021-01-08",
    "TRDY": -7
  },
  {
    "STUDYID": "KN868",
    "DOMAIN": "TR",
    "USUBJID": "KN868-0001-0013",
    "TRSEQ": 2,
    "TRLNKID": "T2",
    "TRTESTCD": "LDIAM",
    "TRTEST": "Longest Diameter",
    "TRORRES": 40.9,
    "TRORRESU": "mm",
    "TRSTRESN": 40.9,
    "TRSTRESU": "mm",
    "TREVAL": "INVESTIGATOR",
    "TRMETHOD": "CT SCAN",
    "VISITNUM": 1,
    "VISIT": "SCREENING",
    "TRDTC": "2021-01-07",
    "TRDY": -7
  },
  {
    "STUDYID": "KN868",
    "DOMAIN": "TR",
    "USUBJID": "KN868-0001-0013",
    "TRSEQ": 3,
    "TRLNKID": "T1",
    "TRTESTCD": "LDIAM",
    "TRTEST": "Longest Diameter",
    "TRORRES": 27,
    "TRORRESU": "mm",
    "TRSTRESN": 27,
    "TRSTRESU": "mm",
    "TREVAL": "INVESTIGATOR",
    "TRMETHOD": "CT SCAN",
    "VISITNUM": 2,
    "VISIT": "WEEK 9",
    "TRDTC": "2021-03-16",
    "TRDY": 63
  },
  {
    "STUDYID": "KN868",
    "DOMAIN": "TR",
    "USUBJID": "KN868-0001-0013",
    "TRSEQ": 4,
    "TRLNKID": "T2",
    "TRTESTCD": "LDIAM",
    "TRTEST": "Longest Diameter",
    "TRORRES": 27.3,
    "TRORRESU": "mm",
    "TRSTRESN": 27.3,
    "TRSTRESU": "mm",
    "TREVAL": "INVESTIGATOR",
    "TRMETHOD": "CT SCAN",
    "VISITNUM": 2,
    "VISIT": "WEEK 9",
    "TRDTC": "2021-03-18",
    "TRDY": 63
  },
  {
    "STUDYID": "KN868",
    "DOMAIN": "TR",
    "USUBJID": "KN868-0001-0013",
    "TRSEQ": 5,
    "TRLNKID": "T1",
    "TRTESTCD": "LDIAM",
    "TRTEST": "Longest Diameter",
    "TRORRES": 25.6,
    "TRORRESU": "mm",
    "TRSTRESN": 25.6,
    "TRSTRESU": "mm",
    "TREVAL": "INVESTIGATOR",
    "TRMETHOD": "CT SCAN",
    "VISITNUM": 3,
    "VISIT": "WEEK 18",
    "TRDTC": "2021-05-20",
    "TRDY": 126
  },
  {
    "STUDYID": "KN868",
    "DOMAIN": "TR",
    "USUBJID": "KN868-0001-0013",
    "TRSEQ": 6,
    "TRLNKID": "T2",
    "TRTESTCD": "LDIAM",
    "TRTEST": "Longest Diameter",
    "TRORRES": 23.1,
    "TRORRESU": "mm",
    "TRSTRESN": 23.1,
    "TRSTRESU": "mm",
    "TREVAL": "INVESTIGATOR",
    "TRMETHOD": "CT SCAN",
    "VISITNUM": 3,
    "VISIT": "WEEK 18",
    "TRDTC": "2021-05-19",
    "TRDY": 126
  },
  {
    "STUDYID": "KN868",
    "DOMAIN": "TR",
    "USUBJID": "KN868-0001-0013",
    "TRSEQ": 7,
    "TRLNKID": "T1",
    "TRTESTCD": "LDIAM",
    "TRTEST": "Longest Diameter",
    "TRORRES": 25.5,
    "TRORRESU": "mm",
    "TRSTRESN": 25.5,
    "TRSTRESU": "mm",
    "TREVAL": "INVESTIGATOR",
    "TRMETHOD": "CT SCAN",
    "VISITNUM": 4,
    "VISIT": "WEEK 27",
    "TRDTC": "2021-07-23",
    "TRDY": 189
  },
  {
    "STUDYID": "KN868",
    "DOMAIN": "TR",
    "USUBJID": "KN868-0001-0013",
    "TRSEQ": 8,
    "TRLNKID": "T2",
    "TRTESTCD": "LDIAM",
    "TRTEST": "Longest Diameter",
    "TRORRES": 21.5,
    "TRORRESU": "mm",
    "TRSTRESN": 21.5,
    "TRSTRESU": "mm",
    "TREVAL": "INVESTIGATOR",
    "TRMETHOD": "CT SCAN",
    "VISITNUM": 4,
    "VISIT": "WEEK 27",
    "TRDTC": "2021-07-24",
    "TRDY": 189
  },
  {
    "STUDYID": "KN868",
    "DOMAIN": "TR",
    "USUBJID": "KN868-0001-0013",
    "TRSEQ": 9,
    "TRLNKID": "T1",
    "TRTESTCD": "LDIAM",
    "TRTEST": "Longest Diameter",
    "TRORRES": 22.7,
    "TRORRESU": "mm",
    "TRSTRESN": 22.7,
    "TRSTRESU": "mm",
    "TREVAL": "INVESTIGATOR",
    "TRMETHOD": "CT SCAN",
    "VISITNUM": 5,
    "VISIT": "WEEK 36",
    "TRDTC": "2021-09-25",
    "TRDY": 252
  },
  {
    "STUDYID": "KN868",
    "DOMAIN": "TR",
    "USUBJID": "KN868-0001-0013",
    "TRSEQ": 10,
    "TRLNKID": "T2",
    "TRTESTCD": "LDIAM",
    "TRTEST": "Longest Diameter",
    "TRORRES": 22,
    "TRORRESU": "mm",
    "TRSTRESN": 22,
    "TRSTRESU": "mm",
    "TREVAL": "INVESTIGATOR",
    "TRMETHOD": "CT SCAN",
    "VISITNUM": 5,
    "VISIT": "WEEK 36",
    "TRDTC": "2021-09-26",
    "TRDY": 252
  },
  {
    "STUDYID": "KN868",
    "DOMAIN": "TR",
    "USUBJID": "KN868-0001-0013",
    "TRSEQ": 11,
    "TRLNKID": "T1",
    "TRTESTCD": "LDIAM",
    "TRTEST": "Longest Diameter",
    "TRORRES": 23,
    "TRORRESU": "mm",
    "TRSTRESN": 23,
    "TRSTRESU": "mm",
    "TREVAL": "INVESTIGATOR",
    "TRMETHOD": "CT SCAN",
    "VISITNUM": 6,
    "VISIT": "WEEK 45",
    "TRDTC": "2021-11-26",
    "TRDY": 315
  },
  {
    "STUDYID": "KN868",
    "DOMAIN": "TR",
    "USUBJID": "KN868-0001-0013",
    "TRSEQ": 12,
    "TRLNKID": "T2",
    "TRTESTCD": "LDIAM",
    "TRTEST": "Longest Diameter",
    "TRORRES": 20,
    "TRORRESU": "mm",
    "TRSTRESN": 20,
    "TRSTRESU": "mm",
    "TREVAL": "INVESTIGATOR",
    "TRMETHOD": "CT SCAN",
    "VISITNUM": 6,
    "VISIT": "WEEK 45",
    "TRDTC": "2021-11-24",
    "TRDY": 315
  },
  {
    "STUDYID": "KN868",
    "DOMAIN": "TR",
    "USUBJID": "KN868-0001-0013",
    "TRSEQ": 13,
    "TRLNKID": "T1",
    "TRTESTCD": "LDIAM",
    "TRTEST": "Longest Diameter",
    "TRORRES": 23.5,
    "TRORRESU": "mm",
    "TRSTRESN": 23.5,
    "TRSTRESU": "mm",
    "TREVAL": "INVESTIGATOR",
    "TRMETHOD": "CT SCAN",
    "VISITNUM": 7,
    "VISIT": "WEEK 54",
    "TRDTC": "2022-01-27",
    "TRDY": 378
  },
  {
    "STUDYID": "KN868",
    "DOMAIN": "TR",
    "USUBJID": "KN868-0001-0013",
    "TRSEQ": 14,
    "TRLNKID": "T2",
    "TRTESTCD": "LDIAM",
    "TRTEST": "Longest Diameter",
    "TRORRES": 19.6,
    "TRORRESU": "mm",
    "TRSTRESN": 19.6,
    "TRSTRESU": "mm",
    "TREVAL": "INVESTIGATOR",
    "TRMETHOD": "CT SCAN",
    "VISITNUM": 7,
    "VISIT": "WEEK 54",
    "TRDTC": "2022-01-27",
    "TRDY": 378
  },
  {
    "STUDYID": "KN868",
    "DOMAIN": "TR",
    "USUBJID": "KN868-0001-0013",
    "TRSEQ": 15,
    "TRLNKID": "T1",
    "TRTESTCD": "LDIAM",
    "TRTEST": "Longest Diameter",
    "TRORRES": 19.6,
    "TRORRESU": "mm",
    "TRSTRESN": 19.6,
    "TRSTRESU": "mm",
    "TREVAL": "INVESTIGATOR",
    "TRMETHOD": "CT SCAN",
    "VISITNUM": 8,
    "VISIT": "WEEK 63",
    "TRDTC": "2022-03-31",
    "TRDY": 441
  },
  {
    "STUDYID": "KN868",
    "DOMAIN": "TR",
    "USUBJID": "KN868-0001-0013",
    "TRSEQ": 16,
    "TRLNKID": "T2",
    "TRTESTCD": "LDIAM",
    "TRTEST": "Longest Diameter",
    "TRORRES": 22.9,
    "TRORRESU": "mm",
    "TRSTRESN": 22.9,
    "TRSTRESU": "mm",
    "TREVAL": "INVESTIGATOR",
    "TRMETHOD": "CT SCAN",
    "VISITNUM": 8,
    "VISIT": "WEEK 63",
    "TRDTC": "2022-03-31",
    "TRDY": 441
  },
  {
    "STUDYID": "KN868",
    "DOMAIN": "TR",
    "USUBJID": "KN868-0001-0013",
    "TRSEQ": 17,
    "TRLNKID": "T1",
    "TRTESTCD": "LDIAM",
    "TRTEST": "Longest Diameter",
    "TRORRES": 19.9,
    "TRORRESU": "mm",
    "TRSTRESN": 19.9,
    "TRSTRESU": "mm",
    "TREVAL": "INVESTIGATOR",
    "TRMETHOD": "CT SCAN",
    "VISITNUM": 9,
    "VISIT": "WEEK 72",
    "TRDTC": "2022-06-02",
    "TRDY": 504
  },
  {
    "STUDYID": "KN868",
    "DOMAIN": "TR",
    "USUBJID": "KN868-0001-0013",
    "TRSEQ": 18,
    "TRLNKID": "T2",
    "TRTESTCD": "LDIAM",
    "TRTEST": "Longest Diameter",
    "TRORRES": 22.4,
    "TRORRESU": "mm",
    "TRSTRESN": 22.4,
    "TRSTRESU": "mm",
    "TREVAL": "INVESTIGATOR",
    "TRMETHOD": "CT SCAN",
    "VISITNUM": 9,
    "VISIT": "WEEK 72",
    "TRDTC": "2022-06-05",
    "TRDY": 504
  },
  {
    "STUDYID": "KN868",
    "DOMAIN": "TR",
    "USUBJID": "KN868-0001-0014",
    "TRSEQ": 1,
    "TRLNKID": "T1",
    "TRTESTCD": "LDIAM",
    "TRTEST": "Longest Diameter",
    "TRORRES": 77.8,
    "TRORRESU": "mm",
    "TRSTRESN": 77.8,
    "TRSTRESU": "mm",
    "TREVAL": "INVESTIGATOR",
    "TRMETHOD": "CT SCAN",
    "VISITNUM": 1,
    "VISIT": "SCREENING",
    "TRDTC": "2020-03-12",
    "TRDY": -7
  },
  {
    "STUDYID": "KN868",
    "DOMAIN": "TR",
    "USUBJID": "KN868-0001-0014",
    "TRSEQ": 2,
    "TRLNKID": "T1",
    "TRTESTCD": "LDIAM",
    "TRTEST": "Longest Diameter",
    "TRORRES": 72.7,
    "TRORRESU": "mm",
    "TRSTRESN": 72.7,
    "TRSTRESU": "mm",
    "TREVAL": "INVESTIGATOR",
    "TRMETHOD": "CT SCAN",
    "VISITNUM": 2,
    "VISIT": "WEEK 9",
    "TRDTC": "2020-05-24",
    "TRDY": 63
  },
  {
    "STUDYID": "KN868",
    "DOMAIN": "TR",
    "USUBJID": "KN868-0001-0014",
    "TRSEQ": 3,
    "TRLNKID": "T1",
    "TRTESTCD": "LDIAM",
    "TRTEST": "Longest Diameter",
    "TRORRES": 88.9,
    "TRORRESU": "mm",
    "TRSTRESN": 88.9,
    "TRSTRESU": "mm",
    "TREVAL": "INVESTIGATOR",
    "TRMETHOD": "CT SCAN",
    "VISITNUM": 3,
    "VISIT": "WEEK 18",
    "TRDTC": "2020-07-24",
    "TRDY": 126
  },
  {
    "STUDYID": "KN868",
    "DOMAIN": "TR",
    "USUBJID": "KN868-0001-0014",
    "TRSEQ": 4,
    "TRLNKID": "T1",
    "TRTESTCD": "LDIAM",
    "TRTEST": "Longest Diameter",
    "TRORRES": 88.9,
    "TRORRESU": "mm",
    "TRSTRESN": 88.9,
    "TRSTRESU": "mm",
    "TREVAL": "INVESTIGATOR",
    "TRMETHOD": "CT SCAN",
    "VISITNUM": 4,
    "VISIT": "WEEK 27",
    "TRDTC": "2020-09-28",
    "TRDY": 189
  },
  {
    "STUDYID": "KN868",
    "DOMAIN": "TR",
    "USUBJID": "KN868-0001-0014",
    "TRSEQ": 5,
    "TRLNKID": "T1",
    "TRTESTCD": "LDIAM",
    "TRTEST": "Longest Diameter",
    "TRORRES": 71.7,
    "TRORRESU": "mm",
    "TRSTRESN": 71.7,
    "TRSTRESU": "mm",
    "TREVAL": "INVESTIGATOR",
    "TRMETHOD": "CT SCAN",
    "VISITNUM": 5,
    "VISIT": "WEEK 36",
    "TRDTC": "2020-11-26",
    "TRDY": 252
  },
  {
    "STUDYID": "KN868",
    "DOMAIN": "TR",
    "USUBJID": "KN868-0001-0014",
    "TRSEQ": 6,
    "TRLNKID": "T1",
    "TRTESTCD": "LDIAM",
    "TRTEST": "Longest Diameter",
    "TRORRES": 77.2,
    "TRORRESU": "mm",
    "TRSTRESN": 77.2,
    "TRSTRESU": "mm",
    "TREVAL": "INVESTIGATOR",
    "TRMETHOD": "CT SCAN",
    "VISITNUM": 6,
    "VISIT": "WEEK 45",
    "TRDTC": "2021-01-31",
    "TRDY": 315
  },
  {
    "STUDYID": "KN868",
    "DOMAIN": "TR",
    "USUBJID": "KN868-0001-0014",
    "TRSEQ": 7,
    "TRLNKID": "T1",
    "TRTESTCD": "LDIAM",
    "TRTEST": "Longest Diameter",
    "TRORRES": 72.4,
    "TRORRESU": "mm",
    "TRSTRESN": 72.4,
    "TRSTRESU": "mm",
    "TREVAL": "INVESTIGATOR",
    "TRMETHOD": "CT SCAN",
    "VISITNUM": 7,
    "VISIT": "WEEK 54",
    "TRDTC": "2021-04-02",
    "TRDY": 378
  },
  {
    "STUDYID": "KN868",
    "DOMAIN": "TR",
    "USUBJID": "KN868-0001-0014",
    "TRSEQ": 8,
    "TRLNKID": "T1",
    "TRTESTCD": "LDIAM",
    "TRTEST": "Longest Diameter",
    "TRORRES": 67.6,
    "TRORRESU": "mm",
    "TRSTRESN": 67.6,
    "TRSTRESU": "mm",
    "TREVAL": "INVESTIGATOR",
    "TRMETHOD": "CT SCAN",
    "VISITNUM": 8,
    "VISIT": "WEEK 63",
    "TRDTC": "2021-06-05",
    "TRDY": 441
  },
  {
    "STUDYID": "KN868",
    "DOMAIN": "TR",
    "USUBJID": "KN868-0001-0014",
    "TRSEQ": 9,
    "TRLNKID": "T1",
    "TRTESTCD": "LDIAM",
    "TRTEST": "Longest Diameter",
    "TRORRES": 72.7,
    "TRORRESU": "mm",
    "TRSTRESN": 72.7,
    "TRSTRESU": "mm",
    "TREVAL": "INVESTIGATOR",
    "TRMETHOD": "CT SCAN",
    "VISITNUM": 9,
    "VISIT": "WEEK 72",
    "TRDTC": "2021-08-10",
    "TRDY": 504
  },
  {
    "STUDYID": "KN868",
    "DOMAIN": "TR",
    "USUBJID": "KN868-0001-0015",
    "TRSEQ": 1,
    "TRLNKID": "T1",
    "TRTESTCD": "LDIAM",
    "TRTEST": "Longest Diameter",
    "TRORRES": 77.4,
    "TRORRESU": "mm",
    "TRSTRESN": 77.4,
    "TRSTRESU": "mm",
    "TREVAL": "INVESTIGATOR",
    "TRMETHOD": "CT SCAN",
    "VISITNUM": 1,
    "VISIT": "SCREENING",
    "TRDTC": "2021-04-03",
    "TRDY": -7
  },
  {
    "STUDYID": "KN868",
    "DOMAIN": "TR",
    "USUBJID": "KN868-0001-0015",
    "TRSEQ": 2,
    "TRLNKID": "T2",
    "TRTESTCD": "LDIAM",
    "TRTEST": "Longest Diameter",
    "TRORRES": 27.1,
    "TRORRESU": "mm",
    "TRSTRESN": 27.1,
    "TRSTRESU": "mm",
    "TREVAL": "INVESTIGATOR",
    "TRMETHOD": "CT SCAN",
    "VISITNUM": 1,
    "VISIT": "SCREENING",
    "TRDTC": "2021-04-02",
    "TRDY": -7
  },
  {
    "STUDYID": "KN868",
    "DOMAIN": "TR",
    "USUBJID": "KN868-0001-0015",
    "TRSEQ": 3,
    "TRLNKID": "T1",
    "TRTESTCD": "LDIAM",
    "TRTEST": "Longest Diameter",
    "TRORRES": 108.4,
    "TRORRESU": "mm",
    "TRSTRESN": 108.4,
    "TRSTRESU": "mm",
    "TREVAL": "INVESTIGATOR",
    "TRMETHOD": "CT SCAN",
    "VISITNUM": 2,
    "VISIT": "WEEK 9",
    "TRDTC": "2021-06-12",
    "TRDY": 63
  },
  {
    "STUDYID": "KN868",
    "DOMAIN": "TR",
    "USUBJID": "KN868-0001-0015",
    "TRSEQ": 4,
    "TRLNKID": "T2",
    "TRTESTCD": "LDIAM",
    "TRTEST": "Longest Diameter",
    "TRORRES": 37.9,
    "TRORRESU": "mm",
    "TRSTRESN": 37.9,
    "TRSTRESU": "mm",
    "TREVAL": "INVESTIGATOR",
    "TRMETHOD": "CT SCAN",
    "VISITNUM": 2,
    "VISIT": "WEEK 9",
    "TRDTC": "2021-06-09",
    "TRDY": 63
  },
  {
    "STUDYID": "KN868",
    "DOMAIN": "TR",
    "USUBJID": "KN868-0001-0015",
    "TRSEQ": 5,
    "TRLNKID": "T1",
    "TRTESTCD": "LDIAM",
    "TRTEST": "Longest Diameter",
    "TRORRES": 95.5,
    "TRORRESU": "mm",
    "TRSTRESN": 95.5,
    "TRSTRESU": "mm",
    "TREVAL": "INVESTIGATOR",
    "TRMETHOD": "CT SCAN",
    "VISITNUM": 3,
    "VISIT": "WEEK 18",
    "TRDTC": "2021-08-08",
    "TRDY": 126
  },
  {
    "STUDYID": "KN868",
    "DOMAIN": "TR",
    "USUBJID": "KN868-0001-0015",
    "TRSEQ": 6,
    "TRLNKID": "T2",
    "TRTESTCD": "LDIAM",
    "TRTEST": "Longest Diameter",
    "TRORRES": 36.2,
    "TRORRESU": "mm",
    "TRSTRESN": 36.2,
    "TRSTRESU": "mm",
    "TREVAL": "INVESTIGATOR",
    "TRMETHOD": "CT SCAN",
    "VISITNUM": 3,
    "VISIT": "WEEK 18",
    "TRDTC": "2021-08-13",
    "TRDY": 126
  },
  {
    "STUDYID": "KN868",
    "DOMAIN": "TR",
    "USUBJID": "KN868-0001-0015",
    "TRSEQ": 7,
    "TRLNKID": "T1",
    "TRTESTCD": "LDIAM",
    "TRTEST": "Longest Diameter",
    "TRORRES": 104,
    "TRORRESU": "mm",
    "TRSTRESN": 104,
    "TRSTRESU": "mm",
    "TREVAL": "INVESTIGATOR",
    "TRMETHOD": "CT SCAN",
    "VISITNUM": 4,
    "VISIT": "WEEK 27",
    "TRDTC": "2021-10-15",
    "TRDY": 189
  },
  {
    "STUDYID": "KN868",
    "DOMAIN": "TR",
    "USUBJID": "KN868-0001-0015",
    "TRSEQ": 8,
    "TRLNKID": "T2",
    "TRTESTCD": "LDIAM",
    "TRTEST": "Longest Diameter",
    "TRORRES": 34.2,
    "TRORRESU": "mm",
    "TRSTRESN": 34.2,
    "TRSTRESU": "mm",
    "TREVAL": "INVESTIGATOR",
    "TRMETHOD": "CT SCAN",
    "VISITNUM": 4,
    "VISIT": "WEEK 27",
    "TRDTC": "2021-10-14",
    "TRDY": 189
  },
  {
    "STUDYID": "KN868",
    "DOMAIN": "TR",
    "USUBJID": "KN868-0001-0015",
    "TRSEQ": 9,
    "TRLNKID": "T1",
    "TRTESTCD": "LDIAM",
    "TRTEST": "Longest Diameter",
    "TRORRES": 108.7,
    "TRORRESU": "mm",
    "TRSTRESN": 108.7,
    "TRSTRESU": "mm",
    "TREVAL": "INVESTIGATOR",
    "TRMETHOD": "CT SCAN",
    "VISITNUM": 5,
    "VISIT": "WEEK 36",
    "TRDTC": "2021-12-12",
    "TRDY": 252
  },
  {
    "STUDYID": "KN868",
    "DOMAIN": "TR",
    "USUBJID": "KN868-0001-0015",
    "TRSEQ": 10,
    "TRLNKID": "T2",
    "TRTESTCD": "LDIAM",
    "TRTEST": "Longest Diameter",
    "TRORRES": 43.3,
    "TRORRESU": "mm",
    "TRSTRESN": 43.3,
    "TRSTRESU": "mm",
    "TREVAL": "INVESTIGATOR",
    "TRMETHOD": "CT SCAN",
    "VISITNUM": 5,
    "VISIT": "WEEK 36",
    "TRDTC": "2021-12-13",
    "TRDY": 252
  },
  {
    "STUDYID": "KN868",
    "DOMAIN": "TR",
    "USUBJID": "KN868-0001-0015",
    "TRSEQ": 11,
    "TRLNKID": "T1",
    "TRTESTCD": "LDIAM",
    "TRTEST": "Longest Diameter",
    "TRORRES": 124.1,
    "TRORRESU": "mm",
    "TRSTRESN": 124.1,
    "TRSTRESU": "mm",
    "TREVAL": "INVESTIGATOR",
    "TRMETHOD": "CT SCAN",
    "VISITNUM": 6,
    "VISIT": "WEEK 45",
    "TRDTC": "2022-02-16",
    "TRDY": 315
  },
  {
    "STUDYID": "KN868",
    "DOMAIN": "TR",
    "USUBJID": "KN868-0001-0015",
    "TRSEQ": 12,
    "TRLNKID": "T2",
    "TRTESTCD": "LDIAM",
    "TRTEST": "Longest Diameter",
    "TRORRES": 43.1,
    "TRORRESU": "mm",
    "TRSTRESN": 43.1,
    "TRSTRESU": "mm",
    "TREVAL": "INVESTIGATOR",
    "TRMETHOD": "CT SCAN",
    "VISITNUM": 6,
    "VISIT": "WEEK 45",
    "TRDTC": "2022-02-17",
    "TRDY": 315
  },
  {
    "STUDYID": "KN868",
    "DOMAIN": "TR",
    "USUBJID": "KN868-0001-0015",
    "TRSEQ": 13,
    "TRLNKID": "T1",
    "TRTESTCD": "LDIAM",
    "TRTEST": "Longest Diameter",
    "TRORRES": 150.6,
    "TRORRESU": "mm",
    "TRSTRESN": 150.6,
    "TRSTRESU": "mm",
    "TREVAL": "INVESTIGATOR",
    "TRMETHOD": "CT SCAN",
    "VISITNUM": 7,
    "VISIT": "WEEK 54",
    "TRDTC": "2022-04-18",
    "TRDY": 378
  },
  {
    "STUDYID": "KN868",
    "DOMAIN": "TR",
    "USUBJID": "KN868-0001-0015",
    "TRSEQ": 14,
    "TRLNKID": "T2",
    "TRTESTCD": "LDIAM",
    "TRTEST": "Longest Diameter",
    "TRORRES": 44.6,
    "TRORRESU": "mm",
    "TRSTRESN": 44.6,
    "TRSTRESU": "mm",
    "TREVAL": "INVESTIGATOR",
    "TRMETHOD": "CT SCAN",
    "VISITNUM": 7,
    "VISIT": "WEEK 54",
    "TRDTC": "2022-04-22",
    "TRDY": 378
  },
  {
    "STUDYID": "KN868",
    "DOMAIN": "TR",
    "USUBJID": "KN868-0001-0015",
    "TRSEQ": 15,
    "TRLNKID": "T1",
    "TRTESTCD": "LDIAM",
    "TRTEST": "Longest Diameter",
    "TRORRES": 131.2,
    "TRORRESU": "mm",
    "TRSTRESN": 131.2,
    "TRSTRESU": "mm",
    "TREVAL": "INVESTIGATOR",
    "TRMETHOD": "CT SCAN",
    "VISITNUM": 8,
    "VISIT": "WEEK 63",
    "TRDTC": "2022-06-20",
    "TRDY": 441
  },
  {
    "STUDYID": "KN868",
    "DOMAIN": "TR",
    "USUBJID": "KN868-0001-0015",
    "TRSEQ": 16,
    "TRLNKID": "T2",
    "TRTESTCD": "LDIAM",
    "TRTEST": "Longest Diameter",
    "TRORRES": 48.1,
    "TRORRESU": "mm",
    "TRSTRESN": 48.1,
    "TRSTRESU": "mm",
    "TREVAL": "INVESTIGATOR",
    "TRMETHOD": "CT SCAN",
    "VISITNUM": 8,
    "VISIT": "WEEK 63",
    "TRDTC": "2022-06-24",
    "TRDY": 441
  },
  {
    "STUDYID": "KN868",
    "DOMAIN": "TR",
    "USUBJID": "KN868-0001-0015",
    "TRSEQ": 17,
    "TRLNKID": "T1",
    "TRTESTCD": "LDIAM",
    "TRTEST": "Longest Diameter",
    "TRORRES": 154.8,
    "TRORRESU": "mm",
    "TRSTRESN": 154.8,
    "TRSTRESU": "mm",
    "TREVAL": "INVESTIGATOR",
    "TRMETHOD": "CT SCAN",
    "VISITNUM": 9,
    "VISIT": "WEEK 72",
    "TRDTC": "2022-08-24",
    "TRDY": 504
  },
  {
    "STUDYID": "KN868",
    "DOMAIN": "TR",
    "USUBJID": "KN868-0001-0015",
    "TRSEQ": 18,
    "TRLNKID": "T2",
    "TRTESTCD": "LDIAM",
    "TRTEST": "Longest Diameter",
    "TRORRES": 50,
    "TRORRESU": "mm",
    "TRSTRESN": 50,
    "TRSTRESU": "mm",
    "TREVAL": "INVESTIGATOR",
    "TRMETHOD": "CT SCAN",
    "VISITNUM": 9,
    "VISIT": "WEEK 72",
    "TRDTC": "2022-08-24",
    "TRDY": 504
  },
  {
    "STUDYID": "KN868",
    "DOMAIN": "TR",
    "USUBJID": "KN868-0001-0016",
    "TRSEQ": 1,
    "TRLNKID": "T1",
    "TRTESTCD": "LDIAM",
    "TRTEST": "Longest Diameter",
    "TRORRES": 48.8,
    "TRORRESU": "mm",
    "TRSTRESN": 48.8,
    "TRSTRESU": "mm",
    "TREVAL": "INVESTIGATOR",
    "TRMETHOD": "CT SCAN",
    "VISITNUM": 1,
    "VISIT": "SCREENING",
    "TRDTC": "2021-09-23",
    "TRDY": -7
  },
  {
    "STUDYID": "KN868",
    "DOMAIN": "TR",
    "USUBJID": "KN868-0001-0016",
    "TRSEQ": 2,
    "TRLNKID": "T2",
    "TRTESTCD": "LDIAM",
    "TRTEST": "Longest Diameter",
    "TRORRES": 29,
    "TRORRESU": "mm",
    "TRSTRESN": 29,
    "TRSTRESU": "mm",
    "TREVAL": "INVESTIGATOR",
    "TRMETHOD": "CT SCAN",
    "VISITNUM": 1,
    "VISIT": "SCREENING",
    "TRDTC": "2021-09-20",
    "TRDY": -7
  },
  {
    "STUDYID": "KN868",
    "DOMAIN": "TR",
    "USUBJID": "KN868-0001-0016",
    "TRSEQ": 3,
    "TRLNKID": "T1",
    "TRTESTCD": "LDIAM",
    "TRTEST": "Longest Diameter",
    "TRORRES": 42.5,
    "TRORRESU": "mm",
    "TRSTRESN": 42.5,
    "TRSTRESU": "mm",
    "TREVAL": "INVESTIGATOR",
    "TRMETHOD": "CT SCAN",
    "VISITNUM": 2,
    "VISIT": "WEEK 9",
    "TRDTC": "2021-12-02",
    "TRDY": 63
  },
  {
    "STUDYID": "KN868",
    "DOMAIN": "TR",
    "USUBJID": "KN868-0001-0016",
    "TRSEQ": 4,
    "TRLNKID": "T2",
    "TRTESTCD": "LDIAM",
    "TRTEST": "Longest Diameter",
    "TRORRES": 27.4,
    "TRORRESU": "mm",
    "TRSTRESN": 27.4,
    "TRSTRESU": "mm",
    "TREVAL": "INVESTIGATOR",
    "TRMETHOD": "CT SCAN",
    "VISITNUM": 2,
    "VISIT": "WEEK 9",
    "TRDTC": "2021-12-04",
    "TRDY": 63
  },
  {
    "STUDYID": "KN868",
    "DOMAIN": "TR",
    "USUBJID": "KN868-0001-0016",
    "TRSEQ": 5,
    "TRLNKID": "T1",
    "TRTESTCD": "LDIAM",
    "TRTEST": "Longest Diameter",
    "TRORRES": 48.6,
    "TRORRESU": "mm",
    "TRSTRESN": 48.6,
    "TRSTRESU": "mm",
    "TREVAL": "INVESTIGATOR",
    "TRMETHOD": "CT SCAN",
    "VISITNUM": 3,
    "VISIT": "WEEK 18",
    "TRDTC": "2022-01-31",
    "TRDY": 126
  },
  {
    "STUDYID": "KN868",
    "DOMAIN": "TR",
    "USUBJID": "KN868-0001-0016",
    "TRSEQ": 6,
    "TRLNKID": "T2",
    "TRTESTCD": "LDIAM",
    "TRTEST": "Longest Diameter",
    "TRORRES": 28.8,
    "TRORRESU": "mm",
    "TRSTRESN": 28.8,
    "TRSTRESU": "mm",
    "TREVAL": "INVESTIGATOR",
    "TRMETHOD": "CT SCAN",
    "VISITNUM": 3,
    "VISIT": "WEEK 18",
    "TRDTC": "2022-01-30",
    "TRDY": 126
  },
  {
    "STUDYID": "KN868",
    "DOMAIN": "TR",
    "USUBJID": "KN868-0001-0016",
    "TRSEQ": 7,
    "TRLNKID": "T1",
    "TRTESTCD": "LDIAM",
    "TRTEST": "Longest Diameter",
    "TRORRES": 54.7,
    "TRORRESU": "mm",
    "TRSTRESN": 54.7,
    "TRSTRESU": "mm",
    "TREVAL": "INVESTIGATOR",
    "TRMETHOD": "CT SCAN",
    "VISITNUM": 4,
    "VISIT": "WEEK 27",
    "TRDTC": "2022-04-06",
    "TRDY": 189
  },
  {
    "STUDYID": "KN868",
    "DOMAIN": "TR",
    "USUBJID": "KN868-0001-0016",
    "TRSEQ": 8,
    "TRLNKID": "T2",
    "TRTESTCD": "LDIAM",
    "TRTEST": "Longest Diameter",
    "TRORRES": 28.8,
    "TRORRESU": "mm",
    "TRSTRESN": 28.8,
    "TRSTRESU": "mm",
    "TREVAL": "INVESTIGATOR",
    "TRMETHOD": "CT SCAN",
    "VISITNUM": 4,
    "VISIT": "WEEK 27",
    "TRDTC": "2022-04-07",
    "TRDY": 189
  },
  {
    "STUDYID": "KN868",
    "DOMAIN": "TR",
    "USUBJID": "KN868-0001-0016",
    "TRSEQ": 9,
    "TRLNKID": "T1",
    "TRTESTCD": "LDIAM",
    "TRTEST": "Longest Diameter",
    "TRORRES": 45.6,
    "TRORRESU": "mm",
    "TRSTRESN": 45.6,
    "TRSTRESU": "mm",
    "TREVAL": "INVESTIGATOR",
    "TRMETHOD": "CT SCAN",
    "VISITNUM": 5,
    "VISIT": "WEEK 36",
    "TRDTC": "2022-06-08",
    "TRDY": 252
  },
  {
    "STUDYID": "KN868",
    "DOMAIN": "TR",
    "USUBJID": "KN868-0001-0016",
    "TRSEQ": 10,
    "TRLNKID": "T2",
    "TRTESTCD": "LDIAM",
    "TRTEST": "Longest Diameter",
    "TRORRES": 27.4,
    "TRORRESU": "mm",
    "TRSTRESN": 27.4,
    "TRSTRESU": "mm",
    "TREVAL": "INVESTIGATOR",
    "TRMETHOD": "CT SCAN",
    "VISITNUM": 5,
    "VISIT": "WEEK 36",
    "TRDTC": "2022-06-11",
    "TRDY": 252
  },
  {
    "STUDYID": "KN868",
    "DOMAIN": "TR",
    "USUBJID": "KN868-0001-0016",
    "TRSEQ": 11,
    "TRLNKID": "T1",
    "TRTESTCD": "LDIAM",
    "TRTEST": "Longest Diameter",
    "TRORRES": 51.6,
    "TRORRESU": "mm",
    "TRSTRESN": 51.6,
    "TRSTRESU": "mm",
    "TREVAL": "INVESTIGATOR",
    "TRMETHOD": "CT SCAN",
    "VISITNUM": 6,
    "VISIT": "WEEK 45",
    "TRDTC": "2022-08-11",
    "TRDY": 315
  },
  {
    "STUDYID": "KN868",
    "DOMAIN": "TR",
    "USUBJID": "KN868-0001-0016",
    "TRSEQ": 12,
    "TRLNKID": "T2",
    "TRTESTCD": "LDIAM",
    "TRTEST": "Longest Diameter",
    "TRORRES": 27.2,
    "TRORRESU": "mm",
    "TRSTRESN": 27.2,
    "TRSTRESU": "mm",
    "TREVAL": "INVESTIGATOR",
    "TRMETHOD": "CT SCAN",
    "VISITNUM": 6,
    "VISIT": "WEEK 45",
    "TRDTC": "2022-08-13",
    "TRDY": 315
  },
  {
    "STUDYID": "KN868",
    "DOMAIN": "TR",
    "USUBJID": "KN868-0001-0016",
    "TRSEQ": 13,
    "TRLNKID": "T1",
    "TRTESTCD": "LDIAM",
    "TRTEST": "Longest Diameter",
    "TRORRES": 54.5,
    "TRORRESU": "mm",
    "TRSTRESN": 54.5,
    "TRSTRESU": "mm",
    "TREVAL": "INVESTIGATOR",
    "TRMETHOD": "CT SCAN",
    "VISITNUM": 7,
    "VISIT": "WEEK 54",
    "TRDTC": "2022-10-13",
    "TRDY": 378
  },
  {
    "STUDYID": "KN868",
    "DOMAIN": "TR",
    "USUBJID": "KN868-0001-0016",
    "TRSEQ": 14,
    "TRLNKID": "T2",
    "TRTESTCD": "LDIAM",
    "TRTEST": "Longest Diameter",
    "TRORRES": 31.3,
    "TRORRESU": "mm",
    "TRSTRESN": 31.3,
    "TRSTRESU": "mm",
    "TREVAL": "INVESTIGATOR",
    "TRMETHOD": "CT SCAN",
    "VISITNUM": 7,
    "VISIT": "WEEK 54",
    "TRDTC": "2022-10-11",
    "TRDY": 378
  },
  {
    "STUDYID": "KN868",
    "DOMAIN": "TR",
    "USUBJID": "KN868-0001-0016",
    "TRSEQ": 15,
    "TRLNKID": "T1",
    "TRTESTCD": "LDIAM",
    "TRTEST": "Longest Diameter",
    "TRORRES": 55,
    "TRORRESU": "mm",
    "TRSTRESN": 55,
    "TRSTRESU": "mm",
    "TREVAL": "INVESTIGATOR",
    "TRMETHOD": "CT SCAN",
    "VISITNUM": 8,
    "VISIT": "WEEK 63",
    "TRDTC": "2022-12-12",
    "TRDY": 441
  },
  {
    "STUDYID": "KN868",
    "DOMAIN": "TR",
    "USUBJID": "KN868-0001-0016",
    "TRSEQ": 16,
    "TRLNKID": "T2",
    "TRTESTCD": "LDIAM",
    "TRTEST": "Longest Diameter",
    "TRORRES": 27.8,
    "TRORRESU": "mm",
    "TRSTRESN": 27.8,
    "TRSTRESU": "mm",
    "TREVAL": "INVESTIGATOR",
    "TRMETHOD": "CT SCAN",
    "VISITNUM": 8,
    "VISIT": "WEEK 63",
    "TRDTC": "2022-12-13",
    "TRDY": 441
  },
  {
    "STUDYID": "KN868",
    "DOMAIN": "TR",
    "USUBJID": "KN868-0001-0016",
    "TRSEQ": 17,
    "TRLNKID": "T1",
    "TRTESTCD": "LDIAM",
    "TRTEST": "Longest Diameter",
    "TRORRES": 43.2,
    "TRORRESU": "mm",
    "TRSTRESN": 43.2,
    "TRSTRESU": "mm",
    "TREVAL": "INVESTIGATOR",
    "TRMETHOD": "CT SCAN",
    "VISITNUM": 9,
    "VISIT": "WEEK 72",
    "TRDTC": "2023-02-14",
    "TRDY": 504
  },
  {
    "STUDYID": "KN868",
    "DOMAIN": "TR",
    "USUBJID": "KN868-0001-0016",
    "TRSEQ": 18,
    "TRLNKID": "T2",
    "TRTESTCD": "LDIAM",
    "TRTEST": "Longest Diameter",
    "TRORRES": 30.5,
    "TRORRESU": "mm",
    "TRSTRESN": 30.5,
    "TRSTRESU": "mm",
    "TREVAL": "INVESTIGATOR",
    "TRMETHOD": "CT SCAN",
    "VISITNUM": 9,
    "VISIT": "WEEK 72",
    "TRDTC": "2023-02-15",
    "TRDY": 504
  },
  {
    "STUDYID": "KN868",
    "DOMAIN": "TR",
    "USUBJID": "KN868-0001-0017",
    "TRSEQ": 1,
    "TRLNKID": "T1",
    "TRTESTCD": "LDIAM",
    "TRTEST": "Longest Diameter",
    "TRORRES": 21,
    "TRORRESU": "mm",
    "TRSTRESN": 21,
    "TRSTRESU": "mm",
    "TREVAL": "INVESTIGATOR",
    "TRMETHOD": "CT SCAN",
    "VISITNUM": 1,
    "VISIT": "SCREENING",
    "TRDTC": "2020-02-29",
    "TRDY": -7
  },
  {
    "STUDYID": "KN868",
    "DOMAIN": "TR",
    "USUBJID": "KN868-0001-0017",
    "TRSEQ": 2,
    "TRLNKID": "T2",
    "TRTESTCD": "LDIAM",
    "TRTEST": "Longest Diameter",
    "TRORRES": 77.9,
    "TRORRESU": "mm",
    "TRSTRESN": 77.9,
    "TRSTRESU": "mm",
    "TREVAL": "INVESTIGATOR",
    "TRMETHOD": "CT SCAN",
    "VISITNUM": 1,
    "VISIT": "SCREENING",
    "TRDTC": "2020-03-02",
    "TRDY": -7
  },
  {
    "STUDYID": "KN868",
    "DOMAIN": "TR",
    "USUBJID": "KN868-0001-0017",
    "TRSEQ": 3,
    "TRLNKID": "T1",
    "TRTESTCD": "LDIAM",
    "TRTEST": "Longest Diameter",
    "TRORRES": 13.8,
    "TRORRESU": "mm",
    "TRSTRESN": 13.8,
    "TRSTRESU": "mm",
    "TREVAL": "INVESTIGATOR",
    "TRMETHOD": "CT SCAN",
    "VISITNUM": 2,
    "VISIT": "WEEK 9",
    "TRDTC": "2020-05-11",
    "TRDY": 63
  },
  {
    "STUDYID": "KN868",
    "DOMAIN": "TR",
    "USUBJID": "KN868-0001-0017",
    "TRSEQ": 4,
    "TRLNKID": "T2",
    "TRTESTCD": "LDIAM",
    "TRTEST": "Longest Diameter",
    "TRORRES": 45.3,
    "TRORRESU": "mm",
    "TRSTRESN": 45.3,
    "TRSTRESU": "mm",
    "TREVAL": "INVESTIGATOR",
    "TRMETHOD": "CT SCAN",
    "VISITNUM": 2,
    "VISIT": "WEEK 9",
    "TRDTC": "2020-05-07",
    "TRDY": 63
  },
  {
    "STUDYID": "KN868",
    "DOMAIN": "TR",
    "USUBJID": "KN868-0001-0017",
    "TRSEQ": 5,
    "TRLNKID": "T1",
    "TRTESTCD": "LDIAM",
    "TRTEST": "Longest Diameter",
    "TRORRES": 11.7,
    "TRORRESU": "mm",
    "TRSTRESN": 11.7,
    "TRSTRESU": "mm",
    "TREVAL": "INVESTIGATOR",
    "TRMETHOD": "CT SCAN",
    "VISITNUM": 3,
    "VISIT": "WEEK 18",
    "TRDTC": "2020-07-10",
    "TRDY": 126
  },
  {
    "STUDYID": "KN868",
    "DOMAIN": "TR",
    "USUBJID": "KN868-0001-0017",
    "TRSEQ": 6,
    "TRLNKID": "T2",
    "TRTESTCD": "LDIAM",
    "TRTEST": "Longest Diameter",
    "TRORRES": 42.8,
    "TRORRESU": "mm",
    "TRSTRESN": 42.8,
    "TRSTRESU": "mm",
    "TREVAL": "INVESTIGATOR",
    "TRMETHOD": "CT SCAN",
    "VISITNUM": 3,
    "VISIT": "WEEK 18",
    "TRDTC": "2020-07-10",
    "TRDY": 126
  },
  {
    "STUDYID": "KN868",
    "DOMAIN": "TR",
    "USUBJID": "KN868-0001-0017",
    "TRSEQ": 7,
    "TRLNKID": "T1",
    "TRTESTCD": "LDIAM",
    "TRTEST": "Longest Diameter",
    "TRORRES": 12,
    "TRORRESU": "mm",
    "TRSTRESN": 12,
    "TRSTRESU": "mm",
    "TREVAL": "INVESTIGATOR",
    "TRMETHOD": "CT SCAN",
    "VISITNUM": 4,
    "VISIT": "WEEK 27",
    "TRDTC": "2020-09-12",
    "TRDY": 189
  },
  {
    "STUDYID": "KN868",
    "DOMAIN": "TR",
    "USUBJID": "KN868-0001-0017",
    "TRSEQ": 8,
    "TRLNKID": "T2",
    "TRTESTCD": "LDIAM",
    "TRTEST": "Longest Diameter",
    "TRORRES": 41.6,
    "TRORRESU": "mm",
    "TRSTRESN": 41.6,
    "TRSTRESU": "mm",
    "TREVAL": "INVESTIGATOR",
    "TRMETHOD": "CT SCAN",
    "VISITNUM": 4,
    "VISIT": "WEEK 27",
    "TRDTC": "2020-09-10",
    "TRDY": 189
  },
  {
    "STUDYID": "KN868",
    "DOMAIN": "TR",
    "USUBJID": "KN868-0001-0017",
    "TRSEQ": 9,
    "TRLNKID": "T1",
    "TRTESTCD": "LDIAM",
    "TRTEST": "Longest Diameter",
    "TRORRES": 12.7,
    "TRORRESU": "mm",
    "TRSTRESN": 12.7,
    "TRSTRESU": "mm",
    "TREVAL": "INVESTIGATOR",
    "TRMETHOD": "CT SCAN",
    "VISITNUM": 5,
    "VISIT": "WEEK 36",
    "TRDTC": "2020-11-16",
    "TRDY": 252
  },
  {
    "STUDYID": "KN868",
    "DOMAIN": "TR",
    "USUBJID": "KN868-0001-0017",
    "TRSEQ": 10,
    "TRLNKID": "T2",
    "TRTESTCD": "LDIAM",
    "TRTEST": "Longest Diameter",
    "TRORRES": 46.8,
    "TRORRESU": "mm",
    "TRSTRESN": 46.8,
    "TRSTRESU": "mm",
    "TREVAL": "INVESTIGATOR",
    "TRMETHOD": "CT SCAN",
    "VISITNUM": 5,
    "VISIT": "WEEK 36",
    "TRDTC": "2020-11-11",
    "TRDY": 252
  },
  {
    "STUDYID": "KN868",
    "DOMAIN": "TR",
    "USUBJID": "KN868-0001-0017",
    "TRSEQ": 11,
    "TRLNKID": "T1",
    "TRTESTCD": "LDIAM",
    "TRTEST": "Longest Diameter",
    "TRORRES": 11.8,
    "TRORRESU": "mm",
    "TRSTRESN": 11.8,
    "TRSTRESU": "mm",
    "TREVAL": "INVESTIGATOR",
    "TRMETHOD": "CT SCAN",
    "VISITNUM": 6,
    "VISIT": "WEEK 45",
    "TRDTC": "2021-01-12",
    "TRDY": 315
  },
  {
    "STUDYID": "KN868",
    "DOMAIN": "TR",
    "USUBJID": "KN868-0001-0017",
    "TRSEQ": 12,
    "TRLNKID": "T2",
    "TRTESTCD": "LDIAM",
    "TRTEST": "Longest Diameter",
    "TRORRES": 38.7,
    "TRORRESU": "mm",
    "TRSTRESN": 38.7,
    "TRSTRESU": "mm",
    "TREVAL": "INVESTIGATOR",
    "TRMETHOD": "CT SCAN",
    "VISITNUM": 6,
    "VISIT": "WEEK 45",
    "TRDTC": "2021-01-17",
    "TRDY": 315
  },
  {
    "STUDYID": "KN868",
    "DOMAIN": "TR",
    "USUBJID": "KN868-0001-0017",
    "TRSEQ": 13,
    "TRLNKID": "T1",
    "TRTESTCD": "LDIAM",
    "TRTEST": "Longest Diameter",
    "TRORRES": 10.8,
    "TRORRESU": "mm",
    "TRSTRESN": 10.8,
    "TRSTRESU": "mm",
    "TREVAL": "INVESTIGATOR",
    "TRMETHOD": "CT SCAN",
    "VISITNUM": 7,
    "VISIT": "WEEK 54",
    "TRDTC": "2021-03-22",
    "TRDY": 378
  },
  {
    "STUDYID": "KN868",
    "DOMAIN": "TR",
    "USUBJID": "KN868-0001-0017",
    "TRSEQ": 14,
    "TRLNKID": "T2",
    "TRTESTCD": "LDIAM",
    "TRTEST": "Longest Diameter",
    "TRORRES": 38.8,
    "TRORRESU": "mm",
    "TRSTRESN": 38.8,
    "TRSTRESU": "mm",
    "TREVAL": "INVESTIGATOR",
    "TRMETHOD": "CT SCAN",
    "VISITNUM": 7,
    "VISIT": "WEEK 54",
    "TRDTC": "2021-03-22",
    "TRDY": 378
  },
  {
    "STUDYID": "KN868",
    "DOMAIN": "TR",
    "USUBJID": "KN868-0001-0017",
    "TRSEQ": 15,
    "TRLNKID": "T1",
    "TRTESTCD": "LDIAM",
    "TRTEST": "Longest Diameter",
    "TRORRES": 9.9,
    "TRORRESU": "mm",
    "TRSTRESN": 9.9,
    "TRSTRESU": "mm",
    "TREVAL": "INVESTIGATOR",
    "TRMETHOD": "CT SCAN",
    "VISITNUM": 8,
    "VISIT": "WEEK 63",
    "TRDTC": "2021-05-22",
    "TRDY": 441
  },
  {
    "STUDYID": "KN868",
    "DOMAIN": "TR",
    "USUBJID": "KN868-0001-0017",
    "TRSEQ": 16,
    "TRLNKID": "T2",
    "TRTESTCD": "LDIAM",
    "TRTEST": "Longest Diameter",
    "TRORRES": 37,
    "TRORRESU": "mm",
    "TRSTRESN": 37,
    "TRSTRESU": "mm",
    "TREVAL": "INVESTIGATOR",
    "TRMETHOD": "CT SCAN",
    "VISITNUM": 8,
    "VISIT": "WEEK 63",
    "TRDTC": "2021-05-22",
    "TRDY": 441
  },
  {
    "STUDYID": "KN868",
    "DOMAIN": "TR",
    "USUBJID": "KN868-0001-0017",
    "TRSEQ": 17,
    "TRLNKID": "T1",
    "TRTESTCD": "LDIAM",
    "TRTEST": "Longest Diameter",
    "TRORRES": 10.1,
    "TRORRESU": "mm",
    "TRSTRESN": 10.1,
    "TRSTRESU": "mm",
    "TREVAL": "INVESTIGATOR",
    "TRMETHOD": "CT SCAN",
    "VISITNUM": 9,
    "VISIT": "WEEK 72",
    "TRDTC": "2021-07-25",
    "TRDY": 504
  },
  {
    "STUDYID": "KN868",
    "DOMAIN": "TR",
    "USUBJID": "KN868-0001-0017",
    "TRSEQ": 18,
    "TRLNKID": "T2",
    "TRTESTCD": "LDIAM",
    "TRTEST": "Longest Diameter",
    "TRORRES": 41.2,
    "TRORRESU": "mm",
    "TRSTRESN": 41.2,
    "TRSTRESU": "mm",
    "TREVAL": "INVESTIGATOR",
    "TRMETHOD": "CT SCAN",
    "VISITNUM": 9,
    "VISIT": "WEEK 72",
    "TRDTC": "2021-07-24",
    "TRDY": 504
  },
  {
    "STUDYID": "KN868",
    "DOMAIN": "TR",
    "USUBJID": "KN868-0001-0018",
    "TRSEQ": 1,
    "TRLNKID": "T1",
    "TRTESTCD": "LDIAM",
    "TRTEST": "Longest Diameter",
    "TRORRES": 24.4,
    "TRORRESU": "mm",
    "TRSTRESN": 24.4,
    "TRSTRESU": "mm",
    "TREVAL": "INVESTIGATOR",
    "TRMETHOD": "CT SCAN",
    "VISITNUM": 1,
    "VISIT": "SCREENING",
    "TRDTC": "2021-12-16",
    "TRDY": -7
  },
  {
    "STUDYID": "KN868",
    "DOMAIN": "TR",
    "USUBJID": "KN868-0001-0018",
    "TRSEQ": 2,
    "TRLNKID": "T2",
    "TRTESTCD": "LDIAM",
    "TRTEST": "Longest Diameter",
    "TRORRES": 73.7,
    "TRORRESU": "mm",
    "TRSTRESN": 73.7,
    "TRSTRESU": "mm",
    "TREVAL": "INVESTIGATOR",
    "TRMETHOD": "CT SCAN",
    "VISITNUM": 1,
    "VISIT": "SCREENING",
    "TRDTC": "2021-12-15",
    "TRDY": -7
  },
  {
    "STUDYID": "KN868",
    "DOMAIN": "TR",
    "USUBJID": "KN868-0001-0018",
    "TRSEQ": 3,
    "TRLNKID": "T1",
    "TRTESTCD": "LDIAM",
    "TRTEST": "Longest Diameter",
    "TRORRES": 16.4,
    "TRORRESU": "mm",
    "TRSTRESN": 16.4,
    "TRSTRESU": "mm",
    "TREVAL": "INVESTIGATOR",
    "TRMETHOD": "CT SCAN",
    "VISITNUM": 2,
    "VISIT": "WEEK 9",
    "TRDTC": "2022-02-25",
    "TRDY": 63
  },
  {
    "STUDYID": "KN868",
    "DOMAIN": "TR",
    "USUBJID": "KN868-0001-0018",
    "TRSEQ": 4,
    "TRLNKID": "T2",
    "TRTESTCD": "LDIAM",
    "TRTEST": "Longest Diameter",
    "TRORRES": 46.5,
    "TRORRESU": "mm",
    "TRSTRESN": 46.5,
    "TRSTRESU": "mm",
    "TREVAL": "INVESTIGATOR",
    "TRMETHOD": "CT SCAN",
    "VISITNUM": 2,
    "VISIT": "WEEK 9",
    "TRDTC": "2022-02-24",
    "TRDY": 63
  },
  {
    "STUDYID": "KN868",
    "DOMAIN": "TR",
    "USUBJID": "KN868-0001-0018",
    "TRSEQ": 5,
    "TRLNKID": "T1",
    "TRTESTCD": "LDIAM",
    "TRTEST": "Longest Diameter",
    "TRORRES": 15.8,
    "TRORRESU": "mm",
    "TRSTRESN": 15.8,
    "TRSTRESU": "mm",
    "TREVAL": "INVESTIGATOR",
    "TRMETHOD": "CT SCAN",
    "VISITNUM": 3,
    "VISIT": "WEEK 18",
    "TRDTC": "2022-04-26",
    "TRDY": 126
  },
  {
    "STUDYID": "KN868",
    "DOMAIN": "TR",
    "USUBJID": "KN868-0001-0018",
    "TRSEQ": 6,
    "TRLNKID": "T2",
    "TRTESTCD": "LDIAM",
    "TRTEST": "Longest Diameter",
    "TRORRES": 47.8,
    "TRORRESU": "mm",
    "TRSTRESN": 47.8,
    "TRSTRESU": "mm",
    "TREVAL": "INVESTIGATOR",
    "TRMETHOD": "CT SCAN",
    "VISITNUM": 3,
    "VISIT": "WEEK 18",
    "TRDTC": "2022-04-29",
    "TRDY": 126
  },
  {
    "STUDYID": "KN868",
    "DOMAIN": "TR",
    "USUBJID": "KN868-0001-0018",
    "TRSEQ": 7,
    "TRLNKID": "T1",
    "TRTESTCD": "LDIAM",
    "TRTEST": "Longest Diameter",
    "TRORRES": 14.3,
    "TRORRESU": "mm",
    "TRSTRESN": 14.3,
    "TRSTRESU": "mm",
    "TREVAL": "INVESTIGATOR",
    "TRMETHOD": "CT SCAN",
    "VISITNUM": 4,
    "VISIT": "WEEK 27",
    "TRDTC": "2022-06-28",
    "TRDY": 189
  },
  {
    "STUDYID": "KN868",
    "DOMAIN": "TR",
    "USUBJID": "KN868-0001-0018",
    "TRSEQ": 8,
    "TRLNKID": "T2",
    "TRTESTCD": "LDIAM",
    "TRTEST": "Longest Diameter",
    "TRORRES": 39.9,
    "TRORRESU": "mm",
    "TRSTRESN": 39.9,
    "TRSTRESU": "mm",
    "TREVAL": "INVESTIGATOR",
    "TRMETHOD": "CT SCAN",
    "VISITNUM": 4,
    "VISIT": "WEEK 27",
    "TRDTC": "2022-06-29",
    "TRDY": 189
  },
  {
    "STUDYID": "KN868",
    "DOMAIN": "TR",
    "USUBJID": "KN868-0001-0018",
    "TRSEQ": 9,
    "TRLNKID": "T1",
    "TRTESTCD": "LDIAM",
    "TRTEST": "Longest Diameter",
    "TRORRES": 12.9,
    "TRORRESU": "mm",
    "TRSTRESN": 12.9,
    "TRSTRESU": "mm",
    "TREVAL": "INVESTIGATOR",
    "TRMETHOD": "CT SCAN",
    "VISITNUM": 5,
    "VISIT": "WEEK 36",
    "TRDTC": "2022-09-02",
    "TRDY": 252
  },
  {
    "STUDYID": "KN868",
    "DOMAIN": "TR",
    "USUBJID": "KN868-0001-0018",
    "TRSEQ": 10,
    "TRLNKID": "T2",
    "TRTESTCD": "LDIAM",
    "TRTEST": "Longest Diameter",
    "TRORRES": 39.5,
    "TRORRESU": "mm",
    "TRSTRESN": 39.5,
    "TRSTRESU": "mm",
    "TREVAL": "INVESTIGATOR",
    "TRMETHOD": "CT SCAN",
    "VISITNUM": 5,
    "VISIT": "WEEK 36",
    "TRDTC": "2022-09-02",
    "TRDY": 252
  },
  {
    "STUDYID": "KN868",
    "DOMAIN": "TR",
    "USUBJID": "KN868-0001-0018",
    "TRSEQ": 11,
    "TRLNKID": "T1",
    "TRTESTCD": "LDIAM",
    "TRTEST": "Longest Diameter",
    "TRORRES": 13.6,
    "TRORRESU": "mm",
    "TRSTRESN": 13.6,
    "TRSTRESU": "mm",
    "TREVAL": "INVESTIGATOR",
    "TRMETHOD": "CT SCAN",
    "VISITNUM": 6,
    "VISIT": "WEEK 45",
    "TRDTC": "2022-11-07",
    "TRDY": 315
  },
  {
    "STUDYID": "KN868",
    "DOMAIN": "TR",
    "USUBJID": "KN868-0001-0018",
    "TRSEQ": 12,
    "TRLNKID": "T2",
    "TRTESTCD": "LDIAM",
    "TRTEST": "Longest Diameter",
    "TRORRES": 41.4,
    "TRORRESU": "mm",
    "TRSTRESN": 41.4,
    "TRSTRESU": "mm",
    "TREVAL": "INVESTIGATOR",
    "TRMETHOD": "CT SCAN",
    "VISITNUM": 6,
    "VISIT": "WEEK 45",
    "TRDTC": "2022-11-03",
    "TRDY": 315
  },
  {
    "STUDYID": "KN868",
    "DOMAIN": "TR",
    "USUBJID": "KN868-0001-0018",
    "TRSEQ": 13,
    "TRLNKID": "T1",
    "TRTESTCD": "LDIAM",
    "TRTEST": "Longest Diameter",
    "TRORRES": 13.2,
    "TRORRESU": "mm",
    "TRSTRESN": 13.2,
    "TRSTRESU": "mm",
    "TREVAL": "INVESTIGATOR",
    "TRMETHOD": "CT SCAN",
    "VISITNUM": 7,
    "VISIT": "WEEK 54",
    "TRDTC": "2023-01-05",
    "TRDY": 378
  },
  {
    "STUDYID": "KN868",
    "DOMAIN": "TR",
    "USUBJID": "KN868-0001-0018",
    "TRSEQ": 14,
    "TRLNKID": "T2",
    "TRTESTCD": "LDIAM",
    "TRTEST": "Longest Diameter",
    "TRORRES": 38.8,
    "TRORRESU": "mm",
    "TRSTRESN": 38.8,
    "TRSTRESU": "mm",
    "TREVAL": "INVESTIGATOR",
    "TRMETHOD": "CT SCAN",
    "VISITNUM": 7,
    "VISIT": "WEEK 54",
    "TRDTC": "2023-01-06",
    "TRDY": 378
  },
  {
    "STUDYID": "KN868",
    "DOMAIN": "TR",
    "USUBJID": "KN868-0001-0018",
    "TRSEQ": 15,
    "TRLNKID": "T1",
    "TRTESTCD": "LDIAM",
    "TRTEST": "Longest Diameter",
    "TRORRES": 12,
    "TRORRESU": "mm",
    "TRSTRESN": 12,
    "TRSTRESU": "mm",
    "TREVAL": "INVESTIGATOR",
    "TRMETHOD": "CT SCAN",
    "VISITNUM": 8,
    "VISIT": "WEEK 63",
    "TRDTC": "2023-03-07",
    "TRDY": 441
  },
  {
    "STUDYID": "KN868",
    "DOMAIN": "TR",
    "USUBJID": "KN868-0001-0018",
    "TRSEQ": 16,
    "TRLNKID": "T2",
    "TRTESTCD": "LDIAM",
    "TRTEST": "Longest Diameter",
    "TRORRES": 36.9,
    "TRORRESU": "mm",
    "TRSTRESN": 36.9,
    "TRSTRESU": "mm",
    "TREVAL": "INVESTIGATOR",
    "TRMETHOD": "CT SCAN",
    "VISITNUM": 8,
    "VISIT": "WEEK 63",
    "TRDTC": "2023-03-09",
    "TRDY": 441
  },
  {
    "STUDYID": "KN868",
    "DOMAIN": "TR",
    "USUBJID": "KN868-0001-0018",
    "TRSEQ": 17,
    "TRLNKID": "T1",
    "TRTESTCD": "LDIAM",
    "TRTEST": "Longest Diameter",
    "TRORRES": 13.6,
    "TRORRESU": "mm",
    "TRSTRESN": 13.6,
    "TRSTRESU": "mm",
    "TREVAL": "INVESTIGATOR",
    "TRMETHOD": "CT SCAN",
    "VISITNUM": 9,
    "VISIT": "WEEK 72",
    "TRDTC": "2023-05-15",
    "TRDY": 504
  },
  {
    "STUDYID": "KN868",
    "DOMAIN": "TR",
    "USUBJID": "KN868-0001-0018",
    "TRSEQ": 18,
    "TRLNKID": "T2",
    "TRTESTCD": "LDIAM",
    "TRTEST": "Longest Diameter",
    "TRORRES": 41.2,
    "TRORRESU": "mm",
    "TRSTRESN": 41.2,
    "TRSTRESU": "mm",
    "TREVAL": "INVESTIGATOR",
    "TRMETHOD": "CT SCAN",
    "VISITNUM": 9,
    "VISIT": "WEEK 72",
    "TRDTC": "2023-05-10",
    "TRDY": 504
  },
  {
    "STUDYID": "KN868",
    "DOMAIN": "TR",
    "USUBJID": "KN868-0001-0019",
    "TRSEQ": 1,
    "TRLNKID": "T1",
    "TRTESTCD": "LDIAM",
    "TRTEST": "Longest Diameter",
    "TRORRES": 49.9,
    "TRORRESU": "mm",
    "TRSTRESN": 49.9,
    "TRSTRESU": "mm",
    "TREVAL": "INVESTIGATOR",
    "TRMETHOD": "CT SCAN",
    "VISITNUM": 1,
    "VISIT": "SCREENING",
    "TRDTC": "2020-04-07",
    "TRDY": -7
  },
  {
    "STUDYID": "KN868",
    "DOMAIN": "TR",
    "USUBJID": "KN868-0001-0019",
    "TRSEQ": 2,
    "TRLNKID": "T2",
    "TRTESTCD": "LDIAM",
    "TRTEST": "Longest Diameter",
    "TRORRES": 57,
    "TRORRESU": "mm",
    "TRSTRESN": 57,
    "TRSTRESU": "mm",
    "TREVAL": "INVESTIGATOR",
    "TRMETHOD": "CT SCAN",
    "VISITNUM": 1,
    "VISIT": "SCREENING",
    "TRDTC": "2020-04-03",
    "TRDY": -7
  },
  {
    "STUDYID": "KN868",
    "DOMAIN": "TR",
    "USUBJID": "KN868-0001-0019",
    "TRSEQ": 3,
    "TRLNKID": "T3",
    "TRTESTCD": "LDIAM",
    "TRTEST": "Longest Diameter",
    "TRORRES": 22.8,
    "TRORRESU": "mm",
    "TRSTRESN": 22.8,
    "TRSTRESU": "mm",
    "TREVAL": "INVESTIGATOR",
    "TRMETHOD": "CT SCAN",
    "VISITNUM": 1,
    "VISIT": "SCREENING",
    "TRDTC": "2020-04-08",
    "TRDY": -7
  },
  {
    "STUDYID": "KN868",
    "DOMAIN": "TR",
    "USUBJID": "KN868-0001-0019",
    "TRSEQ": 4,
    "TRLNKID": "T1",
    "TRTESTCD": "LDIAM",
    "TRTEST": "Longest Diameter",
    "TRORRES": 43.3,
    "TRORRESU": "mm",
    "TRSTRESN": 43.3,
    "TRSTRESU": "mm",
    "TREVAL": "INVESTIGATOR",
    "TRMETHOD": "CT SCAN",
    "VISITNUM": 2,
    "VISIT": "WEEK 9",
    "TRDTC": "2020-06-17",
    "TRDY": 63
  },
  {
    "STUDYID": "KN868",
    "DOMAIN": "TR",
    "USUBJID": "KN868-0001-0019",
    "TRSEQ": 5,
    "TRLNKID": "T2",
    "TRTESTCD": "LDIAM",
    "TRTEST": "Longest Diameter",
    "TRORRES": 53.1,
    "TRORRESU": "mm",
    "TRSTRESN": 53.1,
    "TRSTRESU": "mm",
    "TREVAL": "INVESTIGATOR",
    "TRMETHOD": "CT SCAN",
    "VISITNUM": 2,
    "VISIT": "WEEK 9",
    "TRDTC": "2020-06-12",
    "TRDY": 63
  },
  {
    "STUDYID": "KN868",
    "DOMAIN": "TR",
    "USUBJID": "KN868-0001-0019",
    "TRSEQ": 6,
    "TRLNKID": "T3",
    "TRTESTCD": "LDIAM",
    "TRTEST": "Longest Diameter",
    "TRORRES": 23.7,
    "TRORRESU": "mm",
    "TRSTRESN": 23.7,
    "TRSTRESU": "mm",
    "TREVAL": "INVESTIGATOR",
    "TRMETHOD": "CT SCAN",
    "VISITNUM": 2,
    "VISIT": "WEEK 9",
    "TRDTC": "2020-06-13",
    "TRDY": 63
  },
  {
    "STUDYID": "KN868",
    "DOMAIN": "TR",
    "USUBJID": "KN868-0001-0019",
    "TRSEQ": 7,
    "TRLNKID": "T1",
    "TRTESTCD": "LDIAM",
    "TRTEST": "Longest Diameter",
    "TRORRES": 45.8,
    "TRORRESU": "mm",
    "TRSTRESN": 45.8,
    "TRSTRESU": "mm",
    "TREVAL": "INVESTIGATOR",
    "TRMETHOD": "CT SCAN",
    "VISITNUM": 3,
    "VISIT": "WEEK 18",
    "TRDTC": "2020-08-16",
    "TRDY": 126
  },
  {
    "STUDYID": "KN868",
    "DOMAIN": "TR",
    "USUBJID": "KN868-0001-0019",
    "TRSEQ": 8,
    "TRLNKID": "T2",
    "TRTESTCD": "LDIAM",
    "TRTEST": "Longest Diameter",
    "TRORRES": 51.1,
    "TRORRESU": "mm",
    "TRSTRESN": 51.1,
    "TRSTRESU": "mm",
    "TREVAL": "INVESTIGATOR",
    "TRMETHOD": "CT SCAN",
    "VISITNUM": 3,
    "VISIT": "WEEK 18",
    "TRDTC": "2020-08-19",
    "TRDY": 126
  },
  {
    "STUDYID": "KN868",
    "DOMAIN": "TR",
    "USUBJID": "KN868-0001-0019",
    "TRSEQ": 9,
    "TRLNKID": "T3",
    "TRTESTCD": "LDIAM",
    "TRTEST": "Longest Diameter",
    "TRORRES": 20.9,
    "TRORRESU": "mm",
    "TRSTRESN": 20.9,
    "TRSTRESU": "mm",
    "TREVAL": "INVESTIGATOR",
    "TRMETHOD": "CT SCAN",
    "VISITNUM": 3,
    "VISIT": "WEEK 18",
    "TRDTC": "2020-08-15",
    "TRDY": 126
  },
  {
    "STUDYID": "KN868",
    "DOMAIN": "TR",
    "USUBJID": "KN868-0001-0019",
    "TRSEQ": 10,
    "TRLNKID": "T1",
    "TRTESTCD": "LDIAM",
    "TRTEST": "Longest Diameter",
    "TRORRES": 43.1,
    "TRORRESU": "mm",
    "TRSTRESN": 43.1,
    "TRSTRESU": "mm",
    "TREVAL": "INVESTIGATOR",
    "TRMETHOD": "CT SCAN",
    "VISITNUM": 4,
    "VISIT": "WEEK 27",
    "TRDTC": "2020-10-21",
    "TRDY": 189
  },
  {
    "STUDYID": "KN868",
    "DOMAIN": "TR",
    "USUBJID": "KN868-0001-0019",
    "TRSEQ": 11,
    "TRLNKID": "T2",
    "TRTESTCD": "LDIAM",
    "TRTEST": "Longest Diameter",
    "TRORRES": 62.4,
    "TRORRESU": "mm",
    "TRSTRESN": 62.4,
    "TRSTRESU": "mm",
    "TREVAL": "INVESTIGATOR",
    "TRMETHOD": "CT SCAN",
    "VISITNUM": 4,
    "VISIT": "WEEK 27",
    "TRDTC": "2020-10-18",
    "TRDY": 189
  },
  {
    "STUDYID": "KN868",
    "DOMAIN": "TR",
    "USUBJID": "KN868-0001-0019",
    "TRSEQ": 12,
    "TRLNKID": "T3",
    "TRTESTCD": "LDIAM",
    "TRTEST": "Longest Diameter",
    "TRORRES": 23.3,
    "TRORRESU": "mm",
    "TRSTRESN": 23.3,
    "TRSTRESU": "mm",
    "TREVAL": "INVESTIGATOR",
    "TRMETHOD": "CT SCAN",
    "VISITNUM": 4,
    "VISIT": "WEEK 27",
    "TRDTC": "2020-10-22",
    "TRDY": 189
  },
  {
    "STUDYID": "KN868",
    "DOMAIN": "TR",
    "USUBJID": "KN868-0001-0019",
    "TRSEQ": 13,
    "TRLNKID": "T1",
    "TRTESTCD": "LDIAM",
    "TRTEST": "Longest Diameter",
    "TRORRES": 56.5,
    "TRORRESU": "mm",
    "TRSTRESN": 56.5,
    "TRSTRESU": "mm",
    "TREVAL": "INVESTIGATOR",
    "TRMETHOD": "CT SCAN",
    "VISITNUM": 5,
    "VISIT": "WEEK 36",
    "TRDTC": "2020-12-24",
    "TRDY": 252
  },
  {
    "STUDYID": "KN868",
    "DOMAIN": "TR",
    "USUBJID": "KN868-0001-0019",
    "TRSEQ": 14,
    "TRLNKID": "T2",
    "TRTESTCD": "LDIAM",
    "TRTEST": "Longest Diameter",
    "TRORRES": 59.9,
    "TRORRESU": "mm",
    "TRSTRESN": 59.9,
    "TRSTRESU": "mm",
    "TREVAL": "INVESTIGATOR",
    "TRMETHOD": "CT SCAN",
    "VISITNUM": 5,
    "VISIT": "WEEK 36",
    "TRDTC": "2020-12-21",
    "TRDY": 252
  },
  {
    "STUDYID": "KN868",
    "DOMAIN": "TR",
    "USUBJID": "KN868-0001-0019",
    "TRSEQ": 15,
    "TRLNKID": "T3",
    "TRTESTCD": "LDIAM",
    "TRTEST": "Longest Diameter",
    "TRORRES": 20.8,
    "TRORRESU": "mm",
    "TRSTRESN": 20.8,
    "TRSTRESU": "mm",
    "TREVAL": "INVESTIGATOR",
    "TRMETHOD": "CT SCAN",
    "VISITNUM": 5,
    "VISIT": "WEEK 36",
    "TRDTC": "2020-12-22",
    "TRDY": 252
  },
  {
    "STUDYID": "KN868",
    "DOMAIN": "TR",
    "USUBJID": "KN868-0001-0019",
    "TRSEQ": 16,
    "TRLNKID": "T1",
    "TRTESTCD": "LDIAM",
    "TRTEST": "Longest Diameter",
    "TRORRES": 54.7,
    "TRORRESU": "mm",
    "TRSTRESN": 54.7,
    "TRSTRESU": "mm",
    "TREVAL": "INVESTIGATOR",
    "TRMETHOD": "CT SCAN",
    "VISITNUM": 6,
    "VISIT": "WEEK 45",
    "TRDTC": "2021-02-23",
    "TRDY": 315
  },
  {
    "STUDYID": "KN868",
    "DOMAIN": "TR",
    "USUBJID": "KN868-0001-0019",
    "TRSEQ": 17,
    "TRLNKID": "T2",
    "TRTESTCD": "LDIAM",
    "TRTEST": "Longest Diameter",
    "TRORRES": 49.6,
    "TRORRESU": "mm",
    "TRSTRESN": 49.6,
    "TRSTRESU": "mm",
    "TREVAL": "INVESTIGATOR",
    "TRMETHOD": "CT SCAN",
    "VISITNUM": 6,
    "VISIT": "WEEK 45",
    "TRDTC": "2021-02-24",
    "TRDY": 315
  },
  {
    "STUDYID": "KN868",
    "DOMAIN": "TR",
    "USUBJID": "KN868-0001-0019",
    "TRSEQ": 18,
    "TRLNKID": "T3",
    "TRTESTCD": "LDIAM",
    "TRTEST": "Longest Diameter",
    "TRORRES": 24.5,
    "TRORRESU": "mm",
    "TRSTRESN": 24.5,
    "TRSTRESU": "mm",
    "TREVAL": "INVESTIGATOR",
    "TRMETHOD": "CT SCAN",
    "VISITNUM": 6,
    "VISIT": "WEEK 45",
    "TRDTC": "2021-02-24",
    "TRDY": 315
  },
  {
    "STUDYID": "KN868",
    "DOMAIN": "TR",
    "USUBJID": "KN868-0001-0019",
    "TRSEQ": 19,
    "TRLNKID": "T1",
    "TRTESTCD": "LDIAM",
    "TRTEST": "Longest Diameter",
    "TRORRES": 46,
    "TRORRESU": "mm",
    "TRSTRESN": 46,
    "TRSTRESU": "mm",
    "TREVAL": "INVESTIGATOR",
    "TRMETHOD": "CT SCAN",
    "VISITNUM": 7,
    "VISIT": "WEEK 54",
    "TRDTC": "2021-04-26",
    "TRDY": 378
  },
  {
    "STUDYID": "KN868",
    "DOMAIN": "TR",
    "USUBJID": "KN868-0001-0019",
    "TRSEQ": 20,
    "TRLNKID": "T2",
    "TRTESTCD": "LDIAM",
    "TRTEST": "Longest Diameter",
    "TRORRES": 55.4,
    "TRORRESU": "mm",
    "TRSTRESN": 55.4,
    "TRSTRESU": "mm",
    "TREVAL": "INVESTIGATOR",
    "TRMETHOD": "CT SCAN",
    "VISITNUM": 7,
    "VISIT": "WEEK 54",
    "TRDTC": "2021-04-26",
    "TRDY": 378
  },
  {
    "STUDYID": "KN868",
    "DOMAIN": "TR",
    "USUBJID": "KN868-0001-0019",
    "TRSEQ": 21,
    "TRLNKID": "T3",
    "TRTESTCD": "LDIAM",
    "TRTEST": "Longest Diameter",
    "TRORRES": 23.7,
    "TRORRESU": "mm",
    "TRSTRESN": 23.7,
    "TRSTRESU": "mm",
    "TREVAL": "INVESTIGATOR",
    "TRMETHOD": "CT SCAN",
    "VISITNUM": 7,
    "VISIT": "WEEK 54",
    "TRDTC": "2021-04-27",
    "TRDY": 378
  },
  {
    "STUDYID": "KN868",
    "DOMAIN": "TR",
    "USUBJID": "KN868-0001-0019",
    "TRSEQ": 22,
    "TRLNKID": "T1",
    "TRTESTCD": "LDIAM",
    "TRTEST": "Longest Diameter",
    "TRORRES": 56.6,
    "TRORRESU": "mm",
    "TRSTRESN": 56.6,
    "TRSTRESU": "mm",
    "TREVAL": "INVESTIGATOR",
    "TRMETHOD": "CT SCAN",
    "VISITNUM": 8,
    "VISIT": "WEEK 63",
    "TRDTC": "2021-06-28",
    "TRDY": 441
  },
  {
    "STUDYID": "KN868",
    "DOMAIN": "TR",
    "USUBJID": "KN868-0001-0019",
    "TRSEQ": 23,
    "TRLNKID": "T2",
    "TRTESTCD": "LDIAM",
    "TRTEST": "Longest Diameter",
    "TRORRES": 54.6,
    "TRORRESU": "mm",
    "TRSTRESN": 54.6,
    "TRSTRESU": "mm",
    "TREVAL": "INVESTIGATOR",
    "TRMETHOD": "CT SCAN",
    "VISITNUM": 8,
    "VISIT": "WEEK 63",
    "TRDTC": "2021-07-01",
    "TRDY": 441
  },
  {
    "STUDYID": "KN868",
    "DOMAIN": "TR",
    "USUBJID": "KN868-0001-0019",
    "TRSEQ": 24,
    "TRLNKID": "T3",
    "TRTESTCD": "LDIAM",
    "TRTEST": "Longest Diameter",
    "TRORRES": 22,
    "TRORRESU": "mm",
    "TRSTRESN": 22,
    "TRSTRESU": "mm",
    "TREVAL": "INVESTIGATOR",
    "TRMETHOD": "CT SCAN",
    "VISITNUM": 8,
    "VISIT": "WEEK 63",
    "TRDTC": "2021-06-25",
    "TRDY": 441
  },
  {
    "STUDYID": "KN868",
    "DOMAIN": "TR",
    "USUBJID": "KN868-0001-0019",
    "TRSEQ": 25,
    "TRLNKID": "T1",
    "TRTESTCD": "LDIAM",
    "TRTEST": "Longest Diameter",
    "TRORRES": 54.7,
    "TRORRESU": "mm",
    "TRSTRESN": 54.7,
    "TRSTRESU": "mm",
    "TREVAL": "INVESTIGATOR",
    "TRMETHOD": "CT SCAN",
    "VISITNUM": 9,
    "VISIT": "WEEK 72",
    "TRDTC": "2021-08-29",
    "TRDY": 504
  },
  {
    "STUDYID": "KN868",
    "DOMAIN": "TR",
    "USUBJID": "KN868-0001-0019",
    "TRSEQ": 26,
    "TRLNKID": "T2",
    "TRTESTCD": "LDIAM",
    "TRTEST": "Longest Diameter",
    "TRORRES": 54.5,
    "TRORRESU": "mm",
    "TRSTRESN": 54.5,
    "TRSTRESU": "mm",
    "TREVAL": "INVESTIGATOR",
    "TRMETHOD": "CT SCAN",
    "VISITNUM": 9,
    "VISIT": "WEEK 72",
    "TRDTC": "2021-09-01",
    "TRDY": 504
  },
  {
    "STUDYID": "KN868",
    "DOMAIN": "TR",
    "USUBJID": "KN868-0001-0019",
    "TRSEQ": 27,
    "TRLNKID": "T3",
    "TRTESTCD": "LDIAM",
    "TRTEST": "Longest Diameter",
    "TRORRES": 21.9,
    "TRORRESU": "mm",
    "TRSTRESN": 21.9,
    "TRSTRESU": "mm",
    "TREVAL": "INVESTIGATOR",
    "TRMETHOD": "CT SCAN",
    "VISITNUM": 9,
    "VISIT": "WEEK 72",
    "TRDTC": "2021-08-30",
    "TRDY": 504
  },
  {
    "STUDYID": "KN868",
    "DOMAIN": "TR",
    "USUBJID": "KN868-0001-0020",
    "TRSEQ": 1,
    "TRLNKID": "T1",
    "TRTESTCD": "LDIAM",
    "TRTEST": "Longest Diameter",
    "TRORRES": 50.5,
    "TRORRESU": "mm",
    "TRSTRESN": 50.5,
    "TRSTRESU": "mm",
    "TREVAL": "INVESTIGATOR",
    "TRMETHOD": "CT SCAN",
    "VISITNUM": 1,
    "VISIT": "SCREENING",
    "TRDTC": "2021-06-04",
    "TRDY": -7
  },
  {
    "STUDYID": "KN868",
    "DOMAIN": "TR",
    "USUBJID": "KN868-0001-0020",
    "TRSEQ": 2,
    "TRLNKID": "T2",
    "TRTESTCD": "LDIAM",
    "TRTEST": "Longest Diameter",
    "TRORRES": 58,
    "TRORRESU": "mm",
    "TRSTRESN": 58,
    "TRSTRESU": "mm",
    "TREVAL": "INVESTIGATOR",
    "TRMETHOD": "CT SCAN",
    "VISITNUM": 1,
    "VISIT": "SCREENING",
    "TRDTC": "2021-06-08",
    "TRDY": -7
  },
  {
    "STUDYID": "KN868",
    "DOMAIN": "TR",
    "USUBJID": "KN868-0001-0020",
    "TRSEQ": 3,
    "TRLNKID": "T1",
    "TRTESTCD": "LDIAM",
    "TRTEST": "Longest Diameter",
    "TRORRES": 52.2,
    "TRORRESU": "mm",
    "TRSTRESN": 52.2,
    "TRSTRESU": "mm",
    "TREVAL": "INVESTIGATOR",
    "TRMETHOD": "CT SCAN",
    "VISITNUM": 2,
    "VISIT": "WEEK 9",
    "TRDTC": "2021-08-11",
    "TRDY": 63
  },
  {
    "STUDYID": "KN868",
    "DOMAIN": "TR",
    "USUBJID": "KN868-0001-0020",
    "TRSEQ": 4,
    "TRLNKID": "T2",
    "TRTESTCD": "LDIAM",
    "TRTEST": "Longest Diameter",
    "TRORRES": 59.7,
    "TRORRESU": "mm",
    "TRSTRESN": 59.7,
    "TRSTRESU": "mm",
    "TREVAL": "INVESTIGATOR",
    "TRMETHOD": "CT SCAN",
    "VISITNUM": 2,
    "VISIT": "WEEK 9",
    "TRDTC": "2021-08-15",
    "TRDY": 63
  },
  {
    "STUDYID": "KN868",
    "DOMAIN": "TR",
    "USUBJID": "KN868-0001-0020",
    "TRSEQ": 5,
    "TRLNKID": "T1",
    "TRTESTCD": "LDIAM",
    "TRTEST": "Longest Diameter",
    "TRORRES": 52.7,
    "TRORRESU": "mm",
    "TRSTRESN": 52.7,
    "TRSTRESU": "mm",
    "TREVAL": "INVESTIGATOR",
    "TRMETHOD": "CT SCAN",
    "VISITNUM": 3,
    "VISIT": "WEEK 18",
    "TRDTC": "2021-10-15",
    "TRDY": 126
  },
  {
    "STUDYID": "KN868",
    "DOMAIN": "TR",
    "USUBJID": "KN868-0001-0020",
    "TRSEQ": 6,
    "TRLNKID": "T2",
    "TRTESTCD": "LDIAM",
    "TRTEST": "Longest Diameter",
    "TRORRES": 52.9,
    "TRORRESU": "mm",
    "TRSTRESN": 52.9,
    "TRSTRESU": "mm",
    "TREVAL": "INVESTIGATOR",
    "TRMETHOD": "CT SCAN",
    "VISITNUM": 3,
    "VISIT": "WEEK 18",
    "TRDTC": "2021-10-18",
    "TRDY": 126
  },
  {
    "STUDYID": "KN868",
    "DOMAIN": "TR",
    "USUBJID": "KN868-0001-0020",
    "TRSEQ": 7,
    "TRLNKID": "T1",
    "TRTESTCD": "LDIAM",
    "TRTEST": "Longest Diameter",
    "TRORRES": 45,
    "TRORRESU": "mm",
    "TRSTRESN": 45,
    "TRSTRESU": "mm",
    "TREVAL": "INVESTIGATOR",
    "TRMETHOD": "CT SCAN",
    "VISITNUM": 4,
    "VISIT": "WEEK 27",
    "TRDTC": "2021-12-15",
    "TRDY": 189
  },
  {
    "STUDYID": "KN868",
    "DOMAIN": "TR",
    "USUBJID": "KN868-0001-0020",
    "TRSEQ": 8,
    "TRLNKID": "T2",
    "TRTESTCD": "LDIAM",
    "TRTEST": "Longest Diameter",
    "TRORRES": 54.7,
    "TRORRESU": "mm",
    "TRSTRESN": 54.7,
    "TRSTRESU": "mm",
    "TREVAL": "INVESTIGATOR",
    "TRMETHOD": "CT SCAN",
    "VISITNUM": 4,
    "VISIT": "WEEK 27",
    "TRDTC": "2021-12-16",
    "TRDY": 189
  },
  {
    "STUDYID": "KN868",
    "DOMAIN": "TR",
    "USUBJID": "KN868-0001-0020",
    "TRSEQ": 9,
    "TRLNKID": "T1",
    "TRTESTCD": "LDIAM",
    "TRTEST": "Longest Diameter",
    "TRORRES": 57.6,
    "TRORRESU": "mm",
    "TRSTRESN": 57.6,
    "TRSTRESU": "mm",
    "TREVAL": "INVESTIGATOR",
    "TRMETHOD": "CT SCAN",
    "VISITNUM": 5,
    "VISIT": "WEEK 36",
    "TRDTC": "2022-02-19",
    "TRDY": 252
  },
  {
    "STUDYID": "KN868",
    "DOMAIN": "TR",
    "USUBJID": "KN868-0001-0020",
    "TRSEQ": 10,
    "TRLNKID": "T2",
    "TRTESTCD": "LDIAM",
    "TRTEST": "Longest Diameter",
    "TRORRES": 63.8,
    "TRORRESU": "mm",
    "TRSTRESN": 63.8,
    "TRSTRESU": "mm",
    "TREVAL": "INVESTIGATOR",
    "TRMETHOD": "CT SCAN",
    "VISITNUM": 5,
    "VISIT": "WEEK 36",
    "TRDTC": "2022-02-22",
    "TRDY": 252
  },
  {
    "STUDYID": "KN868",
    "DOMAIN": "TR",
    "USUBJID": "KN868-0001-0020",
    "TRSEQ": 11,
    "TRLNKID": "T1",
    "TRTESTCD": "LDIAM",
    "TRTEST": "Longest Diameter",
    "TRORRES": 50.6,
    "TRORRESU": "mm",
    "TRSTRESN": 50.6,
    "TRSTRESU": "mm",
    "TREVAL": "INVESTIGATOR",
    "TRMETHOD": "CT SCAN",
    "VISITNUM": 6,
    "VISIT": "WEEK 45",
    "TRDTC": "2022-04-23",
    "TRDY": 315
  },
  {
    "STUDYID": "KN868",
    "DOMAIN": "TR",
    "USUBJID": "KN868-0001-0020",
    "TRSEQ": 12,
    "TRLNKID": "T2",
    "TRTESTCD": "LDIAM",
    "TRTEST": "Longest Diameter",
    "TRORRES": 65,
    "TRORRESU": "mm",
    "TRSTRESN": 65,
    "TRSTRESU": "mm",
    "TREVAL": "INVESTIGATOR",
    "TRMETHOD": "CT SCAN",
    "VISITNUM": 6,
    "VISIT": "WEEK 45",
    "TRDTC": "2022-04-26",
    "TRDY": 315
  },
  {
    "STUDYID": "KN868",
    "DOMAIN": "TR",
    "USUBJID": "KN868-0001-0020",
    "TRSEQ": 13,
    "TRLNKID": "T1",
    "TRTESTCD": "LDIAM",
    "TRTEST": "Longest Diameter",
    "TRORRES": 43,
    "TRORRESU": "mm",
    "TRSTRESN": 43,
    "TRSTRESU": "mm",
    "TREVAL": "INVESTIGATOR",
    "TRMETHOD": "CT SCAN",
    "VISITNUM": 7,
    "VISIT": "WEEK 54",
    "TRDTC": "2022-06-26",
    "TRDY": 378
  },
  {
    "STUDYID": "KN868",
    "DOMAIN": "TR",
    "USUBJID": "KN868-0001-0020",
    "TRSEQ": 14,
    "TRLNKID": "T2",
    "TRTESTCD": "LDIAM",
    "TRTEST": "Longest Diameter",
    "TRORRES": 63.6,
    "TRORRESU": "mm",
    "TRSTRESN": 63.6,
    "TRSTRESU": "mm",
    "TREVAL": "INVESTIGATOR",
    "TRMETHOD": "CT SCAN",
    "VISITNUM": 7,
    "VISIT": "WEEK 54",
    "TRDTC": "2022-06-24",
    "TRDY": 378
  },
  {
    "STUDYID": "KN868",
    "DOMAIN": "TR",
    "USUBJID": "KN868-0001-0020",
    "TRSEQ": 15,
    "TRLNKID": "T1",
    "TRTESTCD": "LDIAM",
    "TRTEST": "Longest Diameter",
    "TRORRES": 48.2,
    "TRORRESU": "mm",
    "TRSTRESN": 48.2,
    "TRSTRESU": "mm",
    "TREVAL": "INVESTIGATOR",
    "TRMETHOD": "CT SCAN",
    "VISITNUM": 8,
    "VISIT": "WEEK 63",
    "TRDTC": "2022-08-25",
    "TRDY": 441
  },
  {
    "STUDYID": "KN868",
    "DOMAIN": "TR",
    "USUBJID": "KN868-0001-0020",
    "TRSEQ": 16,
    "TRLNKID": "T2",
    "TRTESTCD": "LDIAM",
    "TRTEST": "Longest Diameter",
    "TRORRES": 55.3,
    "TRORRESU": "mm",
    "TRSTRESN": 55.3,
    "TRSTRESU": "mm",
    "TREVAL": "INVESTIGATOR",
    "TRMETHOD": "CT SCAN",
    "VISITNUM": 8,
    "VISIT": "WEEK 63",
    "TRDTC": "2022-08-30",
    "TRDY": 441
  },
  {
    "STUDYID": "KN868",
    "DOMAIN": "TR",
    "USUBJID": "KN868-0001-0020",
    "TRSEQ": 17,
    "TRLNKID": "T1",
    "TRTESTCD": "LDIAM",
    "TRTEST": "Longest Diameter",
    "TRORRES": 51.2,
    "TRORRESU": "mm",
    "TRSTRESN": 51.2,
    "TRSTRESU": "mm",
    "TREVAL": "INVESTIGATOR",
    "TRMETHOD": "CT SCAN",
    "VISITNUM": 9,
    "VISIT": "WEEK 72",
    "TRDTC": "2022-10-30",
    "TRDY": 504
  },
  {
    "STUDYID": "KN868",
    "DOMAIN": "TR",
    "USUBJID": "KN868-0001-0020",
    "TRSEQ": 18,
    "TRLNKID": "T2",
    "TRTESTCD": "LDIAM",
    "TRTEST": "Longest Diameter",
    "TRORRES": 59.8,
    "TRORRESU": "mm",
    "TRSTRESN": 59.8,
    "TRSTRESU": "mm",
    "TREVAL": "INVESTIGATOR",
    "TRMETHOD": "CT SCAN",
    "VISITNUM": 9,
    "VISIT": "WEEK 72",
    "TRDTC": "2022-10-30",
    "TRDY": 504
  },
  {
    "STUDYID": "KN868",
    "DOMAIN": "TR",
    "USUBJID": "KN868-0001-0021",
    "TRSEQ": 1,
    "TRLNKID": "T1",
    "TRTESTCD": "LDIAM",
    "TRTEST": "Longest Diameter",
    "TRORRES": 29.4,
    "TRORRESU": "mm",
    "TRSTRESN": 29.4,
    "TRSTRESU": "mm",
    "TREVAL": "INVESTIGATOR",
    "TRMETHOD": "CT SCAN",
    "VISITNUM": 1,
    "VISIT": "SCREENING",
    "TRDTC": "2021-04-10",
    "TRDY": -7
  },
  {
    "STUDYID": "KN868",
    "DOMAIN": "TR",
    "USUBJID": "KN868-0001-0021",
    "TRSEQ": 2,
    "TRLNKID": "T2",
    "TRTESTCD": "LDIAM",
    "TRTEST": "Longest Diameter",
    "TRORRES": 52,
    "TRORRESU": "mm",
    "TRSTRESN": 52,
    "TRSTRESU": "mm",
    "TREVAL": "INVESTIGATOR",
    "TRMETHOD": "CT SCAN",
    "VISITNUM": 1,
    "VISIT": "SCREENING",
    "TRDTC": "2021-04-09",
    "TRDY": -7
  },
  {
    "STUDYID": "KN868",
    "DOMAIN": "TR",
    "USUBJID": "KN868-0001-0021",
    "TRSEQ": 3,
    "TRLNKID": "T3",
    "TRTESTCD": "LDIAM",
    "TRTEST": "Longest Diameter",
    "TRORRES": 46,
    "TRORRESU": "mm",
    "TRSTRESN": 46,
    "TRSTRESU": "mm",
    "TREVAL": "INVESTIGATOR",
    "TRMETHOD": "CT SCAN",
    "VISITNUM": 1,
    "VISIT": "SCREENING",
    "TRDTC": "2021-04-10",
    "TRDY": -7
  },
  {
    "STUDYID": "KN868",
    "DOMAIN": "TR",
    "USUBJID": "KN868-0001-0021",
    "TRSEQ": 4,
    "TRLNKID": "T1",
    "TRTESTCD": "LDIAM",
    "TRTEST": "Longest Diameter",
    "TRORRES": 32.4,
    "TRORRESU": "mm",
    "TRSTRESN": 32.4,
    "TRSTRESU": "mm",
    "TREVAL": "INVESTIGATOR",
    "TRMETHOD": "CT SCAN",
    "VISITNUM": 2,
    "VISIT": "WEEK 9",
    "TRDTC": "2021-06-13",
    "TRDY": 63
  },
  {
    "STUDYID": "KN868",
    "DOMAIN": "TR",
    "USUBJID": "KN868-0001-0021",
    "TRSEQ": 5,
    "TRLNKID": "T2",
    "TRTESTCD": "LDIAM",
    "TRTEST": "Longest Diameter",
    "TRORRES": 71.7,
    "TRORRESU": "mm",
    "TRSTRESN": 71.7,
    "TRSTRESU": "mm",
    "TREVAL": "INVESTIGATOR",
    "TRMETHOD": "CT SCAN",
    "VISITNUM": 2,
    "VISIT": "WEEK 9",
    "TRDTC": "2021-06-16",
    "TRDY": 63
  },
  {
    "STUDYID": "KN868",
    "DOMAIN": "TR",
    "USUBJID": "KN868-0001-0021",
    "TRSEQ": 6,
    "TRLNKID": "T3",
    "TRTESTCD": "LDIAM",
    "TRTEST": "Longest Diameter",
    "TRORRES": 62.4,
    "TRORRESU": "mm",
    "TRSTRESN": 62.4,
    "TRSTRESU": "mm",
    "TREVAL": "INVESTIGATOR",
    "TRMETHOD": "CT SCAN",
    "VISITNUM": 2,
    "VISIT": "WEEK 9",
    "TRDTC": "2021-06-19",
    "TRDY": 63
  },
  {
    "STUDYID": "KN868",
    "DOMAIN": "TR",
    "USUBJID": "KN868-0001-0021",
    "TRSEQ": 7,
    "TRLNKID": "T1",
    "TRTESTCD": "LDIAM",
    "TRTEST": "Longest Diameter",
    "TRORRES": 39.9,
    "TRORRESU": "mm",
    "TRSTRESN": 39.9,
    "TRSTRESU": "mm",
    "TREVAL": "INVESTIGATOR",
    "TRMETHOD": "CT SCAN",
    "VISITNUM": 3,
    "VISIT": "WEEK 18",
    "TRDTC": "2021-08-17",
    "TRDY": 126
  },
  {
    "STUDYID": "KN868",
    "DOMAIN": "TR",
    "USUBJID": "KN868-0001-0021",
    "TRSEQ": 8,
    "TRLNKID": "T2",
    "TRTESTCD": "LDIAM",
    "TRTEST": "Longest Diameter",
    "TRORRES": 64,
    "TRORRESU": "mm",
    "TRSTRESN": 64,
    "TRSTRESU": "mm",
    "TREVAL": "INVESTIGATOR",
    "TRMETHOD": "CT SCAN",
    "VISITNUM": 3,
    "VISIT": "WEEK 18",
    "TRDTC": "2021-08-18",
    "TRDY": 126
  },
  {
    "STUDYID": "KN868",
    "DOMAIN": "TR",
    "USUBJID": "KN868-0001-0021",
    "TRSEQ": 9,
    "TRLNKID": "T3",
    "TRTESTCD": "LDIAM",
    "TRTEST": "Longest Diameter",
    "TRORRES": 62.2,
    "TRORRESU": "mm",
    "TRSTRESN": 62.2,
    "TRSTRESU": "mm",
    "TREVAL": "INVESTIGATOR",
    "TRMETHOD": "CT SCAN",
    "VISITNUM": 3,
    "VISIT": "WEEK 18",
    "TRDTC": "2021-08-16",
    "TRDY": 126
  },
  {
    "STUDYID": "KN868",
    "DOMAIN": "TR",
    "USUBJID": "KN868-0001-0021",
    "TRSEQ": 10,
    "TRLNKID": "T1",
    "TRTESTCD": "LDIAM",
    "TRTEST": "Longest Diameter",
    "TRORRES": 47.1,
    "TRORRESU": "mm",
    "TRSTRESN": 47.1,
    "TRSTRESU": "mm",
    "TREVAL": "INVESTIGATOR",
    "TRMETHOD": "CT SCAN",
    "VISITNUM": 4,
    "VISIT": "WEEK 27",
    "TRDTC": "2021-10-19",
    "TRDY": 189
  },
  {
    "STUDYID": "KN868",
    "DOMAIN": "TR",
    "USUBJID": "KN868-0001-0021",
    "TRSEQ": 11,
    "TRLNKID": "T2",
    "TRTESTCD": "LDIAM",
    "TRTEST": "Longest Diameter",
    "TRORRES": 73.1,
    "TRORRESU": "mm",
    "TRSTRESN": 73.1,
    "TRSTRESU": "mm",
    "TREVAL": "INVESTIGATOR",
    "TRMETHOD": "CT SCAN",
    "VISITNUM": 4,
    "VISIT": "WEEK 27",
    "TRDTC": "2021-10-20",
    "TRDY": 189
  },
  {
    "STUDYID": "KN868",
    "DOMAIN": "TR",
    "USUBJID": "KN868-0001-0021",
    "TRSEQ": 12,
    "TRLNKID": "T3",
    "TRTESTCD": "LDIAM",
    "TRTEST": "Longest Diameter",
    "TRORRES": 73.1,
    "TRORRESU": "mm",
    "TRSTRESN": 73.1,
    "TRSTRESU": "mm",
    "TREVAL": "INVESTIGATOR",
    "TRMETHOD": "CT SCAN",
    "VISITNUM": 4,
    "VISIT": "WEEK 27",
    "TRDTC": "2021-10-20",
    "TRDY": 189
  },
  {
    "STUDYID": "KN868",
    "DOMAIN": "TR",
    "USUBJID": "KN868-0001-0021",
    "TRSEQ": 13,
    "TRLNKID": "T1",
    "TRTESTCD": "LDIAM",
    "TRTEST": "Longest Diameter",
    "TRORRES": 40.3,
    "TRORRESU": "mm",
    "TRSTRESN": 40.3,
    "TRSTRESU": "mm",
    "TREVAL": "INVESTIGATOR",
    "TRMETHOD": "CT SCAN",
    "VISITNUM": 5,
    "VISIT": "WEEK 36",
    "TRDTC": "2021-12-23",
    "TRDY": 252
  },
  {
    "STUDYID": "KN868",
    "DOMAIN": "TR",
    "USUBJID": "KN868-0001-0021",
    "TRSEQ": 14,
    "TRLNKID": "T2",
    "TRTESTCD": "LDIAM",
    "TRTEST": "Longest Diameter",
    "TRORRES": 72.2,
    "TRORRESU": "mm",
    "TRSTRESN": 72.2,
    "TRSTRESU": "mm",
    "TREVAL": "INVESTIGATOR",
    "TRMETHOD": "CT SCAN",
    "VISITNUM": 5,
    "VISIT": "WEEK 36",
    "TRDTC": "2021-12-23",
    "TRDY": 252
  },
  {
    "STUDYID": "KN868",
    "DOMAIN": "TR",
    "USUBJID": "KN868-0001-0021",
    "TRSEQ": 15,
    "TRLNKID": "T3",
    "TRTESTCD": "LDIAM",
    "TRTEST": "Longest Diameter",
    "TRORRES": 73.4,
    "TRORRESU": "mm",
    "TRSTRESN": 73.4,
    "TRSTRESU": "mm",
    "TREVAL": "INVESTIGATOR",
    "TRMETHOD": "CT SCAN",
    "VISITNUM": 5,
    "VISIT": "WEEK 36",
    "TRDTC": "2021-12-23",
    "TRDY": 252
  },
  {
    "STUDYID": "KN868",
    "DOMAIN": "TR",
    "USUBJID": "KN868-0001-0021",
    "TRSEQ": 16,
    "TRLNKID": "T1",
    "TRTESTCD": "LDIAM",
    "TRTEST": "Longest Diameter",
    "TRORRES": 48.1,
    "TRORRESU": "mm",
    "TRSTRESN": 48.1,
    "TRSTRESU": "mm",
    "TREVAL": "INVESTIGATOR",
    "TRMETHOD": "CT SCAN",
    "VISITNUM": 6,
    "VISIT": "WEEK 45",
    "TRDTC": "2022-02-24",
    "TRDY": 315
  },
  {
    "STUDYID": "KN868",
    "DOMAIN": "TR",
    "USUBJID": "KN868-0001-0021",
    "TRSEQ": 17,
    "TRLNKID": "T2",
    "TRTESTCD": "LDIAM",
    "TRTEST": "Longest Diameter",
    "TRORRES": 90.8,
    "TRORRESU": "mm",
    "TRSTRESN": 90.8,
    "TRSTRESU": "mm",
    "TREVAL": "INVESTIGATOR",
    "TRMETHOD": "CT SCAN",
    "VISITNUM": 6,
    "VISIT": "WEEK 45",
    "TRDTC": "2022-02-22",
    "TRDY": 315
  },
  {
    "STUDYID": "KN868",
    "DOMAIN": "TR",
    "USUBJID": "KN868-0001-0021",
    "TRSEQ": 18,
    "TRLNKID": "T3",
    "TRTESTCD": "LDIAM",
    "TRTEST": "Longest Diameter",
    "TRORRES": 72.9,
    "TRORRESU": "mm",
    "TRSTRESN": 72.9,
    "TRSTRESU": "mm",
    "TREVAL": "INVESTIGATOR",
    "TRMETHOD": "CT SCAN",
    "VISITNUM": 6,
    "VISIT": "WEEK 45",
    "TRDTC": "2022-02-23",
    "TRDY": 315
  },
  {
    "STUDYID": "KN868",
    "DOMAIN": "TR",
    "USUBJID": "KN868-0001-0021",
    "TRSEQ": 19,
    "TRLNKID": "T1",
    "TRTESTCD": "LDIAM",
    "TRTEST": "Longest Diameter",
    "TRORRES": 51.6,
    "TRORRESU": "mm",
    "TRSTRESN": 51.6,
    "TRSTRESU": "mm",
    "TREVAL": "INVESTIGATOR",
    "TRMETHOD": "CT SCAN",
    "VISITNUM": 7,
    "VISIT": "WEEK 54",
    "TRDTC": "2022-04-25",
    "TRDY": 378
  },
  {
    "STUDYID": "KN868",
    "DOMAIN": "TR",
    "USUBJID": "KN868-0001-0021",
    "TRSEQ": 20,
    "TRLNKID": "T2",
    "TRTESTCD": "LDIAM",
    "TRTEST": "Longest Diameter",
    "TRORRES": 89.9,
    "TRORRESU": "mm",
    "TRSTRESN": 89.9,
    "TRSTRESU": "mm",
    "TREVAL": "INVESTIGATOR",
    "TRMETHOD": "CT SCAN",
    "VISITNUM": 7,
    "VISIT": "WEEK 54",
    "TRDTC": "2022-04-25",
    "TRDY": 378
  },
  {
    "STUDYID": "KN868",
    "DOMAIN": "TR",
    "USUBJID": "KN868-0001-0021",
    "TRSEQ": 21,
    "TRLNKID": "T3",
    "TRTESTCD": "LDIAM",
    "TRTEST": "Longest Diameter",
    "TRORRES": 81.8,
    "TRORRESU": "mm",
    "TRSTRESN": 81.8,
    "TRSTRESU": "mm",
    "TREVAL": "INVESTIGATOR",
    "TRMETHOD": "CT SCAN",
    "VISITNUM": 7,
    "VISIT": "WEEK 54",
    "TRDTC": "2022-04-27",
    "TRDY": 378
  },
  {
    "STUDYID": "KN868",
    "DOMAIN": "TR",
    "USUBJID": "KN868-0001-0021",
    "TRSEQ": 22,
    "TRLNKID": "T1",
    "TRTESTCD": "LDIAM",
    "TRTEST": "Longest Diameter",
    "TRORRES": 49.8,
    "TRORRESU": "mm",
    "TRSTRESN": 49.8,
    "TRSTRESU": "mm",
    "TREVAL": "INVESTIGATOR",
    "TRMETHOD": "CT SCAN",
    "VISITNUM": 8,
    "VISIT": "WEEK 63",
    "TRDTC": "2022-06-27",
    "TRDY": 441
  },
  {
    "STUDYID": "KN868",
    "DOMAIN": "TR",
    "USUBJID": "KN868-0001-0021",
    "TRSEQ": 23,
    "TRLNKID": "T2",
    "TRTESTCD": "LDIAM",
    "TRTEST": "Longest Diameter",
    "TRORRES": 90.9,
    "TRORRESU": "mm",
    "TRSTRESN": 90.9,
    "TRSTRESU": "mm",
    "TREVAL": "INVESTIGATOR",
    "TRMETHOD": "CT SCAN",
    "VISITNUM": 8,
    "VISIT": "WEEK 63",
    "TRDTC": "2022-06-27",
    "TRDY": 441
  },
  {
    "STUDYID": "KN868",
    "DOMAIN": "TR",
    "USUBJID": "KN868-0001-0021",
    "TRSEQ": 24,
    "TRLNKID": "T3",
    "TRTESTCD": "LDIAM",
    "TRTEST": "Longest Diameter",
    "TRORRES": 91.1,
    "TRORRESU": "mm",
    "TRSTRESN": 91.1,
    "TRSTRESU": "mm",
    "TREVAL": "INVESTIGATOR",
    "TRMETHOD": "CT SCAN",
    "VISITNUM": 8,
    "VISIT": "WEEK 63",
    "TRDTC": "2022-07-02",
    "TRDY": 441
  },
  {
    "STUDYID": "KN868",
    "DOMAIN": "TR",
    "USUBJID": "KN868-0001-0021",
    "TRSEQ": 25,
    "TRLNKID": "T1",
    "TRTESTCD": "LDIAM",
    "TRTEST": "Longest Diameter",
    "TRORRES": 51.2,
    "TRORRESU": "mm",
    "TRSTRESN": 51.2,
    "TRSTRESU": "mm",
    "TREVAL": "INVESTIGATOR",
    "TRMETHOD": "CT SCAN",
    "VISITNUM": 9,
    "VISIT": "WEEK 72",
    "TRDTC": "2022-08-29",
    "TRDY": 504
  },
  {
    "STUDYID": "KN868",
    "DOMAIN": "TR",
    "USUBJID": "KN868-0001-0021",
    "TRSEQ": 26,
    "TRLNKID": "T2",
    "TRTESTCD": "LDIAM",
    "TRTEST": "Longest Diameter",
    "TRORRES": 95.2,
    "TRORRESU": "mm",
    "TRSTRESN": 95.2,
    "TRSTRESU": "mm",
    "TREVAL": "INVESTIGATOR",
    "TRMETHOD": "CT SCAN",
    "VISITNUM": 9,
    "VISIT": "WEEK 72",
    "TRDTC": "2022-09-02",
    "TRDY": 504
  },
  {
    "STUDYID": "KN868",
    "DOMAIN": "TR",
    "USUBJID": "KN868-0001-0021",
    "TRSEQ": 27,
    "TRLNKID": "T3",
    "TRTESTCD": "LDIAM",
    "TRTEST": "Longest Diameter",
    "TRORRES": 83.6,
    "TRORRESU": "mm",
    "TRSTRESN": 83.6,
    "TRSTRESU": "mm",
    "TREVAL": "INVESTIGATOR",
    "TRMETHOD": "CT SCAN",
    "VISITNUM": 9,
    "VISIT": "WEEK 72",
    "TRDTC": "2022-08-29",
    "TRDY": 504
  },
  {
    "STUDYID": "KN868",
    "DOMAIN": "TR",
    "USUBJID": "KN868-0001-0022",
    "TRSEQ": 1,
    "TRLNKID": "T1",
    "TRTESTCD": "LDIAM",
    "TRTEST": "Longest Diameter",
    "TRORRES": 53.2,
    "TRORRESU": "mm",
    "TRSTRESN": 53.2,
    "TRSTRESU": "mm",
    "TREVAL": "INVESTIGATOR",
    "TRMETHOD": "CT SCAN",
    "VISITNUM": 1,
    "VISIT": "SCREENING",
    "TRDTC": "2021-01-25",
    "TRDY": -7
  },
  {
    "STUDYID": "KN868",
    "DOMAIN": "TR",
    "USUBJID": "KN868-0001-0022",
    "TRSEQ": 2,
    "TRLNKID": "T2",
    "TRTESTCD": "LDIAM",
    "TRTEST": "Longest Diameter",
    "TRORRES": 79.5,
    "TRORRESU": "mm",
    "TRSTRESN": 79.5,
    "TRSTRESU": "mm",
    "TREVAL": "INVESTIGATOR",
    "TRMETHOD": "CT SCAN",
    "VISITNUM": 1,
    "VISIT": "SCREENING",
    "TRDTC": "2021-01-25",
    "TRDY": -7
  },
  {
    "STUDYID": "KN868",
    "DOMAIN": "TR",
    "USUBJID": "KN868-0001-0022",
    "TRSEQ": 3,
    "TRLNKID": "T3",
    "TRTESTCD": "LDIAM",
    "TRTEST": "Longest Diameter",
    "TRORRES": 33.3,
    "TRORRESU": "mm",
    "TRSTRESN": 33.3,
    "TRSTRESU": "mm",
    "TREVAL": "INVESTIGATOR",
    "TRMETHOD": "CT SCAN",
    "VISITNUM": 1,
    "VISIT": "SCREENING",
    "TRDTC": "2021-01-23",
    "TRDY": -7
  },
  {
    "STUDYID": "KN868",
    "DOMAIN": "TR",
    "USUBJID": "KN868-0001-0022",
    "TRSEQ": 4,
    "TRLNKID": "T4",
    "TRTESTCD": "LDIAM",
    "TRTEST": "Longest Diameter",
    "TRORRES": 58.9,
    "TRORRESU": "mm",
    "TRSTRESN": 58.9,
    "TRSTRESU": "mm",
    "TREVAL": "INVESTIGATOR",
    "TRMETHOD": "CT SCAN",
    "VISITNUM": 1,
    "VISIT": "SCREENING",
    "TRDTC": "2021-01-24",
    "TRDY": -7
  },
  {
    "STUDYID": "KN868",
    "DOMAIN": "TR",
    "USUBJID": "KN868-0001-0022",
    "TRSEQ": 5,
    "TRLNKID": "T5",
    "TRTESTCD": "LDIAM",
    "TRTEST": "Longest Diameter",
    "TRORRES": 26.1,
    "TRORRESU": "mm",
    "TRSTRESN": 26.1,
    "TRSTRESU": "mm",
    "TREVAL": "INVESTIGATOR",
    "TRMETHOD": "CT SCAN",
    "VISITNUM": 1,
    "VISIT": "SCREENING",
    "TRDTC": "2021-01-29",
    "TRDY": -7
  },
  {
    "STUDYID": "KN868",
    "DOMAIN": "TR",
    "USUBJID": "KN868-0001-0022",
    "TRSEQ": 6,
    "TRLNKID": "T1",
    "TRTESTCD": "LDIAM",
    "TRTEST": "Longest Diameter",
    "TRORRES": 49,
    "TRORRESU": "mm",
    "TRSTRESN": 49,
    "TRSTRESU": "mm",
    "TREVAL": "INVESTIGATOR",
    "TRMETHOD": "CT SCAN",
    "VISITNUM": 2,
    "VISIT": "WEEK 9",
    "TRDTC": "2021-04-09",
    "TRDY": 63
  },
  {
    "STUDYID": "KN868",
    "DOMAIN": "TR",
    "USUBJID": "KN868-0001-0022",
    "TRSEQ": 7,
    "TRLNKID": "T2",
    "TRTESTCD": "LDIAM",
    "TRTEST": "Longest Diameter",
    "TRORRES": 76.3,
    "TRORRESU": "mm",
    "TRSTRESN": 76.3,
    "TRSTRESU": "mm",
    "TREVAL": "INVESTIGATOR",
    "TRMETHOD": "CT SCAN",
    "VISITNUM": 2,
    "VISIT": "WEEK 9",
    "TRDTC": "2021-04-07",
    "TRDY": 63
  },
  {
    "STUDYID": "KN868",
    "DOMAIN": "TR",
    "USUBJID": "KN868-0001-0022",
    "TRSEQ": 8,
    "TRLNKID": "T3",
    "TRTESTCD": "LDIAM",
    "TRTEST": "Longest Diameter",
    "TRORRES": 32.3,
    "TRORRESU": "mm",
    "TRSTRESN": 32.3,
    "TRSTRESU": "mm",
    "TREVAL": "INVESTIGATOR",
    "TRMETHOD": "CT SCAN",
    "VISITNUM": 2,
    "VISIT": "WEEK 9",
    "TRDTC": "2021-04-07",
    "TRDY": 63
  },
  {
    "STUDYID": "KN868",
    "DOMAIN": "TR",
    "USUBJID": "KN868-0001-0022",
    "TRSEQ": 9,
    "TRLNKID": "T4",
    "TRTESTCD": "LDIAM",
    "TRTEST": "Longest Diameter",
    "TRORRES": 60.1,
    "TRORRESU": "mm",
    "TRSTRESN": 60.1,
    "TRSTRESU": "mm",
    "TREVAL": "INVESTIGATOR",
    "TRMETHOD": "CT SCAN",
    "VISITNUM": 2,
    "VISIT": "WEEK 9",
    "TRDTC": "2021-04-09",
    "TRDY": 63
  },
  {
    "STUDYID": "KN868",
    "DOMAIN": "TR",
    "USUBJID": "KN868-0001-0022",
    "TRSEQ": 10,
    "TRLNKID": "T5",
    "TRTESTCD": "LDIAM",
    "TRTEST": "Longest Diameter",
    "TRORRES": 24.8,
    "TRORRESU": "mm",
    "TRSTRESN": 24.8,
    "TRSTRESU": "mm",
    "TREVAL": "INVESTIGATOR",
    "TRMETHOD": "CT SCAN",
    "VISITNUM": 2,
    "VISIT": "WEEK 9",
    "TRDTC": "2021-04-05",
    "TRDY": 63
  },
  {
    "STUDYID": "KN868",
    "DOMAIN": "TR",
    "USUBJID": "KN868-0001-0022",
    "TRSEQ": 11,
    "TRLNKID": "T1",
    "TRTESTCD": "LDIAM",
    "TRTEST": "Longest Diameter",
    "TRORRES": 50.8,
    "TRORRESU": "mm",
    "TRSTRESN": 50.8,
    "TRSTRESU": "mm",
    "TREVAL": "INVESTIGATOR",
    "TRMETHOD": "CT SCAN",
    "VISITNUM": 3,
    "VISIT": "WEEK 18",
    "TRDTC": "2021-06-07",
    "TRDY": 126
  },
  {
    "STUDYID": "KN868",
    "DOMAIN": "TR",
    "USUBJID": "KN868-0001-0022",
    "TRSEQ": 12,
    "TRLNKID": "T2",
    "TRTESTCD": "LDIAM",
    "TRTEST": "Longest Diameter",
    "TRORRES": 89.6,
    "TRORRESU": "mm",
    "TRSTRESN": 89.6,
    "TRSTRESU": "mm",
    "TREVAL": "INVESTIGATOR",
    "TRMETHOD": "CT SCAN",
    "VISITNUM": 3,
    "VISIT": "WEEK 18",
    "TRDTC": "2021-06-10",
    "TRDY": 126
  },
  {
    "STUDYID": "KN868",
    "DOMAIN": "TR",
    "USUBJID": "KN868-0001-0022",
    "TRSEQ": 13,
    "TRLNKID": "T3",
    "TRTESTCD": "LDIAM",
    "TRTEST": "Longest Diameter",
    "TRORRES": 38.2,
    "TRORRESU": "mm",
    "TRSTRESN": 38.2,
    "TRSTRESU": "mm",
    "TREVAL": "INVESTIGATOR",
    "TRMETHOD": "CT SCAN",
    "VISITNUM": 3,
    "VISIT": "WEEK 18",
    "TRDTC": "2021-06-10",
    "TRDY": 126
  },
  {
    "STUDYID": "KN868",
    "DOMAIN": "TR",
    "USUBJID": "KN868-0001-0022",
    "TRSEQ": 14,
    "TRLNKID": "T4",
    "TRTESTCD": "LDIAM",
    "TRTEST": "Longest Diameter",
    "TRORRES": 53.8,
    "TRORRESU": "mm",
    "TRSTRESN": 53.8,
    "TRSTRESU": "mm",
    "TREVAL": "INVESTIGATOR",
    "TRMETHOD": "CT SCAN",
    "VISITNUM": 3,
    "VISIT": "WEEK 18",
    "TRDTC": "2021-06-06",
    "TRDY": 126
  },
  {
    "STUDYID": "KN868",
    "DOMAIN": "TR",
    "USUBJID": "KN868-0001-0022",
    "TRSEQ": 15,
    "TRLNKID": "T5",
    "TRTESTCD": "LDIAM",
    "TRTEST": "Longest Diameter",
    "TRORRES": 25.2,
    "TRORRESU": "mm",
    "TRSTRESN": 25.2,
    "TRSTRESU": "mm",
    "TREVAL": "INVESTIGATOR",
    "TRMETHOD": "CT SCAN",
    "VISITNUM": 3,
    "VISIT": "WEEK 18",
    "TRDTC": "2021-06-07",
    "TRDY": 126
  },
  {
    "STUDYID": "KN868",
    "DOMAIN": "TR",
    "USUBJID": "KN868-0001-0022",
    "TRSEQ": 16,
    "TRLNKID": "T1",
    "TRTESTCD": "LDIAM",
    "TRTEST": "Longest Diameter",
    "TRORRES": 59.3,
    "TRORRESU": "mm",
    "TRSTRESN": 59.3,
    "TRSTRESU": "mm",
    "TREVAL": "INVESTIGATOR",
    "TRMETHOD": "CT SCAN",
    "VISITNUM": 4,
    "VISIT": "WEEK 27",
    "TRDTC": "2021-08-11",
    "TRDY": 189
  },
  {
    "STUDYID": "KN868",
    "DOMAIN": "TR",
    "USUBJID": "KN868-0001-0022",
    "TRSEQ": 17,
    "TRLNKID": "T2",
    "TRTESTCD": "LDIAM",
    "TRTEST": "Longest Diameter",
    "TRORRES": 89.6,
    "TRORRESU": "mm",
    "TRSTRESN": 89.6,
    "TRSTRESU": "mm",
    "TREVAL": "INVESTIGATOR",
    "TRMETHOD": "CT SCAN",
    "VISITNUM": 4,
    "VISIT": "WEEK 27",
    "TRDTC": "2021-08-07",
    "TRDY": 189
  },
  {
    "STUDYID": "KN868",
    "DOMAIN": "TR",
    "USUBJID": "KN868-0001-0022",
    "TRSEQ": 18,
    "TRLNKID": "T3",
    "TRTESTCD": "LDIAM",
    "TRTEST": "Longest Diameter",
    "TRORRES": 36.6,
    "TRORRESU": "mm",
    "TRSTRESN": 36.6,
    "TRSTRESU": "mm",
    "TREVAL": "INVESTIGATOR",
    "TRMETHOD": "CT SCAN",
    "VISITNUM": 4,
    "VISIT": "WEEK 27",
    "TRDTC": "2021-08-10",
    "TRDY": 189
  },
  {
    "STUDYID": "KN868",
    "DOMAIN": "TR",
    "USUBJID": "KN868-0001-0022",
    "TRSEQ": 19,
    "TRLNKID": "T4",
    "TRTESTCD": "LDIAM",
    "TRTEST": "Longest Diameter",
    "TRORRES": 59.7,
    "TRORRESU": "mm",
    "TRSTRESN": 59.7,
    "TRSTRESU": "mm",
    "TREVAL": "INVESTIGATOR",
    "TRMETHOD": "CT SCAN",
    "VISITNUM": 4,
    "VISIT": "WEEK 27",
    "TRDTC": "2021-08-11",
    "TRDY": 189
  },
  {
    "STUDYID": "KN868",
    "DOMAIN": "TR",
    "USUBJID": "KN868-0001-0022",
    "TRSEQ": 20,
    "TRLNKID": "T5",
    "TRTESTCD": "LDIAM",
    "TRTEST": "Longest Diameter",
    "TRORRES": 26,
    "TRORRESU": "mm",
    "TRSTRESN": 26,
    "TRSTRESU": "mm",
    "TREVAL": "INVESTIGATOR",
    "TRMETHOD": "CT SCAN",
    "VISITNUM": 4,
    "VISIT": "WEEK 27",
    "TRDTC": "2021-08-10",
    "TRDY": 189
  },
  {
    "STUDYID": "KN868",
    "DOMAIN": "TR",
    "USUBJID": "KN868-0001-0022",
    "TRSEQ": 21,
    "TRLNKID": "T1",
    "TRTESTCD": "LDIAM",
    "TRTEST": "Longest Diameter",
    "TRORRES": 46.2,
    "TRORRESU": "mm",
    "TRSTRESN": 46.2,
    "TRSTRESU": "mm",
    "TREVAL": "INVESTIGATOR",
    "TRMETHOD": "CT SCAN",
    "VISITNUM": 5,
    "VISIT": "WEEK 36",
    "TRDTC": "2021-10-10",
    "TRDY": 252
  },
  {
    "STUDYID": "KN868",
    "DOMAIN": "TR",
    "USUBJID": "KN868-0001-0022",
    "TRSEQ": 22,
    "TRLNKID": "T2",
    "TRTESTCD": "LDIAM",
    "TRTEST": "Longest Diameter",
    "TRORRES": 76.3,
    "TRORRESU": "mm",
    "TRSTRESN": 76.3,
    "TRSTRESU": "mm",
    "TREVAL": "INVESTIGATOR",
    "TRMETHOD": "CT SCAN",
    "VISITNUM": 5,
    "VISIT": "WEEK 36",
    "TRDTC": "2021-10-09",
    "TRDY": 252
  },
  {
    "STUDYID": "KN868",
    "DOMAIN": "TR",
    "USUBJID": "KN868-0001-0022",
    "TRSEQ": 23,
    "TRLNKID": "T3",
    "TRTESTCD": "LDIAM",
    "TRTEST": "Longest Diameter",
    "TRORRES": 36.3,
    "TRORRESU": "mm",
    "TRSTRESN": 36.3,
    "TRSTRESU": "mm",
    "TREVAL": "INVESTIGATOR",
    "TRMETHOD": "CT SCAN",
    "VISITNUM": 5,
    "VISIT": "WEEK 36",
    "TRDTC": "2021-10-13",
    "TRDY": 252
  },
  {
    "STUDYID": "KN868",
    "DOMAIN": "TR",
    "USUBJID": "KN868-0001-0022",
    "TRSEQ": 24,
    "TRLNKID": "T4",
    "TRTESTCD": "LDIAM",
    "TRTEST": "Longest Diameter",
    "TRORRES": 50.7,
    "TRORRESU": "mm",
    "TRSTRESN": 50.7,
    "TRSTRESU": "mm",
    "TREVAL": "INVESTIGATOR",
    "TRMETHOD": "CT SCAN",
    "VISITNUM": 5,
    "VISIT": "WEEK 36",
    "TRDTC": "2021-10-09",
    "TRDY": 252
  },
  {
    "STUDYID": "KN868",
    "DOMAIN": "TR",
    "USUBJID": "KN868-0001-0022",
    "TRSEQ": 25,
    "TRLNKID": "T5",
    "TRTESTCD": "LDIAM",
    "TRTEST": "Longest Diameter",
    "TRORRES": 24.3,
    "TRORRESU": "mm",
    "TRSTRESN": 24.3,
    "TRSTRESU": "mm",
    "TREVAL": "INVESTIGATOR",
    "TRMETHOD": "CT SCAN",
    "VISITNUM": 5,
    "VISIT": "WEEK 36",
    "TRDTC": "2021-10-09",
    "TRDY": 252
  },
  {
    "STUDYID": "KN868",
    "DOMAIN": "TR",
    "USUBJID": "KN868-0001-0022",
    "TRSEQ": 26,
    "TRLNKID": "T1",
    "TRTESTCD": "LDIAM",
    "TRTEST": "Longest Diameter",
    "TRORRES": 58.9,
    "TRORRESU": "mm",
    "TRSTRESN": 58.9,
    "TRSTRESU": "mm",
    "TREVAL": "INVESTIGATOR",
    "TRMETHOD": "CT SCAN",
    "VISITNUM": 6,
    "VISIT": "WEEK 45",
    "TRDTC": "2021-12-15",
    "TRDY": 315
  },
  {
    "STUDYID": "KN868",
    "DOMAIN": "TR",
    "USUBJID": "KN868-0001-0022",
    "TRSEQ": 27,
    "TRLNKID": "T2",
    "TRTESTCD": "LDIAM",
    "TRTEST": "Longest Diameter",
    "TRORRES": 72.1,
    "TRORRESU": "mm",
    "TRSTRESN": 72.1,
    "TRSTRESU": "mm",
    "TREVAL": "INVESTIGATOR",
    "TRMETHOD": "CT SCAN",
    "VISITNUM": 6,
    "VISIT": "WEEK 45",
    "TRDTC": "2021-12-16",
    "TRDY": 315
  },
  {
    "STUDYID": "KN868",
    "DOMAIN": "TR",
    "USUBJID": "KN868-0001-0022",
    "TRSEQ": 28,
    "TRLNKID": "T3",
    "TRTESTCD": "LDIAM",
    "TRTEST": "Longest Diameter",
    "TRORRES": 36.3,
    "TRORRESU": "mm",
    "TRSTRESN": 36.3,
    "TRSTRESU": "mm",
    "TREVAL": "INVESTIGATOR",
    "TRMETHOD": "CT SCAN",
    "VISITNUM": 6,
    "VISIT": "WEEK 45",
    "TRDTC": "2021-12-17",
    "TRDY": 315
  },
  {
    "STUDYID": "KN868",
    "DOMAIN": "TR",
    "USUBJID": "KN868-0001-0022",
    "TRSEQ": 29,
    "TRLNKID": "T4",
    "TRTESTCD": "LDIAM",
    "TRTEST": "Longest Diameter",
    "TRORRES": 59.5,
    "TRORRESU": "mm",
    "TRSTRESN": 59.5,
    "TRSTRESU": "mm",
    "TREVAL": "INVESTIGATOR",
    "TRMETHOD": "CT SCAN",
    "VISITNUM": 6,
    "VISIT": "WEEK 45",
    "TRDTC": "2021-12-16",
    "TRDY": 315
  },
  {
    "STUDYID": "KN868",
    "DOMAIN": "TR",
    "USUBJID": "KN868-0001-0022",
    "TRSEQ": 30,
    "TRLNKID": "T5",
    "TRTESTCD": "LDIAM",
    "TRTEST": "Longest Diameter",
    "TRORRES": 22.8,
    "TRORRESU": "mm",
    "TRSTRESN": 22.8,
    "TRSTRESU": "mm",
    "TREVAL": "INVESTIGATOR",
    "TRMETHOD": "CT SCAN",
    "VISITNUM": 6,
    "VISIT": "WEEK 45",
    "TRDTC": "2021-12-15",
    "TRDY": 315
  },
  {
    "STUDYID": "KN868",
    "DOMAIN": "TR",
    "USUBJID": "KN868-0001-0022",
    "TRSEQ": 31,
    "TRLNKID": "T1",
    "TRTESTCD": "LDIAM",
    "TRTEST": "Longest Diameter",
    "TRORRES": 58.4,
    "TRORRESU": "mm",
    "TRSTRESN": 58.4,
    "TRSTRESU": "mm",
    "TREVAL": "INVESTIGATOR",
    "TRMETHOD": "CT SCAN",
    "VISITNUM": 7,
    "VISIT": "WEEK 54",
    "TRDTC": "2022-02-16",
    "TRDY": 378
  },
  {
    "STUDYID": "KN868",
    "DOMAIN": "TR",
    "USUBJID": "KN868-0001-0022",
    "TRSEQ": 32,
    "TRLNKID": "T2",
    "TRTESTCD": "LDIAM",
    "TRTEST": "Longest Diameter",
    "TRORRES": 71.6,
    "TRORRESU": "mm",
    "TRSTRESN": 71.6,
    "TRSTRESU": "mm",
    "TREVAL": "INVESTIGATOR",
    "TRMETHOD": "CT SCAN",
    "VISITNUM": 7,
    "VISIT": "WEEK 54",
    "TRDTC": "2022-02-15",
    "TRDY": 378
  },
  {
    "STUDYID": "KN868",
    "DOMAIN": "TR",
    "USUBJID": "KN868-0001-0022",
    "TRSEQ": 33,
    "TRLNKID": "T3",
    "TRTESTCD": "LDIAM",
    "TRTEST": "Longest Diameter",
    "TRORRES": 31.1,
    "TRORRESU": "mm",
    "TRSTRESN": 31.1,
    "TRSTRESU": "mm",
    "TREVAL": "INVESTIGATOR",
    "TRMETHOD": "CT SCAN",
    "VISITNUM": 7,
    "VISIT": "WEEK 54",
    "TRDTC": "2022-02-17",
    "TRDY": 378
  },
  {
    "STUDYID": "KN868",
    "DOMAIN": "TR",
    "USUBJID": "KN868-0001-0022",
    "TRSEQ": 34,
    "TRLNKID": "T4",
    "TRTESTCD": "LDIAM",
    "TRTEST": "Longest Diameter",
    "TRORRES": 55.8,
    "TRORRESU": "mm",
    "TRSTRESN": 55.8,
    "TRSTRESU": "mm",
    "TREVAL": "INVESTIGATOR",
    "TRMETHOD": "CT SCAN",
    "VISITNUM": 7,
    "VISIT": "WEEK 54",
    "TRDTC": "2022-02-16",
    "TRDY": 378
  },
  {
    "STUDYID": "KN868",
    "DOMAIN": "TR",
    "USUBJID": "KN868-0001-0022",
    "TRSEQ": 35,
    "TRLNKID": "T5",
    "TRTESTCD": "LDIAM",
    "TRTEST": "Longest Diameter",
    "TRORRES": 22.3,
    "TRORRESU": "mm",
    "TRSTRESN": 22.3,
    "TRSTRESU": "mm",
    "TREVAL": "INVESTIGATOR",
    "TRMETHOD": "CT SCAN",
    "VISITNUM": 7,
    "VISIT": "WEEK 54",
    "TRDTC": "2022-02-17",
    "TRDY": 378
  },
  {
    "STUDYID": "KN868",
    "DOMAIN": "TR",
    "USUBJID": "KN868-0001-0022",
    "TRSEQ": 36,
    "TRLNKID": "T1",
    "TRTESTCD": "LDIAM",
    "TRTEST": "Longest Diameter",
    "TRORRES": 50.3,
    "TRORRESU": "mm",
    "TRSTRESN": 50.3,
    "TRSTRESU": "mm",
    "TREVAL": "INVESTIGATOR",
    "TRMETHOD": "CT SCAN",
    "VISITNUM": 8,
    "VISIT": "WEEK 63",
    "TRDTC": "2022-04-19",
    "TRDY": 441
  },
  {
    "STUDYID": "KN868",
    "DOMAIN": "TR",
    "USUBJID": "KN868-0001-0022",
    "TRSEQ": 37,
    "TRLNKID": "T2",
    "TRTESTCD": "LDIAM",
    "TRTEST": "Longest Diameter",
    "TRORRES": 73.4,
    "TRORRESU": "mm",
    "TRSTRESN": 73.4,
    "TRSTRESU": "mm",
    "TREVAL": "INVESTIGATOR",
    "TRMETHOD": "CT SCAN",
    "VISITNUM": 8,
    "VISIT": "WEEK 63",
    "TRDTC": "2022-04-22",
    "TRDY": 441
  },
  {
    "STUDYID": "KN868",
    "DOMAIN": "TR",
    "USUBJID": "KN868-0001-0022",
    "TRSEQ": 38,
    "TRLNKID": "T3",
    "TRTESTCD": "LDIAM",
    "TRTEST": "Longest Diameter",
    "TRORRES": 30.1,
    "TRORRESU": "mm",
    "TRSTRESN": 30.1,
    "TRSTRESU": "mm",
    "TREVAL": "INVESTIGATOR",
    "TRMETHOD": "CT SCAN",
    "VISITNUM": 8,
    "VISIT": "WEEK 63",
    "TRDTC": "2022-04-21",
    "TRDY": 441
  },
  {
    "STUDYID": "KN868",
    "DOMAIN": "TR",
    "USUBJID": "KN868-0001-0022",
    "TRSEQ": 39,
    "TRLNKID": "T4",
    "TRTESTCD": "LDIAM",
    "TRTEST": "Longest Diameter",
    "TRORRES": 58.7,
    "TRORRESU": "mm",
    "TRSTRESN": 58.7,
    "TRSTRESU": "mm",
    "TREVAL": "INVESTIGATOR",
    "TRMETHOD": "CT SCAN",
    "VISITNUM": 8,
    "VISIT": "WEEK 63",
    "TRDTC": "2022-04-19",
    "TRDY": 441
  },
  {
    "STUDYID": "KN868",
    "DOMAIN": "TR",
    "USUBJID": "KN868-0001-0022",
    "TRSEQ": 40,
    "TRLNKID": "T5",
    "TRTESTCD": "LDIAM",
    "TRTEST": "Longest Diameter",
    "TRORRES": 25.5,
    "TRORRESU": "mm",
    "TRSTRESN": 25.5,
    "TRSTRESU": "mm",
    "TREVAL": "INVESTIGATOR",
    "TRMETHOD": "CT SCAN",
    "VISITNUM": 8,
    "VISIT": "WEEK 63",
    "TRDTC": "2022-04-17",
    "TRDY": 441
  },
  {
    "STUDYID": "KN868",
    "DOMAIN": "TR",
    "USUBJID": "KN868-0001-0022",
    "TRSEQ": 41,
    "TRLNKID": "T1",
    "TRTESTCD": "LDIAM",
    "TRTEST": "Longest Diameter",
    "TRORRES": 53,
    "TRORRESU": "mm",
    "TRSTRESN": 53,
    "TRSTRESU": "mm",
    "TREVAL": "INVESTIGATOR",
    "TRMETHOD": "CT SCAN",
    "VISITNUM": 9,
    "VISIT": "WEEK 72",
    "TRDTC": "2022-06-21",
    "TRDY": 504
  },
  {
    "STUDYID": "KN868",
    "DOMAIN": "TR",
    "USUBJID": "KN868-0001-0022",
    "TRSEQ": 42,
    "TRLNKID": "T2",
    "TRTESTCD": "LDIAM",
    "TRTEST": "Longest Diameter",
    "TRORRES": 77.4,
    "TRORRESU": "mm",
    "TRSTRESN": 77.4,
    "TRSTRESU": "mm",
    "TREVAL": "INVESTIGATOR",
    "TRMETHOD": "CT SCAN",
    "VISITNUM": 9,
    "VISIT": "WEEK 72",
    "TRDTC": "2022-06-23",
    "TRDY": 504
  },
  {
    "STUDYID": "KN868",
    "DOMAIN": "TR",
    "USUBJID": "KN868-0001-0022",
    "TRSEQ": 43,
    "TRLNKID": "T3",
    "TRTESTCD": "LDIAM",
    "TRTEST": "Longest Diameter",
    "TRORRES": 37.9,
    "TRORRESU": "mm",
    "TRSTRESN": 37.9,
    "TRSTRESU": "mm",
    "TREVAL": "INVESTIGATOR",
    "TRMETHOD": "CT SCAN",
    "VISITNUM": 9,
    "VISIT": "WEEK 72",
    "TRDTC": "2022-06-18",
    "TRDY": 504
  },
  {
    "STUDYID": "KN868",
    "DOMAIN": "TR",
    "USUBJID": "KN868-0001-0022",
    "TRSEQ": 44,
    "TRLNKID": "T4",
    "TRTESTCD": "LDIAM",
    "TRTEST": "Longest Diameter",
    "TRORRES": 55.8,
    "TRORRESU": "mm",
    "TRSTRESN": 55.8,
    "TRSTRESU": "mm",
    "TREVAL": "INVESTIGATOR",
    "TRMETHOD": "CT SCAN",
    "VISITNUM": 9,
    "VISIT": "WEEK 72",
    "TRDTC": "2022-06-21",
    "TRDY": 504
  },
  {
    "STUDYID": "KN868",
    "DOMAIN": "TR",
    "USUBJID": "KN868-0001-0022",
    "TRSEQ": 45,
    "TRLNKID": "T5",
    "TRTESTCD": "LDIAM",
    "TRTEST": "Longest Diameter",
    "TRORRES": 23,
    "TRORRESU": "mm",
    "TRSTRESN": 23,
    "TRSTRESU": "mm",
    "TREVAL": "INVESTIGATOR",
    "TRMETHOD": "CT SCAN",
    "VISITNUM": 9,
    "VISIT": "WEEK 72",
    "TRDTC": "2022-06-20",
    "TRDY": 504
  },
  {
    "STUDYID": "KN868",
    "DOMAIN": "TR",
    "USUBJID": "KN868-0001-0023",
    "TRSEQ": 1,
    "TRLNKID": "T1",
    "TRTESTCD": "LDIAM",
    "TRTEST": "Longest Diameter",
    "TRORRES": 52,
    "TRORRESU": "mm",
    "TRSTRESN": 52,
    "TRSTRESU": "mm",
    "TREVAL": "INVESTIGATOR",
    "TRMETHOD": "CT SCAN",
    "VISITNUM": 1,
    "VISIT": "SCREENING",
    "TRDTC": "2022-02-19",
    "TRDY": -7
  },
  {
    "STUDYID": "KN868",
    "DOMAIN": "TR",
    "USUBJID": "KN868-0001-0023",
    "TRSEQ": 2,
    "TRLNKID": "T2",
    "TRTESTCD": "LDIAM",
    "TRTEST": "Longest Diameter",
    "TRORRES": 35.3,
    "TRORRESU": "mm",
    "TRSTRESN": 35.3,
    "TRSTRESU": "mm",
    "TREVAL": "INVESTIGATOR",
    "TRMETHOD": "CT SCAN",
    "VISITNUM": 1,
    "VISIT": "SCREENING",
    "TRDTC": "2022-02-22",
    "TRDY": -7
  },
  {
    "STUDYID": "KN868",
    "DOMAIN": "TR",
    "USUBJID": "KN868-0001-0023",
    "TRSEQ": 3,
    "TRLNKID": "T3",
    "TRTESTCD": "LDIAM",
    "TRTEST": "Longest Diameter",
    "TRORRES": 62.6,
    "TRORRESU": "mm",
    "TRSTRESN": 62.6,
    "TRSTRESU": "mm",
    "TREVAL": "INVESTIGATOR",
    "TRMETHOD": "CT SCAN",
    "VISITNUM": 1,
    "VISIT": "SCREENING",
    "TRDTC": "2022-02-22",
    "TRDY": -7
  },
  {
    "STUDYID": "KN868",
    "DOMAIN": "TR",
    "USUBJID": "KN868-0001-0023",
    "TRSEQ": 4,
    "TRLNKID": "T1",
    "TRTESTCD": "LDIAM",
    "TRTEST": "Longest Diameter",
    "TRORRES": 26.8,
    "TRORRESU": "mm",
    "TRSTRESN": 26.8,
    "TRSTRESU": "mm",
    "TREVAL": "INVESTIGATOR",
    "TRMETHOD": "CT SCAN",
    "VISITNUM": 2,
    "VISIT": "WEEK 9",
    "TRDTC": "2022-05-03",
    "TRDY": 63
  },
  {
    "STUDYID": "KN868",
    "DOMAIN": "TR",
    "USUBJID": "KN868-0001-0023",
    "TRSEQ": 5,
    "TRLNKID": "T2",
    "TRTESTCD": "LDIAM",
    "TRTEST": "Longest Diameter",
    "TRORRES": 19.5,
    "TRORRESU": "mm",
    "TRSTRESN": 19.5,
    "TRSTRESU": "mm",
    "TREVAL": "INVESTIGATOR",
    "TRMETHOD": "CT SCAN",
    "VISITNUM": 2,
    "VISIT": "WEEK 9",
    "TRDTC": "2022-05-01",
    "TRDY": 63
  },
  {
    "STUDYID": "KN868",
    "DOMAIN": "TR",
    "USUBJID": "KN868-0001-0023",
    "TRSEQ": 6,
    "TRLNKID": "T3",
    "TRTESTCD": "LDIAM",
    "TRTEST": "Longest Diameter",
    "TRORRES": 34.5,
    "TRORRESU": "mm",
    "TRSTRESN": 34.5,
    "TRSTRESU": "mm",
    "TREVAL": "INVESTIGATOR",
    "TRMETHOD": "CT SCAN",
    "VISITNUM": 2,
    "VISIT": "WEEK 9",
    "TRDTC": "2022-05-01",
    "TRDY": 63
  },
  {
    "STUDYID": "KN868",
    "DOMAIN": "TR",
    "USUBJID": "KN868-0001-0023",
    "TRSEQ": 7,
    "TRLNKID": "T1",
    "TRTESTCD": "LDIAM",
    "TRTEST": "Longest Diameter",
    "TRORRES": 21.1,
    "TRORRESU": "mm",
    "TRSTRESN": 21.1,
    "TRSTRESU": "mm",
    "TREVAL": "INVESTIGATOR",
    "TRMETHOD": "CT SCAN",
    "VISITNUM": 3,
    "VISIT": "WEEK 18",
    "TRDTC": "2022-07-04",
    "TRDY": 126
  },
  {
    "STUDYID": "KN868",
    "DOMAIN": "TR",
    "USUBJID": "KN868-0001-0023",
    "TRSEQ": 8,
    "TRLNKID": "T2",
    "TRTESTCD": "LDIAM",
    "TRTEST": "Longest Diameter",
    "TRORRES": 14.2,
    "TRORRESU": "mm",
    "TRSTRESN": 14.2,
    "TRSTRESU": "mm",
    "TREVAL": "INVESTIGATOR",
    "TRMETHOD": "CT SCAN",
    "VISITNUM": 3,
    "VISIT": "WEEK 18",
    "TRDTC": "2022-07-03",
    "TRDY": 126
  },
  {
    "STUDYID": "KN868",
    "DOMAIN": "TR",
    "USUBJID": "KN868-0001-0023",
    "TRSEQ": 9,
    "TRLNKID": "T3",
    "TRTESTCD": "LDIAM",
    "TRTEST": "Longest Diameter",
    "TRORRES": 23.6,
    "TRORRESU": "mm",
    "TRSTRESN": 23.6,
    "TRSTRESU": "mm",
    "TREVAL": "INVESTIGATOR",
    "TRMETHOD": "CT SCAN",
    "VISITNUM": 3,
    "VISIT": "WEEK 18",
    "TRDTC": "2022-06-29",
    "TRDY": 126
  },
  {
    "STUDYID": "KN868",
    "DOMAIN": "TR",
    "USUBJID": "KN868-0001-0023",
    "TRSEQ": 10,
    "TRLNKID": "T1",
    "TRTESTCD": "LDIAM",
    "TRTEST": "Longest Diameter",
    "TRORRES": 0,
    "TRORRESU": "mm",
    "TRSTRESN": 0,
    "TRSTRESU": "mm",
    "TREVAL": "INVESTIGATOR",
    "TRMETHOD": "CT SCAN",
    "VISITNUM": 4,
    "VISIT": "WEEK 27",
    "TRDTC": "2022-09-03",
    "TRDY": 189
  },
  {
    "STUDYID": "KN868",
    "DOMAIN": "TR",
    "USUBJID": "KN868-0001-0023",
    "TRSEQ": 11,
    "TRLNKID": "T2",
    "TRTESTCD": "LDIAM",
    "TRTEST": "Longest Diameter",
    "TRORRES": 0,
    "TRORRESU": "mm",
    "TRSTRESN": 0,
    "TRSTRESU": "mm",
    "TREVAL": "INVESTIGATOR",
    "TRMETHOD": "CT SCAN",
    "VISITNUM": 4,
    "VISIT": "WEEK 27",
    "TRDTC": "2022-09-05",
    "TRDY": 189
  },
  {
    "STUDYID": "KN868",
    "DOMAIN": "TR",
    "USUBJID": "KN868-0001-0023",
    "TRSEQ": 12,
    "TRLNKID": "T3",
    "TRTESTCD": "LDIAM",
    "TRTEST": "Longest Diameter",
    "TRORRES": 0,
    "TRORRESU": "mm",
    "TRSTRESN": 0,
    "TRSTRESU": "mm",
    "TREVAL": "INVESTIGATOR",
    "TRMETHOD": "CT SCAN",
    "VISITNUM": 4,
    "VISIT": "WEEK 27",
    "TRDTC": "2022-09-03",
    "TRDY": 189
  },
  {
    "STUDYID": "KN868",
    "DOMAIN": "TR",
    "USUBJID": "KN868-0001-0023",
    "TRSEQ": 13,
    "TRLNKID": "T1",
    "TRTESTCD": "LDIAM",
    "TRTEST": "Longest Diameter",
    "TRORRES": 0,
    "TRORRESU": "mm",
    "TRSTRESN": 0,
    "TRSTRESU": "mm",
    "TREVAL": "INVESTIGATOR",
    "TRMETHOD": "CT SCAN",
    "VISITNUM": 5,
    "VISIT": "WEEK 36",
    "TRDTC": "2022-11-07",
    "TRDY": 252
  },
  {
    "STUDYID": "KN868",
    "DOMAIN": "TR",
    "USUBJID": "KN868-0001-0023",
    "TRSEQ": 14,
    "TRLNKID": "T2",
    "TRTESTCD": "LDIAM",
    "TRTEST": "Longest Diameter",
    "TRORRES": 0,
    "TRORRESU": "mm",
    "TRSTRESN": 0,
    "TRSTRESU": "mm",
    "TREVAL": "INVESTIGATOR",
    "TRMETHOD": "CT SCAN",
    "VISITNUM": 5,
    "VISIT": "WEEK 36",
    "TRDTC": "2022-11-02",
    "TRDY": 252
  },
  {
    "STUDYID": "KN868",
    "DOMAIN": "TR",
    "USUBJID": "KN868-0001-0023",
    "TRSEQ": 15,
    "TRLNKID": "T3",
    "TRTESTCD": "LDIAM",
    "TRTEST": "Longest Diameter",
    "TRORRES": 0,
    "TRORRESU": "mm",
    "TRSTRESN": 0,
    "TRSTRESU": "mm",
    "TREVAL": "INVESTIGATOR",
    "TRMETHOD": "CT SCAN",
    "VISITNUM": 5,
    "VISIT": "WEEK 36",
    "TRDTC": "2022-11-02",
    "TRDY": 252
  },
  {
    "STUDYID": "KN868",
    "DOMAIN": "TR",
    "USUBJID": "KN868-0001-0023",
    "TRSEQ": 16,
    "TRLNKID": "T1",
    "TRTESTCD": "LDIAM",
    "TRTEST": "Longest Diameter",
    "TRORRES": 0,
    "TRORRESU": "mm",
    "TRSTRESN": 0,
    "TRSTRESU": "mm",
    "TREVAL": "INVESTIGATOR",
    "TRMETHOD": "CT SCAN",
    "VISITNUM": 6,
    "VISIT": "WEEK 45",
    "TRDTC": "2023-01-04",
    "TRDY": 315
  },
  {
    "STUDYID": "KN868",
    "DOMAIN": "TR",
    "USUBJID": "KN868-0001-0023",
    "TRSEQ": 17,
    "TRLNKID": "T2",
    "TRTESTCD": "LDIAM",
    "TRTEST": "Longest Diameter",
    "TRORRES": 0,
    "TRORRESU": "mm",
    "TRSTRESN": 0,
    "TRSTRESU": "mm",
    "TREVAL": "INVESTIGATOR",
    "TRMETHOD": "CT SCAN",
    "VISITNUM": 6,
    "VISIT": "WEEK 45",
    "TRDTC": "2023-01-09",
    "TRDY": 315
  },
  {
    "STUDYID": "KN868",
    "DOMAIN": "TR",
    "USUBJID": "KN868-0001-0023",
    "TRSEQ": 18,
    "TRLNKID": "T3",
    "TRTESTCD": "LDIAM",
    "TRTEST": "Longest Diameter",
    "TRORRES": 0,
    "TRORRESU": "mm",
    "TRSTRESN": 0,
    "TRSTRESU": "mm",
    "TREVAL": "INVESTIGATOR",
    "TRMETHOD": "CT SCAN",
    "VISITNUM": 6,
    "VISIT": "WEEK 45",
    "TRDTC": "2023-01-09",
    "TRDY": 315
  },
  {
    "STUDYID": "KN868",
    "DOMAIN": "TR",
    "USUBJID": "KN868-0001-0023",
    "TRSEQ": 19,
    "TRLNKID": "T1",
    "TRTESTCD": "LDIAM",
    "TRTEST": "Longest Diameter",
    "TRORRES": 0,
    "TRORRESU": "mm",
    "TRSTRESN": 0,
    "TRSTRESU": "mm",
    "TREVAL": "INVESTIGATOR",
    "TRMETHOD": "CT SCAN",
    "VISITNUM": 7,
    "VISIT": "WEEK 54",
    "TRDTC": "2023-03-14",
    "TRDY": 378
  },
  {
    "STUDYID": "KN868",
    "DOMAIN": "TR",
    "USUBJID": "KN868-0001-0023",
    "TRSEQ": 20,
    "TRLNKID": "T2",
    "TRTESTCD": "LDIAM",
    "TRTEST": "Longest Diameter",
    "TRORRES": 0,
    "TRORRESU": "mm",
    "TRSTRESN": 0,
    "TRSTRESU": "mm",
    "TREVAL": "INVESTIGATOR",
    "TRMETHOD": "CT SCAN",
    "VISITNUM": 7,
    "VISIT": "WEEK 54",
    "TRDTC": "2023-03-13",
    "TRDY": 378
  },
  {
    "STUDYID": "KN868",
    "DOMAIN": "TR",
    "USUBJID": "KN868-0001-0023",
    "TRSEQ": 21,
    "TRLNKID": "T3",
    "TRTESTCD": "LDIAM",
    "TRTEST": "Longest Diameter",
    "TRORRES": 0,
    "TRORRESU": "mm",
    "TRSTRESN": 0,
    "TRSTRESU": "mm",
    "TREVAL": "INVESTIGATOR",
    "TRMETHOD": "CT SCAN",
    "VISITNUM": 7,
    "VISIT": "WEEK 54",
    "TRDTC": "2023-03-09",
    "TRDY": 378
  },
  {
    "STUDYID": "KN868",
    "DOMAIN": "TR",
    "USUBJID": "KN868-0001-0023",
    "TRSEQ": 22,
    "TRLNKID": "T1",
    "TRTESTCD": "LDIAM",
    "TRTEST": "Longest Diameter",
    "TRORRES": 0,
    "TRORRESU": "mm",
    "TRSTRESN": 0,
    "TRSTRESU": "mm",
    "TREVAL": "INVESTIGATOR",
    "TRMETHOD": "CT SCAN",
    "VISITNUM": 8,
    "VISIT": "WEEK 63",
    "TRDTC": "2023-05-11",
    "TRDY": 441
  },
  {
    "STUDYID": "KN868",
    "DOMAIN": "TR",
    "USUBJID": "KN868-0001-0023",
    "TRSEQ": 23,
    "TRLNKID": "T2",
    "TRTESTCD": "LDIAM",
    "TRTEST": "Longest Diameter",
    "TRORRES": 0,
    "TRORRESU": "mm",
    "TRSTRESN": 0,
    "TRSTRESU": "mm",
    "TREVAL": "INVESTIGATOR",
    "TRMETHOD": "CT SCAN",
    "VISITNUM": 8,
    "VISIT": "WEEK 63",
    "TRDTC": "2023-05-13",
    "TRDY": 441
  },
  {
    "STUDYID": "KN868",
    "DOMAIN": "TR",
    "USUBJID": "KN868-0001-0023",
    "TRSEQ": 24,
    "TRLNKID": "T3",
    "TRTESTCD": "LDIAM",
    "TRTEST": "Longest Diameter",
    "TRORRES": 0,
    "TRORRESU": "mm",
    "TRSTRESN": 0,
    "TRSTRESU": "mm",
    "TREVAL": "INVESTIGATOR",
    "TRMETHOD": "CT SCAN",
    "VISITNUM": 8,
    "VISIT": "WEEK 63",
    "TRDTC": "2023-05-12",
    "TRDY": 441
  },
  {
    "STUDYID": "KN868",
    "DOMAIN": "TR",
    "USUBJID": "KN868-0001-0023",
    "TRSEQ": 25,
    "TRLNKID": "T1",
    "TRTESTCD": "LDIAM",
    "TRTEST": "Longest Diameter",
    "TRORRES": 0,
    "TRORRESU": "mm",
    "TRSTRESN": 0,
    "TRSTRESU": "mm",
    "TREVAL": "INVESTIGATOR",
    "TRMETHOD": "CT SCAN",
    "VISITNUM": 9,
    "VISIT": "WEEK 72",
    "TRDTC": "2023-07-17",
    "TRDY": 504
  },
  {
    "STUDYID": "KN868",
    "DOMAIN": "TR",
    "USUBJID": "KN868-0001-0023",
    "TRSEQ": 26,
    "TRLNKID": "T2",
    "TRTESTCD": "LDIAM",
    "TRTEST": "Longest Diameter",
    "TRORRES": 0,
    "TRORRESU": "mm",
    "TRSTRESN": 0,
    "TRSTRESU": "mm",
    "TREVAL": "INVESTIGATOR",
    "TRMETHOD": "CT SCAN",
    "VISITNUM": 9,
    "VISIT": "WEEK 72",
    "TRDTC": "2023-07-13",
    "TRDY": 504
  },
  {
    "STUDYID": "KN868",
