[
  {
    "STUDYID": "CDISCPILOT01",
    "DOMAIN": "VS",
    "USUBJID": "01-701-001",
    "VSSEQ": 1,
    "VSTESTCD": "WEIGHT",
    "VSTEST": "Weight",
    "VSORRES": 46.8,
    "VSORRESU": "kg",
    "VSSTRESN": 46.8,
    "VSSTRESU": "kg",
    "VSBLFL": "Y",
    "VISITNUM": 1,
    "VISIT": "SCREENING",
    "VISITDY": -7,
    "VSDTC": "2013-06-10",
    "VSDY": -7
  },
  {
    "STUDYID": "CDISCPILOT01",
    "DOMAIN": "VS",
    "USUBJID": "01-701-001",
    "VSSEQ": 2,
    "VSTESTCD": "HEIGHT",
    "VSTEST": "Height",
    "VSORRES": 152.1,
    "VSORRESU": "cm",
    "VSSTRESN": 152.1,
    "VSSTRESU": "cm",
    "VSBLFL": "Y",
    "VISITNUM": 1,
    "VISIT": "SCREENING",
    "VISITDY": -7,
    "VSDTC": "2013-06-10",
    "VSDY": -7
  },
  {
    "STUDYID": "CDISCPILOT01",
    "DOMAIN": "VS",
    "USUBJID": "01-701-001",
    "VSSEQ": 3,
    "VSTESTCD": "TEMP",
    "VSTEST": "Temperature",
    "VSORRES": 36.5,
    "VSORRESU": "C",
    "VSSTRESN": 36.5,
    "VSSTRESU": "C",
    "VSBLFL": "Y",
    "VISITNUM": 1,
    "VISIT": "SCREENING",
    "VISITDY": -7,
    "VSDTC": "2013-06-12",
    "VSDY": -7
  },
  {
    "STUDYID": "CDISCPILOT01",
    "DOMAIN": "VS",
    "USUBJID": "01-701-001",
    "VSSEQ": 4,
    "VSTESTCD": "SYSBP",
    "VSTEST": "Systolic Blood Pressure",
    "VSORRES": 149.1,
    "VSORRESU": "mmHg",
    "VSSTRESN": 149.1,
    "VSSTRESU": "mmHg",
    "VSBLFL": "Y",
    "VISITNUM": 1,
    "VISIT": "SCREENING",
    "VISITDY": -7,
    "VSDTC": "2013-06-12",
    "VSDY": -7
  },
  {
    "STUDYID": "CDISCPILOT01",
    "DOMAIN": "VS",
    "USUBJID": "01-701-001",
    "VSSEQ": 5,
    "VSTESTCD": "DIABP",
    "VSTEST": "Diastolic Blood Pressure",
    "VSORRES": 78.4,
    "VSORRESU": "mmHg",
    "VSSTRESN": 78.4,
    "VSSTRESU": "mmHg",
    "VSBLFL": "Y",
    "VISITNUM": 1,
    "VISIT": "SCREENING",
    "VISITDY": -7,
    "VSDTC": "2013-06-10",
    "VSDY": -7
  },
  {
    "STUDYID": "CDISCPILOT01",
    "DOMAIN": "VS",
    "USUBJID": "01-701-001",
    "VSSEQ": 6,
    "VSTESTCD": "PULSE",
    "VSTEST": "Pulse Rate",
    "VSORRES": 70.6,
    "VSORRESU": "beats/min",
    "VSSTRESN": 70.6,
    "VSSTRESU": "beats/min",
    "VSBLFL": "Y",
    "VISITNUM": 1,
    "VISIT": "SCREENING",
    "VISITDY": -7,
    "VSDTC": "2013-06-10",
    "VSDY": -7
  },
  {
    "STUDYID": "CDISCPILOT01",
    "DOMAIN": "VS",
    "USUBJID": "01-701-001",
    "VSSEQ": 7,
    "VSTESTCD": "RESP",
    "VSTEST": "Respiratory Rate",
    "VSORRES": 13.7,
    "VSORRESU": "breaths/min",
    "VSSTRESN": 13.7,
    "VSSTRESU": "breaths/min",
    "VSBLFL": "Y",
    "VISITNUM": 1,
    "VISIT": "SCREENING",
    "VISITDY": -7,
    "VSDTC": "2013-06-11",
    "VSDY": -7
  },
  {
    "STUDYID": "CDISCPILOT01",
    "DOMAIN": "VS",
    "USUBJID": "01-701-001",
    "VSSEQ": 8,
    "VSTESTCD": "WEIGHT",
    "VSTEST": "Weight",
    "VSORRES": 46.2,
    "VSORRESU": "kg",
    "VSSTRESN": 46.2,
    "VSSTRESU": "kg",
    "VSBLFL": "",
    "VISITNUM": 2,
    "VISIT": "BASELINE",
    "VISITDY": 1,
    "VSDTC": "2013-06-20",
    "VSDY": 1
  },
  {
    "STUDYID": "CDISCPILOT01",
    "DOMAIN": "VS",
    "USUBJID": "01-701-001",
    "VSSEQ": 9,
    "VSTESTCD": "HEIGHT",
    "VSTEST": "Height",
    "VSORRES": 152.1,
    "VSORRESU": "cm",
    "VSSTRESN": 152.1,
    "VSSTRESU": "cm",
    "VSBLFL": "",
    "VISITNUM": 2,
    "VISIT": "BASELINE",
    "VISITDY": 1,
    "VSDTC": "2013-06-18",
    "VSDY": 1
  },
  {
    "STUDYID": "CDISCPILOT01",
    "DOMAIN": "VS",
    "USUBJID": "01-701-001",
    "VSSEQ": 10,
    "VSTESTCD": "TEMP",
    "VSTEST": "Temperature",
    "VSORRES": 36.5,
    "VSORRESU": "C",
    "VSSTRESN": 36.5,
    "VSSTRESU": "C",
    "VSBLFL": "",
    "VISITNUM": 2,
    "VISIT": "BASELINE",
    "VISITDY": 1,
    "VSDTC": "2013-06-20",
    "VSDY": 1
  },
  {
    "STUDYID": "CDISCPILOT01",
    "DOMAIN": "VS",
    "USUBJID": "01-701-001",
    "VSSEQ": 11,
    "VSTESTCD": "SYSBP",
    "VSTEST": "Systolic Blood Pressure",
    "VSORRES": 156.5,
    "VSORRESU": "mmHg",
    "VSSTRESN": 156.5,
    "VSSTRESU": "mmHg",
    "VSBLFL": "",
    "VISITNUM": 2,
    "VISIT": "BASELINE",
    "VISITDY": 1,
    "VSDTC": "2013-06-20",
    "VSDY": 1
  },
  {
    "STUDYID": "CDISCPILOT01",
    "DOMAIN": "VS",
    "USUBJID": "01-701-001",
    "VSSEQ": 12,
    "VSTESTCD": "DIABP",
    "VSTEST": "Diastolic Blood Pressure",
    "VSORRES": 76.8,
    "VSORRESU": "mmHg",
    "VSSTRESN": 76.8,
    "VSSTRESU": "mmHg",
    "VSBLFL": "",
    "VISITNUM": 2,
    "VISIT": "BASELINE",
    "VISITDY": 1,
    "VSDTC": "2013-06-18",
    "VSDY": 1
  },
  {
    "STUDYID": "CDISCPILOT01",
    "DOMAIN": "VS",
    "USUBJID": "01-701-001",
    "VSSEQ": 13,
    "VSTESTCD": "PULSE",
    "VSTEST": "Pulse Rate",
    "VSORRES": 69.2,
    "VSORRESU": "beats/min",
    "VSSTRESN": 69.2,
    "VSSTRESU": "beats/min",
    "VSBLFL": "",
    "VISITNUM": 2,
    "VISIT": "BASELINE",
    "VISITDY": 1,
    "VSDTC": "2013-06-19",
    "VSDY": 1
  },
  {
    "STUDYID": "CDISCPILOT01",
    "DOMAIN": "VS",
    "USUBJID": "01-701-001",
    "VSSEQ": 14,
    "VSTESTCD": "RESP",
    "VSTEST": "Respiratory Rate",
    "VSORRES": 13.7,
    "VSORRESU": "breaths/min",
    "VSSTRESN": 13.7,
    "VSSTRESU": "breaths/min",
    "VSBLFL": "",
    "VISITNUM": 2,
    "VISIT": "BASELINE",
    "VISITDY": 1,
    "VSDTC": "2013-06-18",
    "VSDY": 1
  },
  {
    "STUDYID": "CDISCPILOT01",
    "DOMAIN": "VS",
    "USUBJID": "01-701-001",
    "VSSEQ": 15,
    "VSTESTCD": "WEIGHT",
    "VSTEST": "Weight",
    "VSORRES": 46.8,
    "VSORRESU": "kg",
    "VSSTRESN": 46.8,
    "VSSTRESU": "kg",
    "VSBLFL": "",
    "VISITNUM": 3,
    "VISIT": "WEEK 2",
    "VISITDY": 15,
    "VSDTC": "2013-07-03",
    "VSDY": 15
  },
  {
    "STUDYID": "CDISCPILOT01",
    "DOMAIN": "VS",
    "USUBJID": "01-701-001",
    "VSSEQ": 16,
    "VSTESTCD": "HEIGHT",
    "VSTEST": "Height",
    "VSORRES": 152.1,
    "VSORRESU": "cm",
    "VSSTRESN": 152.1,
    "VSSTRESU": "cm",
    "VSBLFL": "",
    "VISITNUM": 3,
    "VISIT": "WEEK 2",
    "VISITDY": 15,
    "VSDTC": "2013-07-03",
    "VSDY": 15
  },
  {
    "STUDYID": "CDISCPILOT01",
    "DOMAIN": "VS",
    "USUBJID": "01-701-001",
    "VSSEQ": 17,
    "VSTESTCD": "TEMP",
    "VSTEST": "Temperature",
    "VSORRES": 36.5,
    "VSORRESU": "C",
    "VSSTRESN": 36.5,
    "VSSTRESU": "C",
    "VSBLFL": "",
    "VISITNUM": 3,
    "VISIT": "WEEK 2",
    "VISITDY": 15,
    "VSDTC": "2013-07-02",
    "VSDY": 15
  },
  {
    "STUDYID": "CDISCPILOT01",
    "DOMAIN": "VS",
    "USUBJID": "01-701-001",
    "VSSEQ": 18,
    "VSTESTCD": "SYSBP",
    "VSTEST": "Systolic Blood Pressure",
    "VSORRES": 145.2,
    "VSORRESU": "mmHg",
    "VSSTRESN": 145.2,
    "VSSTRESU": "mmHg",
    "VSBLFL": "",
    "VISITNUM": 3,
    "VISIT": "WEEK 2",
    "VISITDY": 15,
    "VSDTC": "2013-07-04",
    "VSDY": 15
  },
  {
    "STUDYID": "CDISCPILOT01",
    "DOMAIN": "VS",
    "USUBJID": "01-701-001",
    "VSSEQ": 19,
    "VSTESTCD": "DIABP",
    "VSTEST": "Diastolic Blood Pressure",
    "VSORRES": 75.9,
    "VSORRESU": "mmHg",
    "VSSTRESN": 75.9,
    "VSSTRESU": "mmHg",
    "VSBLFL": "",
    "VISITNUM": 3,
    "VISIT": "WEEK 2",
    "VISITDY": 15,
    "VSDTC": "2013-07-03",
    "VSDY": 15
  },
  {
    "STUDYID": "CDISCPILOT01",
    "DOMAIN": "VS",
    "USUBJID": "01-701-001",
    "VSSEQ": 20,
    "VSTESTCD": "PULSE",
    "VSTEST": "Pulse Rate",
    "VSORRES": 69.4,
    "VSORRESU": "beats/min",
    "VSSTRESN": 69.4,
    "VSSTRESU": "beats/min",
    "VSBLFL": "",
    "VISITNUM": 3,
    "VISIT": "WEEK 2",
    "VISITDY": 15,
    "VSDTC": "2013-07-03",
    "VSDY": 15
  },
  {
    "STUDYID": "CDISCPILOT01",
    "DOMAIN": "VS",
    "USUBJID": "01-701-001",
    "VSSEQ": 21,
    "VSTESTCD": "RESP",
    "VSTEST": "Respiratory Rate",
    "VSORRES": 14.3,
    "VSORRESU": "breaths/min",
    "VSSTRESN": 14.3,
    "VSSTRESU": "breaths/min",
    "VSBLFL": "",
    "VISITNUM": 3,
    "VISIT": "WEEK 2",
    "VISITDY": 15,
    "VSDTC": "2013-07-02",
    "VSDY": 15
  },
  {
    "STUDYID": "CDISCPILOT01",
    "DOMAIN": "VS",
    "USUBJID": "01-701-001",
    "VSSEQ": 22,
    "VSTESTCD": "WEIGHT",
    "VSTEST": "Weight",
    "VSORRES": 45,
    "VSORRESU": "kg",
    "VSSTRESN": 45,
    "VSSTRESU": "kg",
    "VSBLFL": "",
    "VISITNUM": 4,
    "VISIT": "WEEK 4",
    "VISITDY": 29,
    "VSDTC": "2013-07-16",
    "VSDY": 29
  },
  {
    "STUDYID": "CDISCPILOT01",
    "DOMAIN": "VS",
    "USUBJID": "01-701-001",
    "VSSEQ": 23,
    "VSTESTCD": "HEIGHT",
    "VSTEST": "Height",
    "VSORRES": 152.1,
    "VSORRESU": "cm",
    "VSSTRESN": 152.1,
    "VSSTRESU": "cm",
    "VSBLFL": "",
    "VISITNUM": 4,
    "VISIT": "WEEK 4",
    "VISITDY": 29,
    "VSDTC": "2013-07-16",
    "VSDY": 29
  },
  {
    "STUDYID": "CDISCPILOT01",
    "DOMAIN": "VS",
    "USUBJID": "01-701-001",
    "VSSEQ": 24,
    "VSTESTCD": "TEMP",
    "VSTEST": "Temperature",
    "VSORRES": 36.5,
    "VSORRESU": "C",
    "VSSTRESN": 36.5,
    "VSSTRESU": "C",
    "VSBLFL": "",
    "VISITNUM": 4,
    "VISIT": "WEEK 4",
    "VISITDY": 29,
    "VSDTC": "2013-07-18",
    "VSDY": 29
  },
  {
    "STUDYID": "CDISCPILOT01",
    "DOMAIN": "VS",
    "USUBJID": "01-701-001",
    "VSSEQ": 25,
    "VSTESTCD": "SYSBP",
    "VSTEST": "Systolic Blood Pressure",
    "VSORRES": 148.6,
    "VSORRESU": "mmHg",
    "VSSTRESN": 148.6,
    "VSSTRESU": "mmHg",
    "VSBLFL": "",
    "VISITNUM": 4,
    "VISIT": "WEEK 4",
    "VISITDY": 29,
    "VSDTC": "2013-07-18",
    "VSDY": 29
  },
  {
    "STUDYID": "CDISCPILOT01",
    "DOMAIN": "VS",
    "USUBJID": "01-701-001",
    "VSSEQ": 26,
    "VSTESTCD": "DIABP",
    "VSTEST": "Diastolic Blood Pressure",
    "VSORRES": 76.9,
    "VSORRESU": "mmHg",
    "VSSTRESN": 76.9,
    "VSSTRESU": "mmHg",
    "VSBLFL": "",
    "VISITNUM": 4,
    "VISIT": "WEEK 4",
    "VISITDY": 29,
    "VSDTC": "2013-07-16",
    "VSDY": 29
  },
  {
    "STUDYID": "CDISCPILOT01",
    "DOMAIN": "VS",
    "USUBJID": "01-701-001",
    "VSSEQ": 27,
    "VSTESTCD": "PULSE",
    "VSTEST": "Pulse Rate",
    "VSORRES": 68.9,
    "VSORRESU": "beats/min",
    "VSSTRESN": 68.9,
    "VSSTRESU": "beats/min",
    "VSBLFL": "",
    "VISITNUM": 4,
    "VISIT": "WEEK 4",
    "VISITDY": 29,
    "VSDTC": "2013-07-18",
    "VSDY": 29
  },
  {
    "STUDYID": "CDISCPILOT01",
    "DOMAIN": "VS",
    "USUBJID": "01-701-001",
    "VSSEQ": 28,
    "VSTESTCD": "RESP",
    "VSTEST": "Respiratory Rate",
    "VSORRES": 13.9,
    "VSORRESU": "breaths/min",
    "VSSTRESN": 13.9,
    "VSSTRESU": "breaths/min",
    "VSBLFL": "",
    "VISITNUM": 4,
    "VISIT": "WEEK 4",
    "VISITDY": 29,
    "VSDTC": "2013-07-16",
    "VSDY": 29
  },
  {
    "STUDYID": "CDISCPILOT01",
    "DOMAIN": "VS",
    "USUBJID": "01-701-001",
    "VSSEQ": 29,
    "VSTESTCD": "WEIGHT",
    "VSTEST": "Weight",
    "VSORRES": 47,
    "VSORRESU": "kg",
    "VSSTRESN": 47,
    "VSSTRESU": "kg",
    "VSBLFL": "",
    "VISITNUM": 5,
    "VISIT": "WEEK 8",
    "VISITDY": 57,
    "VSDTC": "2013-08-14",
    "VSDY": 57
  },
  {
    "STUDYID": "CDISCPILOT01",
    "DOMAIN": "VS",
    "USUBJID": "01-701-001",
    "VSSEQ": 30,
    "VSTESTCD": "HEIGHT",
    "VSTEST": "Height",
    "VSORRES": 152.1,
    "VSORRESU": "cm",
    "VSSTRESN": 152.1,
    "VSSTRESU": "cm",
    "VSBLFL": "",
    "VISITNUM": 5,
    "VISIT": "WEEK 8",
    "VISITDY": 57,
    "VSDTC": "2013-08-14",
    "VSDY": 57
  },
  {
    "STUDYID": "CDISCPILOT01",
    "DOMAIN": "VS",
    "USUBJID": "01-701-001",
    "VSSEQ": 31,
    "VSTESTCD": "TEMP",
    "VSTEST": "Temperature",
    "VSORRES": 36.6,
    "VSORRESU": "C",
    "VSSTRESN": 36.6,
    "VSSTRESU": "C",
    "VSBLFL": "",
    "VISITNUM": 5,
    "VISIT": "WEEK 8",
    "VISITDY": 57,
    "VSDTC": "2013-08-15",
    "VSDY": 57
  },
  {
    "STUDYID": "CDISCPILOT01",
    "DOMAIN": "VS",
    "USUBJID": "01-701-001",
    "VSSEQ": 32,
    "VSTESTCD": "SYSBP",
    "VSTEST": "Systolic Blood Pressure",
    "VSORRES": 143.1,
    "VSORRESU": "mmHg",
    "VSSTRESN": 143.1,
    "VSSTRESU": "mmHg",
    "VSBLFL": "",
    "VISITNUM": 5,
    "VISIT": "WEEK 8",
    "VISITDY": 57,
    "VSDTC": "2013-08-13",
    "VSDY": 57
  },
  {
    "STUDYID": "CDISCPILOT01",
    "DOMAIN": "VS",
    "USUBJID": "01-701-001",
    "VSSEQ": 33,
    "VSTESTCD": "DIABP",
    "VSTEST": "Diastolic Blood Pressure",
    "VSORRES": 78.4,
    "VSORRESU": "mmHg",
    "VSSTRESN": 78.4,
    "VSSTRESU": "mmHg",
    "VSBLFL": "",
    "VISITNUM": 5,
    "VISIT": "WEEK 8",
    "VISITDY": 57,
    "VSDTC": "2013-08-15",
    "VSDY": 57
  },
  {
    "STUDYID": "CDISCPILOT01",
    "DOMAIN": "VS",
    "USUBJID": "01-701-001",
    "VSSEQ": 34,
    "VSTESTCD": "PULSE",
    "VSTEST": "Pulse Rate",
    "VSORRES": 65.5,
    "VSORRESU": "beats/min",
    "VSSTRESN": 65.5,
    "VSSTRESU": "beats/min",
    "VSBLFL": "",
    "VISITNUM": 5,
    "VISIT": "WEEK 8",
    "VISITDY": 57,
    "VSDTC": "2013-08-13",
    "VSDY": 57
  },
  {
    "STUDYID": "CDISCPILOT01",
    "DOMAIN": "VS",
    "USUBJID": "01-701-001",
    "VSSEQ": 35,
    "VSTESTCD": "RESP",
    "VSTEST": "Respiratory Rate",
    "VSORRES": 13.7,
    "VSORRESU": "breaths/min",
    "VSSTRESN": 13.7,
    "VSSTRESU": "breaths/min",
    "VSBLFL": "",
    "VISITNUM": 5,
    "VISIT": "WEEK 8",
    "VISITDY": 57,
    "VSDTC": "2013-08-13",
    "VSDY": 57
  },
  {
    "STUDYID": "CDISCPILOT01",
    "DOMAIN": "VS",
    "USUBJID": "01-701-001",
    "VSSEQ": 36,
    "VSTESTCD": "WEIGHT",
    "VSTEST": "Weight",
    "VSORRES": 45.3,
    "VSORRESU": "kg",
    "VSSTRESN": 45.3,
    "VSSTRESU": "kg",
    "VSBLFL": "",
    "VISITNUM": 6,
    "VISIT": "WEEK 12",
    "VISITDY": 85,
    "VSDTC": "2013-09-11",
    "VSDY": 85
  },
  {
    "STUDYID": "CDISCPILOT01",
    "DOMAIN": "VS",
    "USUBJID": "01-701-001",
    "VSSEQ": 37,
    "VSTESTCD": "HEIGHT",
    "VSTEST": "Height",
    "VSORRES": 152.1,
    "VSORRESU": "cm",
    "VSSTRESN": 152.1,
    "VSSTRESU": "cm",
    "VSBLFL": "",
    "VISITNUM": 6,
    "VISIT": "WEEK 12",
    "VISITDY": 85,
    "VSDTC": "2013-09-11",
    "VSDY": 85
  },
  {
    "STUDYID": "CDISCPILOT01",
    "DOMAIN": "VS",
    "USUBJID": "01-701-001",
    "VSSEQ": 38,
    "VSTESTCD": "TEMP",
    "VSTEST": "Temperature",
    "VSORRES": 36.4,
    "VSORRESU": "C",
    "VSSTRESN": 36.4,
    "VSSTRESU": "C",
    "VSBLFL": "",
    "VISITNUM": 6,
    "VISIT": "WEEK 12",
    "VISITDY": 85,
    "VSDTC": "2013-09-11",
    "VSDY": 85
  },
  {
    "STUDYID": "CDISCPILOT01",
    "DOMAIN": "VS",
    "USUBJID": "01-701-001",
    "VSSEQ": 39,
    "VSTESTCD": "SYSBP",
    "VSTEST": "Systolic Blood Pressure",
    "VSORRES": 150.2,
    "VSORRESU": "mmHg",
    "VSSTRESN": 150.2,
    "VSSTRESU": "mmHg",
    "VSBLFL": "",
    "VISITNUM": 6,
    "VISIT": "WEEK 12",
    "VISITDY": 85,
    "VSDTC": "2013-09-12",
    "VSDY": 85
  },
  {
    "STUDYID": "CDISCPILOT01",
    "DOMAIN": "VS",
    "USUBJID": "01-701-001",
    "VSSEQ": 40,
    "VSTESTCD": "DIABP",
    "VSTEST": "Diastolic Blood Pressure",
    "VSORRES": 80.9,
    "VSORRESU": "mmHg",
    "VSSTRESN": 80.9,
    "VSSTRESU": "mmHg",
    "VSBLFL": "",
    "VISITNUM": 6,
    "VISIT": "WEEK 12",
    "VISITDY": 85,
    "VSDTC": "2013-09-12",
    "VSDY": 85
  },
  {
    "STUDYID": "CDISCPILOT01",
    "DOMAIN": "VS",
    "USUBJID": "01-701-001",
    "VSSEQ": 41,
    "VSTESTCD": "PULSE",
    "VSTEST": "Pulse Rate",
    "VSORRES": 68,
    "VSORRESU": "beats/min",
    "VSSTRESN": 68,
    "VSSTRESU": "beats/min",
    "VSBLFL": "",
    "VISITNUM": 6,
    "VISIT": "WEEK 12",
    "VISITDY": 85,
    "VSDTC": "2013-09-11",
    "VSDY": 85
  },
  {
    "STUDYID": "CDISCPILOT01",
    "DOMAIN": "VS",
    "USUBJID": "01-701-001",
    "VSSEQ": 42,
    "VSTESTCD": "RESP",
    "VSTEST": "Respiratory Rate",
    "VSORRES": 13.3,
    "VSORRESU": "breaths/min",
    "VSSTRESN": 13.3,
    "VSSTRESU": "breaths/min",
    "VSBLFL": "",
    "VISITNUM": 6,
    "VISIT": "WEEK 12",
    "VISITDY": 85,
    "VSDTC": "2013-09-10",
    "VSDY": 85
  },
  {
    "STUDYID": "CDISCPILOT01",
    "DOMAIN": "VS",
    "USUBJID": "01-701-001",
    "VSSEQ": 43,
    "VSTESTCD": "WEIGHT",
    "VSTEST": "Weight",
    "VSORRES": 46.7,
    "VSORRESU": "kg",
    "VSSTRESN": 46.7,
    "VSSTRESU": "kg",
    "VSBLFL": "",
    "VISITNUM": 7,
    "VISIT": "WEEK 16",
    "VISITDY": 113,
    "VSDTC": "2013-10-10",
    "VSDY": 113
  },
  {
    "STUDYID": "CDISCPILOT01",
    "DOMAIN": "VS",
    "USUBJID": "01-701-001",
    "VSSEQ": 44,
    "VSTESTCD": "HEIGHT",
    "VSTEST": "Height",
    "VSORRES": 152.1,
    "VSORRESU": "cm",
    "VSSTRESN": 152.1,
    "VSSTRESU": "cm",
    "VSBLFL": "",
    "VISITNUM": 7,
    "VISIT": "WEEK 16",
    "VISITDY": 113,
    "VSDTC": "2013-10-08",
    "VSDY": 113
  },
  {
    "STUDYID": "CDISCPILOT01",
    "DOMAIN": "VS",
    "USUBJID": "01-701-001",
    "VSSEQ": 45,
    "VSTESTCD": "TEMP",
    "VSTEST": "Temperature",
    "VSORRES": 36.5,
    "VSORRESU": "C",
    "VSSTRESN": 36.5,
    "VSSTRESU": "C",
    "VSBLFL": "",
    "VISITNUM": 7,
    "VISIT": "WEEK 16",
    "VISITDY": 113,
    "VSDTC": "2013-10-08",
    "VSDY": 113
  },
  {
    "STUDYID": "CDISCPILOT01",
    "DOMAIN": "VS",
    "USUBJID": "01-701-001",
    "VSSEQ": 46,
    "VSTESTCD": "SYSBP",
    "VSTEST": "Systolic Blood Pressure",
    "VSORRES": 143.6,
    "VSORRESU": "mmHg",
    "VSSTRESN": 143.6,
    "VSSTRESU": "mmHg",
    "VSBLFL": "",
    "VISITNUM": 7,
    "VISIT": "WEEK 16",
    "VISITDY": 113,
    "VSDTC": "2013-10-08",
    "VSDY": 113
  },
  {
    "STUDYID": "CDISCPILOT01",
    "DOMAIN": "VS",
    "USUBJID": "01-701-001",
    "VSSEQ": 47,
    "VSTESTCD": "DIABP",
    "VSTEST": "Diastolic Blood Pressure",
    "VSORRES": 77.6,
    "VSORRESU": "mmHg",
    "VSSTRESN": 77.6,
    "VSSTRESU": "mmHg",
    "VSBLFL": "",
    "VISITNUM": 7,
    "VISIT": "WEEK 16",
    "VISITDY": 113,
    "VSDTC": "2013-10-10",
    "VSDY": 113
  },
  {
    "STUDYID": "CDISCPILOT01",
    "DOMAIN": "VS",
    "USUBJID": "01-701-001",
    "VSSEQ": 48,
    "VSTESTCD": "PULSE",
    "VSTEST": "Pulse Rate",
    "VSORRES": 66.1,
    "VSORRESU": "beats/min",
    "VSSTRESN": 66.1,
    "VSSTRESU": "beats/min",
    "VSBLFL": "",
    "VISITNUM": 7,
    "VISIT": "WEEK 16",
    "VISITDY": 113,
    "VSDTC": "2013-10-10",
    "VSDY": 113
  },
  {
    "STUDYID": "CDISCPILOT01",
    "DOMAIN": "VS",
    "USUBJID": "01-701-001",
    "VSSEQ": 49,
    "VSTESTCD": "RESP",
    "VSTEST": "Respiratory Rate",
    "VSORRES": 13.6,
    "VSORRESU": "breaths/min",
    "VSSTRESN": 13.6,
    "VSSTRESU": "breaths/min",
    "VSBLFL": "",
    "VISITNUM": 7,
    "VISIT": "WEEK 16",
    "VISITDY": 113,
    "VSDTC": "2013-10-09",
    "VSDY": 113
  },
  {
    "STUDYID": "CDISCPILOT01",
    "DOMAIN": "VS",
    "USUBJID": "01-701-001",
    "VSSEQ": 50,
    "VSTESTCD": "WEIGHT",
    "VSTEST": "Weight",
    "VSORRES": 46.4,
    "VSORRESU": "kg",
    "VSSTRESN": 46.4,
    "VSSTRESU": "kg",
    "VSBLFL": "",
    "VISITNUM": 8,
    "VISIT": "WEEK 20",
    "VISITDY": 141,
    "VSDTC": "2013-11-06",
    "VSDY": 141
  },
  {
    "STUDYID": "CDISCPILOT01",
    "DOMAIN": "VS",
    "USUBJID": "01-701-001",
    "VSSEQ": 51,
    "VSTESTCD": "HEIGHT",
    "VSTEST": "Height",
    "VSORRES": 152.1,
    "VSORRESU": "cm",
    "VSSTRESN": 152.1,
    "VSSTRESU": "cm",
    "VSBLFL": "",
    "VISITNUM": 8,
    "VISIT": "WEEK 20",
    "VISITDY": 141,
    "VSDTC": "2013-11-06",
    "VSDY": 141
  },
  {
    "STUDYID": "CDISCPILOT01",
    "DOMAIN": "VS",
    "USUBJID": "01-701-001",
    "VSSEQ": 52,
    "VSTESTCD": "TEMP",
    "VSTEST": "Temperature",
    "VSORRES": 36.5,
    "VSORRESU": "C",
    "VSSTRESN": 36.5,
    "VSSTRESU": "C",
    "VSBLFL": "",
    "VISITNUM": 8,
    "VISIT": "WEEK 20",
    "VISITDY": 141,
    "VSDTC": "2013-11-05",
    "VSDY": 141
  },
  {
    "STUDYID": "CDISCPILOT01",
    "DOMAIN": "VS",
    "USUBJID": "01-701-001",
    "VSSEQ": 53,
    "VSTESTCD": "SYSBP",
    "VSTEST": "Systolic Blood Pressure",
    "VSORRES": 150.8,
    "VSORRESU": "mmHg",
    "VSSTRESN": 150.8,
    "VSSTRESU": "mmHg",
    "VSBLFL": "",
    "VISITNUM": 8,
    "VISIT": "WEEK 20",
    "VISITDY": 141,
    "VSDTC": "2013-11-05",
    "VSDY": 141
  },
  {
    "STUDYID": "CDISCPILOT01",
    "DOMAIN": "VS",
    "USUBJID": "01-701-001",
    "VSSEQ": 54,
    "VSTESTCD": "DIABP",
    "VSTEST": "Diastolic Blood Pressure",
    "VSORRES": 77.4,
    "VSORRESU": "mmHg",
    "VSSTRESN": 77.4,
    "VSSTRESU": "mmHg",
    "VSBLFL": "",
    "VISITNUM": 8,
    "VISIT": "WEEK 20",
    "VISITDY": 141,
    "VSDTC": "2013-11-05",
    "VSDY": 141
  },
  {
    "STUDYID": "CDISCPILOT01",
    "DOMAIN": "VS",
    "USUBJID": "01-701-001",
    "VSSEQ": 55,
    "VSTESTCD": "PULSE",
    "VSTEST": "Pulse Rate",
    "VSORRES": 69.7,
    "VSORRESU": "beats/min",
    "VSSTRESN": 69.7,
    "VSSTRESU": "beats/min",
    "VSBLFL": "",
    "VISITNUM": 8,
    "VISIT": "WEEK 20",
    "VISITDY": 141,
    "VSDTC": "2013-11-07",
    "VSDY": 141
  },
  {
    "STUDYID": "CDISCPILOT01",
    "DOMAIN": "VS",
    "USUBJID": "01-701-001",
    "VSSEQ": 56,
    "VSTESTCD": "RESP",
    "VSTEST": "Respiratory Rate",
    "VSORRES": 13.3,
    "VSORRESU": "breaths/min",
    "VSSTRESN": 13.3,
    "VSSTRESU": "breaths/min",
    "VSBLFL": "",
    "VISITNUM": 8,
    "VISIT": "WEEK 20",
    "VISITDY": 141,
    "VSDTC": "2013-11-05",
    "VSDY": 141
  },
  {
    "STUDYID": "CDISCPILOT01",
    "DOMAIN": "VS",
    "USUBJID": "01-701-001",
    "VSSEQ": 57,
    "VSTESTCD": "WEIGHT",
    "VSTEST": "Weight",
    "VSORRES": 46.2,
    "VSORRESU": "kg",
    "VSSTRESN": 46.2,
    "VSSTRESU": "kg",
    "VSBLFL": "",
    "VISITNUM": 9,
    "VISIT": "WEEK 24",
    "VISITDY": 169,
    "VSDTC": "2013-12-04",
    "VSDY": 169
  },
  {
    "STUDYID": "CDISCPILOT01",
    "DOMAIN": "VS",
    "USUBJID": "01-701-001",
    "VSSEQ": 58,
    "VSTESTCD": "HEIGHT",
    "VSTEST": "Height",
    "VSORRES": 152.1,
    "VSORRESU": "cm",
    "VSSTRESN": 152.1,
    "VSSTRESU": "cm",
    "VSBLFL": "",
    "VISITNUM": 9,
    "VISIT": "WEEK 24",
    "VISITDY": 169,
    "VSDTC": "2013-12-04",
    "VSDY": 169
  },
  {
    "STUDYID": "CDISCPILOT01",
    "DOMAIN": "VS",
    "USUBJID": "01-701-001",
    "VSSEQ": 59,
    "VSTESTCD": "TEMP",
    "VSTEST": "Temperature",
    "VSORRES": 36.5,
    "VSORRESU": "C",
    "VSSTRESN": 36.5,
    "VSSTRESU": "C",
    "VSBLFL": "",
    "VISITNUM": 9,
    "VISIT": "WEEK 24",
    "VISITDY": 169,
    "VSDTC": "2013-12-05",
    "VSDY": 169
  },
  {
    "STUDYID": "CDISCPILOT01",
    "DOMAIN": "VS",
    "USUBJID": "01-701-001",
    "VSSEQ": 60,
    "VSTESTCD": "SYSBP",
    "VSTEST": "Systolic Blood Pressure",
    "VSORRES": 151.8,
    "VSORRESU": "mmHg",
    "VSSTRESN": 151.8,
    "VSSTRESU": "mmHg",
    "VSBLFL": "",
    "VISITNUM": 9,
    "VISIT": "WEEK 24",
    "VISITDY": 169,
    "VSDTC": "2013-12-03",
    "VSDY": 169
  },
  {
    "STUDYID": "CDISCPILOT01",
    "DOMAIN": "VS",
    "USUBJID": "01-701-001",
    "VSSEQ": 61,
    "VSTESTCD": "DIABP",
    "VSTEST": "Diastolic Blood Pressure",
    "VSORRES": 80.2,
    "VSORRESU": "mmHg",
    "VSSTRESN": 80.2,
    "VSSTRESU": "mmHg",
    "VSBLFL": "",
    "VISITNUM": 9,
    "VISIT": "WEEK 24",
    "VISITDY": 169,
    "VSDTC": "2013-12-03",
    "VSDY": 169
  },
  {
    "STUDYID": "CDISCPILOT01",
    "DOMAIN": "VS",
    "USUBJID": "01-701-001",
    "VSSEQ": 62,
    "VSTESTCD": "PULSE",
    "VSTEST": "Pulse Rate",
    "VSORRES": 67.8,
    "VSORRESU": "beats/min",
    "VSSTRESN": 67.8,
    "VSSTRESU": "beats/min",
    "VSBLFL": "",
    "VISITNUM": 9,
    "VISIT": "WEEK 24",
    "VISITDY": 169,
    "VSDTC": "2013-12-05",
    "VSDY": 169
  },
  {
    "STUDYID": "CDISCPILOT01",
    "DOMAIN": "VS",
    "USUBJID": "01-701-001",
    "VSSEQ": 63,
    "VSTESTCD": "RESP",
    "VSTEST": "Respiratory Rate",
    "VSORRES": 13.8,
    "VSORRESU": "breaths/min",
    "VSSTRESN": 13.8,
    "VSSTRESU": "breaths/min",
    "VSBLFL": "",
    "VISITNUM": 9,
    "VISIT": "WEEK 24",
    "VISITDY": 169,
    "VSDTC": "2013-12-05",
    "VSDY": 169
  },
  {
    "STUDYID": "CDISCPILOT01",
    "DOMAIN": "VS",
    "USUBJID": "01-701-002",
    "VSSEQ": 1,
    "VSTESTCD": "WEIGHT",
    "VSTEST": "Weight",
    "VSORRES": 77.6,
    "VSORRESU": "kg",
    "VSSTRESN": 77.6,
    "VSSTRESU": "kg",
    "VSBLFL": "Y",
    "VISITNUM": 1,
    "VISIT": "SCREENING",
    "VISITDY": -7,
    "VSDTC": "2013-03-23",
    "VSDY": -7
  },
  {
    "STUDYID": "CDISCPILOT01",
    "DOMAIN": "VS",
    "USUBJID": "01-701-002",
    "VSSEQ": 2,
    "VSTESTCD": "HEIGHT",
    "VSTEST": "Height",
    "VSORRES": 151.3,
    "VSORRESU": "cm",
    "VSSTRESN": 151.3,
    "VSSTRESU": "cm",
    "VSBLFL": "Y",
    "VISITNUM": 1,
    "VISIT": "SCREENING",
    "VISITDY": -7,
    "VSDTC": "2013-03-25",
    "VSDY": -7
  },
  {
    "STUDYID": "CDISCPILOT01",
    "DOMAIN": "VS",
    "USUBJID": "01-701-002",
    "VSSEQ": 3,
    "VSTESTCD": "TEMP",
    "VSTEST": "Temperature",
    "VSORRES": 36.3,
    "VSORRESU": "C",
    "VSSTRESN": 36.3,
    "VSSTRESU": "C",
    "VSBLFL": "Y",
    "VISITNUM": 1,
    "VISIT": "SCREENING",
    "VISITDY": -7,
    "VSDTC": "2013-03-24",
    "VSDY": -7
  },
  {
    "STUDYID": "CDISCPILOT01",
    "DOMAIN": "VS",
    "USUBJID": "01-701-002",
    "VSSEQ": 4,
    "VSTESTCD": "SYSBP",
    "VSTEST": "Systolic Blood Pressure",
    "VSORRES": 139,
    "VSORRESU": "mmHg",
    "VSSTRESN": 139,
    "VSSTRESU": "mmHg",
    "VSBLFL": "Y",
    "VISITNUM": 1,
    "VISIT": "SCREENING",
    "VISITDY": -7,
    "VSDTC": "2013-03-25",
    "VSDY": -7
  },
  {
    "STUDYID": "CDISCPILOT01",
    "DOMAIN": "VS",
    "USUBJID": "01-701-002",
    "VSSEQ": 5,
    "VSTESTCD": "DIABP",
    "VSTEST": "Diastolic Blood Pressure",
    "VSORRES": 68.8,
    "VSORRESU": "mmHg",
    "VSSTRESN": 68.8,
    "VSSTRESU": "mmHg",
    "VSBLFL": "Y",
    "VISITNUM": 1,
    "VISIT": "SCREENING",
    "VISITDY": -7,
    "VSDTC": "2013-03-24",
    "VSDY": -7
  },
  {
    "STUDYID": "CDISCPILOT01",
    "DOMAIN": "VS",
    "USUBJID": "01-701-002",
    "VSSEQ": 6,
    "VSTESTCD": "PULSE",
    "VSTEST": "Pulse Rate",
    "VSORRES": 79.2,
    "VSORRESU": "beats/min",
    "VSSTRESN": 79.2,
    "VSSTRESU": "beats/min",
    "VSBLFL": "Y",
    "VISITNUM": 1,
    "VISIT": "SCREENING",
    "VISITDY": -7,
    "VSDTC": "2013-03-25",
    "VSDY": -7
  },
  {
    "STUDYID": "CDISCPILOT01",
    "DOMAIN": "VS",
    "USUBJID": "01-701-002",
    "VSSEQ": 7,
    "VSTESTCD": "RESP",
    "VSTEST": "Respiratory Rate",
    "VSORRES": 13.3,
    "VSORRESU": "breaths/min",
    "VSSTRESN": 13.3,
    "VSSTRESU": "breaths/min",
    "VSBLFL": "Y",
    "VISITNUM": 1,
    "VISIT": "SCREENING",
    "VISITDY": -7,
    "VSDTC": "2013-03-24",
    "VSDY": -7
  },
  {
    "STUDYID": "CDISCPILOT01",
    "DOMAIN": "VS",
    "USUBJID": "01-701-002",
    "VSSEQ": 8,
    "VSTESTCD": "WEIGHT",
    "VSTEST": "Weight",
    "VSORRES": 77.3,
    "VSORRESU": "kg",
    "VSSTRESN": 77.3,
    "VSSTRESU": "kg",
    "VSBLFL": "",
    "VISITNUM": 2,
    "VISIT": "BASELINE",
    "VISITDY": 1,
    "VSDTC": "2013-04-02",
    "VSDY": 1
  },
  {
    "STUDYID": "CDISCPILOT01",
    "DOMAIN": "VS",
    "USUBJID": "01-701-002",
    "VSSEQ": 9,
    "VSTESTCD": "HEIGHT",
    "VSTEST": "Height",
    "VSORRES": 151.3,
    "VSORRESU": "cm",
    "VSSTRESN": 151.3,
    "VSSTRESU": "cm",
    "VSBLFL": "",
    "VISITNUM": 2,
    "VISIT": "BASELINE",
    "VISITDY": 1,
    "VSDTC": "2013-04-01",
    "VSDY": 1
  },
  {
    "STUDYID": "CDISCPILOT01",
    "DOMAIN": "VS",
    "USUBJID": "01-701-002",
    "VSSEQ": 10,
    "VSTESTCD": "TEMP",
    "VSTEST": "Temperature",
    "VSORRES": 36.4,
    "VSORRESU": "C",
    "VSSTRESN": 36.4,
    "VSSTRESU": "C",
    "VSBLFL": "",
    "VISITNUM": 2,
    "VISIT": "BASELINE",
    "VISITDY": 1,
    "VSDTC": "2013-03-31",
    "VSDY": 1
  },
  {
    "STUDYID": "CDISCPILOT01",
    "DOMAIN": "VS",
    "USUBJID": "01-701-002",
    "VSSEQ": 11,
    "VSTESTCD": "SYSBP",
    "VSTEST": "Systolic Blood Pressure",
    "VSORRES": 144.4,
    "VSORRESU": "mmHg",
    "VSSTRESN": 144.4,
    "VSSTRESU": "mmHg",
    "VSBLFL": "",
    "VISITNUM": 2,
    "VISIT": "BASELINE",
    "VISITDY": 1,
    "VSDTC": "2013-04-02",
    "VSDY": 1
  },
  {
    "STUDYID": "CDISCPILOT01",
    "DOMAIN": "VS",
    "USUBJID": "01-701-002",
    "VSSEQ": 12,
    "VSTESTCD": "DIABP",
    "VSTEST": "Diastolic Blood Pressure",
    "VSORRES": 69.4,
    "VSORRESU": "mmHg",
    "VSSTRESN": 69.4,
    "VSSTRESU": "mmHg",
    "VSBLFL": "",
    "VISITNUM": 2,
    "VISIT": "BASELINE",
    "VISITDY": 1,
    "VSDTC": "2013-04-01",
    "VSDY": 1
  },
  {
    "STUDYID": "CDISCPILOT01",
    "DOMAIN": "VS",
    "USUBJID": "01-701-002",
    "VSSEQ": 13,
    "VSTESTCD": "PULSE",
    "VSTEST": "Pulse Rate",
    "VSORRES": 78.2,
    "VSORRESU": "beats/min",
    "VSSTRESN": 78.2,
    "VSSTRESU": "beats/min",
    "VSBLFL": "",
    "VISITNUM": 2,
    "VISIT": "BASELINE",
    "VISITDY": 1,
    "VSDTC": "2013-04-01",
    "VSDY": 1
  },
  {
    "STUDYID": "CDISCPILOT01",
    "DOMAIN": "VS",
    "USUBJID": "01-701-002",
    "VSSEQ": 14,
    "VSTESTCD": "RESP",
    "VSTEST": "Respiratory Rate",
    "VSORRES": 13.3,
    "VSORRESU": "breaths/min",
    "VSSTRESN": 13.3,
    "VSSTRESU": "breaths/min",
    "VSBLFL": "",
    "VISITNUM": 2,
    "VISIT": "BASELINE",
    "VISITDY": 1,
    "VSDTC": "2013-03-31",
    "VSDY": 1
  },
  {
    "STUDYID": "CDISCPILOT01",
    "DOMAIN": "VS",
    "USUBJID": "01-701-002",
    "VSSEQ": 15,
    "VSTESTCD": "WEIGHT",
    "VSTEST": "Weight",
    "VSORRES": 78,
    "VSORRESU": "kg",
    "VSSTRESN": 78,
    "VSSTRESU": "kg",
    "VSBLFL": "",
    "VISITNUM": 3,
    "VISIT": "WEEK 2",
    "VISITDY": 15,
    "VSDTC": "2013-04-14",
    "VSDY": 15
  },
  {
    "STUDYID": "CDISCPILOT01",
    "DOMAIN": "VS",
    "USUBJID": "01-701-002",
    "VSSEQ": 16,
    "VSTESTCD": "HEIGHT",
    "VSTEST": "Height",
    "VSORRES": 151.3,
    "VSORRESU": "cm",
    "VSSTRESN": 151.3,
    "VSSTRESU": "cm",
    "VSBLFL": "",
    "VISITNUM": 3,
    "VISIT": "WEEK 2",
    "VISITDY": 15,
    "VSDTC": "2013-04-15",
    "VSDY": 15
  },
  {
    "STUDYID": "CDISCPILOT01",
    "DOMAIN": "VS",
    "USUBJID": "01-701-002",
    "VSSEQ": 17,
    "VSTESTCD": "TEMP",
    "VSTEST": "Temperature",
    "VSORRES": 36.4,
    "VSORRESU": "C",
    "VSSTRESN": 36.4,
    "VSSTRESU": "C",
    "VSBLFL": "",
    "VISITNUM": 3,
    "VISIT": "WEEK 2",
    "VISITDY": 15,
    "VSDTC": "2013-04-14",
    "VSDY": 15
  },
  {
    "STUDYID": "CDISCPILOT01",
    "DOMAIN": "VS",
    "USUBJID": "01-701-002",
    "VSSEQ": 18,
    "VSTESTCD": "SYSBP",
    "VSTEST": "Systolic Blood Pressure",
    "VSORRES": 135.1,
    "VSORRESU": "mmHg",
    "VSSTRESN": 135.1,
    "VSSTRESU": "mmHg",
    "VSBLFL": "",
    "VISITNUM": 3,
    "VISIT": "WEEK 2",
    "VISITDY": 15,
    "VSDTC": "2013-04-16",
    "VSDY": 15
  },
  {
    "STUDYID": "CDISCPILOT01",
    "DOMAIN": "VS",
    "USUBJID": "01-701-002",
    "VSSEQ": 19,
    "VSTESTCD": "DIABP",
    "VSTEST": "Diastolic Blood Pressure",
    "VSORRES": 69.3,
    "VSORRESU": "mmHg",
    "VSSTRESN": 69.3,
    "VSSTRESU": "mmHg",
    "VSBLFL": "",
    "VISITNUM": 3,
    "VISIT": "WEEK 2",
    "VISITDY": 15,
    "VSDTC": "2013-04-15",
    "VSDY": 15
  },
  {
    "STUDYID": "CDISCPILOT01",
    "DOMAIN": "VS",
    "USUBJID": "01-701-002",
    "VSSEQ": 20,
    "VSTESTCD": "PULSE",
    "VSTEST": "Pulse Rate",
    "VSORRES": 75.3,
    "VSORRESU": "beats/min",
    "VSSTRESN": 75.3,
    "VSSTRESU": "beats/min",
    "VSBLFL": "",
    "VISITNUM": 3,
    "VISIT": "WEEK 2",
    "VISITDY": 15,
    "VSDTC": "2013-04-14",
    "VSDY": 15
  },
  {
    "STUDYID": "CDISCPILOT01",
    "DOMAIN": "VS",
    "USUBJID": "01-701-002",
    "VSSEQ": 21,
    "VSTESTCD": "RESP",
    "VSTEST": "Respiratory Rate",
    "VSORRES": 13.5,
    "VSORRESU": "breaths/min",
    "VSSTRESN": 13.5,
    "VSSTRESU": "breaths/min",
    "VSBLFL": "",
    "VISITNUM": 3,
    "VISIT": "WEEK 2",
    "VISITDY": 15,
    "VSDTC": "2013-04-16",
    "VSDY": 15
  },
  {
    "STUDYID": "CDISCPILOT01",
    "DOMAIN": "VS",
    "USUBJID": "01-701-002",
    "VSSEQ": 22,
    "VSTESTCD": "WEIGHT",
    "VSTEST": "Weight",
    "VSORRES": 78,
    "VSORRESU": "kg",
    "VSSTRESN": 78,
    "VSSTRESU": "kg",
    "VSBLFL": "",
    "VISITNUM": 4,
    "VISIT": "WEEK 4",
    "VISITDY": 29,
    "VSDTC": "2013-04-28",
    "VSDY": 29
  },
  {
    "STUDYID": "CDISCPILOT01",
    "DOMAIN": "VS",
    "USUBJID": "01-701-002",
    "VSSEQ": 23,
    "VSTESTCD": "HEIGHT",
    "VSTEST": "Height",
    "VSORRES": 151.3,
    "VSORRESU": "cm",
    "VSSTRESN": 151.3,
    "VSSTRESU": "cm",
    "VSBLFL": "",
    "VISITNUM": 4,
    "VISIT": "WEEK 4",
    "VISITDY": 29,
    "VSDTC": "2013-04-28",
    "VSDY": 29
  },
  {
    "STUDYID": "CDISCPILOT01",
    "DOMAIN": "VS",
    "USUBJID": "01-701-002",
    "VSSEQ": 24,
    "VSTESTCD": "TEMP",
    "VSTEST": "Temperature",
    "VSORRES": 36.3,
    "VSORRESU": "C",
    "VSSTRESN": 36.3,
    "VSSTRESU": "C",
    "VSBLFL": "",
    "VISITNUM": 4,
    "VISIT": "WEEK 4",
    "VISITDY": 29,
    "VSDTC": "2013-04-28",
    "VSDY": 29
  },
  {
    "STUDYID": "CDISCPILOT01",
    "DOMAIN": "VS",
    "USUBJID": "01-701-002",
    "VSSEQ": 25,
    "VSTESTCD": "SYSBP",
    "VSTEST": "Systolic Blood Pressure",
    "VSORRES": 136.5,
    "VSORRESU": "mmHg",
    "VSSTRESN": 136.5,
    "VSSTRESU": "mmHg",
    "VSBLFL": "",
    "VISITNUM": 4,
    "VISIT": "WEEK 4",
    "VISITDY": 29,
    "VSDTC": "2013-04-30",
    "VSDY": 29
  },
  {
    "STUDYID": "CDISCPILOT01",
    "DOMAIN": "VS",
    "USUBJID": "01-701-002",
    "VSSEQ": 26,
    "VSTESTCD": "DIABP",
    "VSTEST": "Diastolic Blood Pressure",
    "VSORRES": 69.4,
    "VSORRESU": "mmHg",
    "VSSTRESN": 69.4,
    "VSSTRESU": "mmHg",
    "VSBLFL": "",
    "VISITNUM": 4,
    "VISIT": "WEEK 4",
    "VISITDY": 29,
    "VSDTC": "2013-04-30",
    "VSDY": 29
  },
  {
    "STUDYID": "CDISCPILOT01",
    "DOMAIN": "VS",
    "USUBJID": "01-701-002",
    "VSSEQ": 27,
    "VSTESTCD": "PULSE",
    "VSTEST": "Pulse Rate",
    "VSORRES": 76.2,
    "VSORRESU": "beats/min",
    "VSSTRESN": 76.2,
    "VSSTRESU": "beats/min",
    "VSBLFL": "",
    "VISITNUM": 4,
    "VISIT": "WEEK 4",
    "VISITDY": 29,
    "VSDTC": "2013-04-30",
    "VSDY": 29
  },
  {
    "STUDYID": "CDISCPILOT01",
    "DOMAIN": "VS",
    "USUBJID": "01-701-002",
    "VSSEQ": 28,
    "VSTESTCD": "RESP",
    "VSTEST": "Respiratory Rate",
    "VSORRES": 13.1,
    "VSORRESU": "breaths/min",
    "VSSTRESN": 13.1,
    "VSSTRESU": "breaths/min",
    "VSBLFL": "",
    "VISITNUM": 4,
    "VISIT": "WEEK 4",
    "VISITDY": 29,
    "VSDTC": "2013-04-28",
    "VSDY": 29
  },
  {
    "STUDYID": "CDISCPILOT01",
    "DOMAIN": "VS",
    "USUBJID": "01-701-002",
    "VSSEQ": 29,
    "VSTESTCD": "WEIGHT",
    "VSTEST": "Weight",
    "VSORRES": 77.5,
    "VSORRESU": "kg",
    "VSSTRESN": 77.5,
    "VSSTRESU": "kg",
    "VSBLFL": "",
    "VISITNUM": 5,
    "VISIT": "WEEK 8",
    "VISITDY": 57,
    "VSDTC": "2013-05-27",
    "VSDY": 57
  },
  {
    "STUDYID": "CDISCPILOT01",
    "DOMAIN": "VS",
    "USUBJID": "01-701-002",
    "VSSEQ": 30,
    "VSTESTCD": "HEIGHT",
    "VSTEST": "Height",
    "VSORRES": 151.3,
    "VSORRESU": "cm",
    "VSSTRESN": 151.3,
    "VSSTRESU": "cm",
    "VSBLFL": "",
    "VISITNUM": 5,
    "VISIT": "WEEK 8",
    "VISITDY": 57,
    "VSDTC": "2013-05-26",
    "VSDY": 57
  },
  {
    "STUDYID": "CDISCPILOT01",
    "DOMAIN": "VS",
    "USUBJID": "01-701-002",
    "VSSEQ": 31,
    "VSTESTCD": "TEMP",
    "VSTEST": "Temperature",
    "VSORRES": 36.4,
    "VSORRESU": "C",
    "VSSTRESN": 36.4,
    "VSSTRESU": "C",
    "VSBLFL": "",
    "VISITNUM": 5,
    "VISIT": "WEEK 8",
    "VISITDY": 57,
    "VSDTC": "2013-05-28",
    "VSDY": 57
  },
  {
    "STUDYID": "CDISCPILOT01",
    "DOMAIN": "VS",
    "USUBJID": "01-701-002",
    "VSSEQ": 32,
    "VSTESTCD": "SYSBP",
    "VSTEST": "Systolic Blood Pressure",
    "VSORRES": 136.2,
    "VSORRESU": "mmHg",
    "VSSTRESN": 136.2,
    "VSSTRESU": "mmHg",
    "VSBLFL": "",
    "VISITNUM": 5,
    "VISIT": "WEEK 8",
    "VISITDY": 57,
    "VSDTC": "2013-05-26",
    "VSDY": 57
  },
  {
    "STUDYID": "CDISCPILOT01",
    "DOMAIN": "VS",
    "USUBJID": "01-701-002",
    "VSSEQ": 33,
    "VSTESTCD": "DIABP",
    "VSTEST": "Diastolic Blood Pressure",
    "VSORRES": 67.3,
    "VSORRESU": "mmHg",
    "VSSTRESN": 67.3,
    "VSSTRESU": "mmHg",
    "VSBLFL": "",
    "VISITNUM": 5,
    "VISIT": "WEEK 8",
    "VISITDY": 57,
    "VSDTC": "2013-05-27",
    "VSDY": 57
  },
  {
    "STUDYID": "CDISCPILOT01",
    "DOMAIN": "VS",
    "USUBJID": "01-701-002",
    "VSSEQ": 34,
    "VSTESTCD": "PULSE",
    "VSTEST": "Pulse Rate",
    "VSORRES": 77.6,
    "VSORRESU": "beats/min",
    "VSSTRESN": 77.6,
    "VSSTRESU": "beats/min",
    "VSBLFL": "",
    "VISITNUM": 5,
    "VISIT": "WEEK 8",
    "VISITDY": 57,
    "VSDTC": "2013-05-28",
    "VSDY": 57
  },
  {
    "STUDYID": "CDISCPILOT01",
    "DOMAIN": "VS",
    "USUBJID": "01-701-002",
    "VSSEQ": 35,
    "VSTESTCD": "RESP",
    "VSTEST": "Respiratory Rate",
    "VSORRES": 13.7,
    "VSORRESU": "breaths/min",
    "VSSTRESN": 13.7,
    "VSSTRESU": "breaths/min",
    "VSBLFL": "",
    "VISITNUM": 5,
    "VISIT": "WEEK 8",
    "VISITDY": 57,
    "VSDTC": "2013-05-26",
    "VSDY": 57
  },
  {
    "STUDYID": "CDISCPILOT01",
    "DOMAIN": "VS",
    "USUBJID": "01-701-002",
    "VSSEQ": 36,
    "VSTESTCD": "WEIGHT",
    "VSTEST": "Weight",
    "VSORRES": 77.2,
    "VSORRESU": "kg",
    "VSSTRESN": 77.2,
    "VSSTRESU": "kg",
    "VSBLFL": "",
    "VISITNUM": 6,
    "VISIT": "WEEK 12",
    "VISITDY": 85,
    "VSDTC": "2013-06-25",
    "VSDY": 85
  },
  {
    "STUDYID": "CDISCPILOT01",
    "DOMAIN": "VS",
    "USUBJID": "01-701-002",
    "VSSEQ": 37,
    "VSTESTCD": "HEIGHT",
    "VSTEST": "Height",
    "VSORRES": 151.3,
    "VSORRESU": "cm",
    "VSSTRESN": 151.3,
    "VSSTRESU": "cm",
    "VSBLFL": "",
    "VISITNUM": 6,
    "VISIT": "WEEK 12",
    "VISITDY": 85,
    "VSDTC": "2013-06-23",
    "VSDY": 85
  },
  {
    "STUDYID": "CDISCPILOT01",
    "DOMAIN": "VS",
    "USUBJID": "01-701-002",
    "VSSEQ": 38,
    "VSTESTCD": "TEMP",
    "VSTEST": "Temperature",
    "VSORRES": 36.4,
    "VSORRESU": "C",
    "VSSTRESN": 36.4,
    "VSSTRESU": "C",
    "VSBLFL": "",
    "VISITNUM": 6,
    "VISIT": "WEEK 12",
    "VISITDY": 85,
    "VSDTC": "2013-06-23",
    "VSDY": 85
  },
  {
    "STUDYID": "CDISCPILOT01",
    "DOMAIN": "VS",
    "USUBJID": "01-701-002",
    "VSSEQ": 39,
    "VSTESTCD": "SYSBP",
    "VSTEST": "Systolic Blood Pressure",
    "VSORRES": 137.3,
    "VSORRESU": "mmHg",
    "VSSTRESN": 137.3,
    "VSSTRESU": "mmHg",
    "VSBLFL": "",
    "VISITNUM": 6,
    "VISIT": "WEEK 12",
    "VISITDY": 85,
    "VSDTC": "2013-06-24",
    "VSDY": 85
  },
  {
    "STUDYID": "CDISCPILOT01",
    "DOMAIN": "VS",
    "USUBJID": "01-701-002",
    "VSSEQ": 40,
    "VSTESTCD": "DIABP",
    "VSTEST": "Diastolic Blood Pressure",
    "VSORRES": 67.6,
    "VSORRESU": "mmHg",
    "VSSTRESN": 67.6,
    "VSSTRESU": "mmHg",
    "VSBLFL": "",
    "VISITNUM": 6,
    "VISIT": "WEEK 12",
    "VISITDY": 85,
    "VSDTC": "2013-06-25",
    "VSDY": 85
  },
  {
    "STUDYID": "CDISCPILOT01",
    "DOMAIN": "VS",
    "USUBJID": "01-701-002",
    "VSSEQ": 41,
    "VSTESTCD": "PULSE",
    "VSTEST": "Pulse Rate",
    "VSORRES": 80.1,
    "VSORRESU": "beats/min",
    "VSSTRESN": 80.1,
    "VSSTRESU": "beats/min",
    "VSBLFL": "",
    "VISITNUM": 6,
    "VISIT": "WEEK 12",
    "VISITDY": 85,
    "VSDTC": "2013-06-24",
    "VSDY": 85
  },
  {
    "STUDYID": "CDISCPILOT01",
    "DOMAIN": "VS",
    "USUBJID": "01-701-002",
    "VSSEQ": 42,
    "VSTESTCD": "RESP",
    "VSTEST": "Respiratory Rate",
    "VSORRES": 13.2,
    "VSORRESU": "breaths/min",
    "VSSTRESN": 13.2,
    "VSSTRESU": "breaths/min",
    "VSBLFL": "",
    "VISITNUM": 6,
    "VISIT": "WEEK 12",
    "VISITDY": 85,
    "VSDTC": "2013-06-24",
    "VSDY": 85
  },
  {
    "STUDYID": "CDISCPILOT01",
    "DOMAIN": "VS",
    "USUBJID": "01-701-002",
    "VSSEQ": 43,
    "VSTESTCD": "WEIGHT",
    "VSTEST": "Weight",
    "VSORRES": 77.5,
    "VSORRESU": "kg",
    "VSSTRESN": 77.5,
    "VSSTRESU": "kg",
    "VSBLFL": "",
    "VISITNUM": 7,
    "VISIT": "WEEK 16",
    "VISITDY": 113,
    "VSDTC": "2013-07-23",
    "VSDY": 113
  },
  {
    "STUDYID": "CDISCPILOT01",
    "DOMAIN": "VS",
    "USUBJID": "01-701-002",
    "VSSEQ": 44,
    "VSTESTCD": "HEIGHT",
    "VSTEST": "Height",
    "VSORRES": 151.3,
    "VSORRESU": "cm",
    "VSSTRESN": 151.3,
    "VSSTRESU": "cm",
    "VSBLFL": "",
    "VISITNUM": 7,
    "VISIT": "WEEK 16",
    "VISITDY": 113,
    "VSDTC": "2013-07-21",
    "VSDY": 113
  },
  {
    "STUDYID": "CDISCPILOT01",
    "DOMAIN": "VS",
    "USUBJID": "01-701-002",
    "VSSEQ": 45,
    "VSTESTCD": "TEMP",
    "VSTEST": "Temperature",
    "VSORRES": 36.3,
    "VSORRESU": "C",
    "VSSTRESN": 36.3,
    "VSSTRESU": "C",
    "VSBLFL": "",
    "VISITNUM": 7,
    "VISIT": "WEEK 16",
    "VISITDY": 113,
    "VSDTC": "2013-07-21",
    "VSDY": 113
  },
  {
    "STUDYID": "CDISCPILOT01",
    "DOMAIN": "VS",
    "USUBJID": "01-701-002",
    "VSSEQ": 46,
    "VSTESTCD": "SYSBP",
    "VSTEST": "Systolic Blood Pressure",
    "VSORRES": 133,
    "VSORRESU": "mmHg",
    "VSSTRESN": 133,
    "VSSTRESU": "mmHg",
    "VSBLFL": "",
    "VISITNUM": 7,
    "VISIT": "WEEK 16",
    "VISITDY": 113,
    "VSDTC": "2013-07-23",
    "VSDY": 113
  },
  {
    "STUDYID": "CDISCPILOT01",
    "DOMAIN": "VS",
    "USUBJID": "01-701-002",
    "VSSEQ": 47,
    "VSTESTCD": "DIABP",
    "VSTEST": "Diastolic Blood Pressure",
    "VSORRES": 66.8,
    "VSORRESU": "mmHg",
    "VSSTRESN": 66.8,
    "VSSTRESU": "mmHg",
    "VSBLFL": "",
    "VISITNUM": 7,
    "VISIT": "WEEK 16",
    "VISITDY": 113,
    "VSDTC": "2013-07-21",
    "VSDY": 113
  },
  {
    "STUDYID": "CDISCPILOT01",
    "DOMAIN": "VS",
    "USUBJID": "01-701-002",
    "VSSEQ": 48,
    "VSTESTCD": "PULSE",
    "VSTEST": "Pulse Rate",
    "VSORRES": 75.1,
    "VSORRESU": "beats/min",
    "VSSTRESN": 75.1,
    "VSSTRESU": "beats/min",
    "VSBLFL": "",
    "VISITNUM": 7,
    "VISIT": "WEEK 16",
    "VISITDY": 113,
    "VSDTC": "2013-07-23",
    "VSDY": 113
  },
  {
    "STUDYID": "CDISCPILOT01",
    "DOMAIN": "VS",
    "USUBJID": "01-701-002",
    "VSSEQ": 49,
    "VSTESTCD": "RESP",
    "VSTEST": "Respiratory Rate",
    "VSORRES": 13.6,
    "VSORRESU": "breaths/min",
    "VSSTRESN": 13.6,
    "VSSTRESU": "breaths/min",
    "VSBLFL": "",
    "VISITNUM": 7,
    "VISIT": "WEEK 16",
    "VISITDY": 113,
    "VSDTC": "2013-07-22",
    "VSDY": 113
  },
  {
    "STUDYID": "CDISCPILOT01",
    "DOMAIN": "VS",
    "USUBJID": "01-701-002",
    "VSSEQ": 50,
    "VSTESTCD": "WEIGHT",
    "VSTEST": "Weight",
    "VSORRES": 77.9,
    "VSORRESU": "kg",
    "VSSTRESN": 77.9,
    "VSSTRESU": "kg",
    "VSBLFL": "",
    "VISITNUM": 8,
    "VISIT": "WEEK 20",
    "VISITDY": 141,
    "VSDTC": "2013-08-18",
    "VSDY": 141
  },
  {
    "STUDYID": "CDISCPILOT01",
    "DOMAIN": "VS",
    "USUBJID": "01-701-002",
    "VSSEQ": 51,
    "VSTESTCD": "HEIGHT",
    "VSTEST": "Height",
    "VSORRES": 151.3,
    "VSORRESU": "cm",
    "VSSTRESN": 151.3,
    "VSSTRESU": "cm",
    "VSBLFL": "",
    "VISITNUM": 8,
    "VISIT": "WEEK 20",
    "VISITDY": 141,
    "VSDTC": "2013-08-19",
    "VSDY": 141
  },
  {
    "STUDYID": "CDISCPILOT01",
    "DOMAIN": "VS",
    "USUBJID": "01-701-002",
    "VSSEQ": 52,
    "VSTESTCD": "TEMP",
    "VSTEST": "Temperature",
    "VSORRES": 36.4,
    "VSORRESU": "C",
    "VSSTRESN": 36.4,
    "VSSTRESU": "C",
    "VSBLFL": "",
    "VISITNUM": 8,
    "VISIT": "WEEK 20",
    "VISITDY": 141,
    "VSDTC": "2013-08-18",
    "VSDY": 141
  },
  {
    "STUDYID": "CDISCPILOT01",
    "DOMAIN": "VS",
    "USUBJID": "01-701-002",
    "VSSEQ": 53,
    "VSTESTCD": "SYSBP",
    "VSTEST": "Systolic Blood Pressure",
    "VSORRES": 133.1,
    "VSORRESU": "mmHg",
    "VSSTRESN": 133.1,
    "VSSTRESU": "mmHg",
    "VSBLFL": "",
    "VISITNUM": 8,
    "VISIT": "WEEK 20",
    "VISITDY": 141,
    "VSDTC": "2013-08-18",
    "VSDY": 141
  },
  {
    "STUDYID": "CDISCPILOT01",
    "DOMAIN": "VS",
    "USUBJID": "01-701-002",
    "VSSEQ": 54,
    "VSTESTCD": "DIABP",
    "VSTEST": "Diastolic Blood Pressure",
    "VSORRES": 68.3,
    "VSORRESU": "mmHg",
    "VSSTRESN": 68.3,
    "VSSTRESU": "mmHg",
    "VSBLFL": "",
    "VISITNUM": 8,
    "VISIT": "WEEK 20",
    "VISITDY": 141,
    "VSDTC": "2013-08-18",
    "VSDY": 141
  },
  {
    "STUDYID": "CDISCPILOT01",
    "DOMAIN": "VS",
    "USUBJID": "01-701-002",
    "VSSEQ": 55,
    "VSTESTCD": "PULSE",
    "VSTEST": "Pulse Rate",
    "VSORRES": 75.2,
    "VSORRESU": "beats/min",
    "VSSTRESN": 75.2,
    "VSSTRESU": "beats/min",
    "VSBLFL": "",
    "VISITNUM": 8,
    "VISIT": "WEEK 20",
    "VISITDY": 141,
    "VSDTC": "2013-08-19",
    "VSDY": 141
  },
  {
    "STUDYID": "CDISCPILOT01",
    "DOMAIN": "VS",
    "USUBJID": "01-701-002",
    "VSSEQ": 56,
    "VSTESTCD": "RESP",
    "VSTEST": "Respiratory Rate",
    "VSORRES": 13.4,
    "VSORRESU": "breaths/min",
    "VSSTRESN": 13.4,
    "VSSTRESU": "breaths/min",
    "VSBLFL": "",
    "VISITNUM": 8,
    "VISIT": "WEEK 20",
    "VISITDY": 141,
    "VSDTC": "2013-08-19",
    "VSDY": 141
  },
  {
    "STUDYID": "CDISCPILOT01",
    "DOMAIN": "VS",
    "USUBJID": "01-701-002",
    "VSSEQ": 57,
    "VSTESTCD": "WEIGHT",
    "VSTEST": "Weight",
    "VSORRES": 77.1,
    "VSORRESU": "kg",
    "VSSTRESN": 77.1,
    "VSSTRESU": "kg",
    "VSBLFL": "",
    "VISITNUM": 9,
    "VISIT": "WEEK 24",
    "VISITDY": 169,
    "VSDTC": "2013-09-17",
    "VSDY": 169
  },
  {
    "STUDYID": "CDISCPILOT01",
    "DOMAIN": "VS",
    "USUBJID": "01-701-002",
    "VSSEQ": 58,
    "VSTESTCD": "HEIGHT",
    "VSTEST": "Height",
    "VSORRES": 151.3,
    "VSORRESU": "cm",
    "VSSTRESN": 151.3,
    "VSSTRESU": "cm",
    "VSBLFL": "",
    "VISITNUM": 9,
    "VISIT": "WEEK 24",
    "VISITDY": 169,
    "VSDTC": "2013-09-17",
    "VSDY": 169
  },
  {
    "STUDYID": "CDISCPILOT01",
    "DOMAIN": "VS",
    "USUBJID": "01-701-002",
    "VSSEQ": 59,
    "VSTESTCD": "TEMP",
    "VSTEST": "Temperature",
    "VSORRES": 36.4,
    "VSORRESU": "C",
    "VSSTRESN": 36.4,
    "VSSTRESU": "C",
    "VSBLFL": "",
    "VISITNUM": 9,
    "VISIT": "WEEK 24",
    "VISITDY": 169,
    "VSDTC": "2013-09-16",
    "VSDY": 169
  },
  {
    "STUDYID": "CDISCPILOT01",
    "DOMAIN": "VS",
    "USUBJID": "01-701-002",
    "VSSEQ": 60,
    "VSTESTCD": "SYSBP",
    "VSTEST": "Systolic Blood Pressure",
    "VSORRES": 131.7,
    "VSORRESU": "mmHg",
    "VSSTRESN": 131.7,
    "VSSTRESU": "mmHg",
    "VSBLFL": "",
    "VISITNUM": 9,
    "VISIT": "WEEK 24",
    "VISITDY": 169,
    "VSDTC": "2013-09-15",
    "VSDY": 169
  },
  {
    "STUDYID": "CDISCPILOT01",
    "DOMAIN": "VS",
    "USUBJID": "01-701-002",
    "VSSEQ": 61,
    "VSTESTCD": "DIABP",
    "VSTEST": "Diastolic Blood Pressure",
    "VSORRES": 67.1,
    "VSORRESU": "mmHg",
    "VSSTRESN": 67.1,
    "VSSTRESU": "mmHg",
    "VSBLFL": "",
    "VISITNUM": 9,
    "VISIT": "WEEK 24",
    "VISITDY": 169,
    "VSDTC": "2013-09-16",
    "VSDY": 169
  },
  {
    "STUDYID": "CDISCPILOT01",
    "DOMAIN": "VS",
    "USUBJID": "01-701-002",
    "VSSEQ": 62,
    "VSTESTCD": "PULSE",
    "VSTEST": "Pulse Rate",
    "VSORRES": 76.2,
    "VSORRESU": "beats/min",
    "VSSTRESN": 76.2,
    "VSSTRESU": "beats/min",
    "VSBLFL": "",
    "VISITNUM": 9,
    "VISIT": "WEEK 24",
    "VISITDY": 169,
    "VSDTC": "2013-09-16",
    "VSDY": 169
  },
  {
    "STUDYID": "CDISCPILOT01",
    "DOMAIN": "VS",
    "USUBJID": "01-701-002",
    "VSSEQ": 63,
    "VSTESTCD": "RESP",
    "VSTEST": "Respiratory Rate",
    "VSORRES": 13.3,
    "VSORRESU": "breaths/min",
    "VSSTRESN": 13.3,
    "VSSTRESU": "breaths/min",
    "VSBLFL": "",
    "VISITNUM": 9,
    "VISIT": "WEEK 24",
    "VISITDY": 169,
    "VSDTC": "2013-09-16",
    "VSDY": 169
  },
  {
    "STUDYID": "CDISCPILOT01",
    "DOMAIN": "VS",
    "USUBJID": "01-701-003",
    "VSSEQ": 1,
    "VSTESTCD": "WEIGHT",
    "VSTEST": "Weight",
    "VSORRES": 76.1,
    "VSORRESU": "kg",
    "VSSTRESN": 76.1,
    "VSSTRESU": "kg",
    "VSBLFL": "Y",
    "VISITNUM": 1,
    "VISIT": "SCREENING",
    "VISITDY": -7,
    "VSDTC": "2012-12-25",
    "VSDY": -7
  },
  {
    "STUDYID": "CDISCPILOT01",
    "DOMAIN": "VS",
    "USUBJID": "01-701-003",
    "VSSEQ": 2,
    "VSTESTCD": "HEIGHT",
    "VSTEST": "Height",
    "VSORRES": 173.4,
    "VSORRESU": "cm",
    "VSSTRESN": 173.4,
    "VSSTRESU": "cm",
    "VSBLFL": "Y",
    "VISITNUM": 1,
    "VISIT": "SCREENING",
    "VISITDY": -7,
    "VSDTC": "2012-12-25",
    "VSDY": -7
  },
  {
    "STUDYID": "CDISCPILOT01",
    "DOMAIN": "VS",
    "USUBJID": "01-701-003",
    "VSSEQ": 3,
    "VSTESTCD": "TEMP",
    "VSTEST": "Temperature",
    "VSORRES": 36.4,
    "VSORRESU": "C",
    "VSSTRESN": 36.4,
    "VSSTRESU": "C",
    "VSBLFL": "Y",
    "VISITNUM": 1,
    "VISIT": "SCREENING",
    "VISITDY": -7,
    "VSDTC": "2012-12-24",
    "VSDY": -7
  },
  {
    "STUDYID": "CDISCPILOT01",
    "DOMAIN": "VS",
    "USUBJID": "01-701-003",
    "VSSEQ": 4,
    "VSTESTCD": "SYSBP",
    "VSTEST": "Systolic Blood Pressure",
    "VSORRES": 137.7,
    "VSORRESU": "mmHg",
    "VSSTRESN": 137.7,
    "VSSTRESU": "mmHg",
    "VSBLFL": "Y",
    "VISITNUM": 1,
    "VISIT": "SCREENING",
    "VISITDY": -7,
    "VSDTC": "2012-12-25",
    "VSDY": -7
  },
  {
    "STUDYID": "CDISCPILOT01",
    "DOMAIN": "VS",
    "USUBJID": "01-701-003",
    "VSSEQ": 5,
    "VSTESTCD": "DIABP",
    "VSTEST": "Diastolic Blood Pressure",
    "VSORRES": 85.3,
    "VSORRESU": "mmHg",
    "VSSTRESN": 85.3,
    "VSSTRESU": "mmHg",
    "VSBLFL": "Y",
    "VISITNUM": 1,
    "VISIT": "SCREENING",
    "VISITDY": -7,
    "VSDTC": "2012-12-24",
    "VSDY": -7
  },
  {
    "STUDYID": "CDISCPILOT01",
    "DOMAIN": "VS",
    "USUBJID": "01-701-003",
    "VSSEQ": 6,
    "VSTESTCD": "PULSE",
    "VSTEST": "Pulse Rate",
    "VSORRES": 81.7,
    "VSORRESU": "beats/min",
    "VSSTRESN": 81.7,
    "VSSTRESU": "beats/min",
    "VSBLFL": "Y",
    "VISITNUM": 1,
    "VISIT": "SCREENING",
    "VISITDY": -7,
    "VSDTC": "2012-12-25",
    "VSDY": -7
  },
  {
    "STUDYID": "CDISCPILOT01",
    "DOMAIN": "VS",
    "USUBJID": "01-701-003",
    "VSSEQ": 7,
    "VSTESTCD": "RESP",
    "VSTEST": "Respiratory Rate",
    "VSORRES": 16.1,
    "VSORRESU": "breaths/min",
    "VSSTRESN": 16.1,
    "VSSTRESU": "breaths/min",
    "VSBLFL": "Y",
    "VISITNUM": 1,
    "VISIT": "SCREENING",
    "VISITDY": -7,
    "VSDTC": "2012-12-24",
    "VSDY": -7
  },
  {
    "STUDYID": "CDISCPILOT01",
    "DOMAIN": "VS",
    "USUBJID": "01-701-003",
    "VSSEQ": 8,
    "VSTESTCD": "WEIGHT",
    "VSTEST": "Weight",
    "VSORRES": 76.2,
    "VSORRESU": "kg",
    "VSSTRESN": 76.2,
    "VSSTRESU": "kg",
    "VSBLFL": "",
    "VISITNUM": 2,
    "VISIT": "BASELINE",
    "VISITDY": 1,
    "VSDTC": "2013-01-02",
    "VSDY": 1
  },
  {
    "STUDYID": "CDISCPILOT01",
    "DOMAIN": "VS",
    "USUBJID": "01-701-003",
    "VSSEQ": 9,
    "VSTESTCD": "HEIGHT",
    "VSTEST": "Height",
    "VSORRES": 173.4,
    "VSORRESU": "cm",
    "VSSTRESN": 173.4,
    "VSSTRESU": "cm",
    "VSBLFL": "",
    "VISITNUM": 2,
    "VISIT": "BASELINE",
    "VISITDY": 1,
    "VSDTC": "2013-01-03",
    "VSDY": 1
  },
  {
    "STUDYID": "CDISCPILOT01",
    "DOMAIN": "VS",
    "USUBJID": "01-701-003",
    "VSSEQ": 10,
    "VSTESTCD": "TEMP",
    "VSTEST": "Temperature",
    "VSORRES": 36.5,
    "VSORRESU": "C",
    "VSSTRESN": 36.5,
    "VSSTRESU": "C",
    "VSBLFL": "",
    "VISITNUM": 2,
    "VISIT": "BASELINE",
    "VISITDY": 1,
    "VSDTC": "2013-01-02",
    "VSDY": 1
  },
  {
    "STUDYID": "CDISCPILOT01",
    "DOMAIN": "VS",
    "USUBJID": "01-701-003",
    "VSSEQ": 11,
    "VSTESTCD": "SYSBP",
    "VSTEST": "Systolic Blood Pressure",
    "VSORRES": 139.4,
    "VSORRESU": "mmHg",
    "VSSTRESN": 139.4,
    "VSSTRESU": "mmHg",
    "VSBLFL": "",
    "VISITNUM": 2,
    "VISIT": "BASELINE",
    "VISITDY": 1,
    "VSDTC": "2013-01-02",
    "VSDY": 1
  },
  {
    "STUDYID": "CDISCPILOT01",
    "DOMAIN": "VS",
    "USUBJID": "01-701-003",
    "VSSEQ": 12,
    "VSTESTCD": "DIABP",
    "VSTEST": "Diastolic Blood Pressure",
    "VSORRES": 83.8,
    "VSORRESU": "mmHg",
    "VSSTRESN": 83.8,
    "VSSTRESU": "mmHg",
    "VSBLFL": "",
    "VISITNUM": 2,
    "VISIT": "BASELINE",
    "VISITDY": 1,
    "VSDTC": "2013-01-02",
    "VSDY": 1
  },
  {
    "STUDYID": "CDISCPILOT01",
    "DOMAIN": "VS",
    "USUBJID": "01-701-003",
    "VSSEQ": 13,
    "VSTESTCD": "PULSE",
    "VSTEST": "Pulse Rate",
    "VSORRES": 81.8,
    "VSORRESU": "beats/min",
    "VSSTRESN": 81.8,
    "VSSTRESU": "beats/min",
    "VSBLFL": "",
    "VISITNUM": 2,
    "VISIT": "BASELINE",
    "VISITDY": 1,
    "VSDTC": "2013-01-03",
    "VSDY": 1
  },
  {
    "STUDYID": "CDISCPILOT01",
    "DOMAIN": "VS",
    "USUBJID": "01-701-003",
    "VSSEQ": 14,
    "VSTESTCD": "RESP",
    "VSTEST": "Respiratory Rate",
    "VSORRES": 16,
    "VSORRESU": "breaths/min",
    "VSSTRESN": 16,
    "VSSTRESU": "breaths/min",
    "VSBLFL": "",
    "VISITNUM": 2,
    "VISIT": "BASELINE",
    "VISITDY": 1,
    "VSDTC": "2013-01-03",
    "VSDY": 1
  },
  {
    "STUDYID": "CDISCPILOT01",
    "DOMAIN": "VS",
    "USUBJID": "01-701-003",
    "VSSEQ": 15,
    "VSTESTCD": "WEIGHT",
    "VSTEST": "Weight",
    "VSORRES": 76.1,
    "VSORRESU": "kg",
    "VSSTRESN": 76.1,
    "VSSTRESU": "kg",
    "VSBLFL": "",
    "VISITNUM": 3,
    "VISIT": "WEEK 2",
    "VISITDY": 15,
    "VSDTC": "2013-01-15",
    "VSDY": 15
  },
  {
    "STUDYID": "CDISCPILOT01",
    "DOMAIN": "VS",
    "USUBJID": "01-701-003",
    "VSSEQ": 16,
    "VSTESTCD": "HEIGHT",
    "VSTEST": "Height",
    "VSORRES": 173.4,
    "VSORRESU": "cm",
    "VSSTRESN": 173.4,
    "VSSTRESU": "cm",
    "VSBLFL": "",
    "VISITNUM": 3,
    "VISIT": "WEEK 2",
    "VISITDY": 15,
    "VSDTC": "2013-01-16",
    "VSDY": 15
  },
  {
    "STUDYID": "CDISCPILOT01",
    "DOMAIN": "VS",
    "USUBJID": "01-701-003",
    "VSSEQ": 17,
    "VSTESTCD": "TEMP",
    "VSTEST": "Temperature",
    "VSORRES": 36.4,
    "VSORRESU": "C",
    "VSSTRESN": 36.4,
    "VSSTRESU": "C",
    "VSBLFL": "",
    "VISITNUM": 3,
    "VISIT": "WEEK 2",
    "VISITDY": 15,
    "VSDTC": "2013-01-17",
    "VSDY": 15
  },
  {
    "STUDYID": "CDISCPILOT01",
    "DOMAIN": "VS",
    "USUBJID": "01-701-003",
    "VSSEQ": 18,
    "VSTESTCD": "SYSBP",
    "VSTEST": "Systolic Blood Pressure",
    "VSORRES": 141.1,
    "VSORRESU": "mmHg",
    "VSSTRESN": 141.1,
    "VSSTRESU": "mmHg",
    "VSBLFL": "",
    "VISITNUM": 3,
    "VISIT": "WEEK 2",
    "VISITDY": 15,
    "VSDTC": "2013-01-15",
    "VSDY": 15
  },
  {
    "STUDYID": "CDISCPILOT01",
    "DOMAIN": "VS",
    "USUBJID": "01-701-003",
    "VSSEQ": 19,
    "VSTESTCD": "DIABP",
    "VSTEST": "Diastolic Blood Pressure",
    "VSORRES": 87,
    "VSORRESU": "mmHg",
    "VSSTRESN": 87,
    "VSSTRESU": "mmHg",
    "VSBLFL": "",
    "VISITNUM": 3,
    "VISIT": "WEEK 2",
    "VISITDY": 15,
    "VSDTC": "2013-01-15",
    "VSDY": 15
  },
  {
    "STUDYID": "CDISCPILOT01",
    "DOMAIN": "VS",
    "USUBJID": "01-701-003",
    "VSSEQ": 20,
    "VSTESTCD": "PULSE",
    "VSTEST": "Pulse Rate",
    "VSORRES": 82.6,
    "VSORRESU": "beats/min",
    "VSSTRESN": 82.6,
    "VSSTRESU": "beats/min",
    "VSBLFL": "",
    "VISITNUM": 3,
    "VISIT": "WEEK 2",
    "VISITDY": 15,
    "VSDTC": "2013-01-17",
    "VSDY": 15
  },
  {
    "STUDYID": "CDISCPILOT01",
    "DOMAIN": "VS",
    "USUBJID": "01-701-003",
    "VSSEQ": 21,
    "VSTESTCD": "RESP",
    "VSTEST": "Respiratory Rate",
    "VSORRES": 16.2,
    "VSORRESU": "breaths/min",
    "VSSTRESN": 16.2,
    "VSSTRESU": "breaths/min",
    "VSBLFL": "",
    "VISITNUM": 3,
    "VISIT": "WEEK 2",
    "VISITDY": 15,
    "VSDTC": "2013-01-15",
    "VSDY": 15
  },
  {
    "STUDYID": "CDISCPILOT01",
    "DOMAIN": "VS",
    "USUBJID": "01-701-003",
    "VSSEQ": 22,
    "VSTESTCD": "WEIGHT",
    "VSTEST": "Weight",
    "VSORRES": 76.8,
    "VSORRESU": "kg",
    "VSSTRESN": 76.8,
    "VSSTRESU": "kg",
    "VSBLFL": "",
    "VISITNUM": 4,
    "VISIT": "WEEK 4",
    "VISITDY": 29,
    "VSDTC": "2013-01-31",
    "VSDY": 29
  },
  {
    "STUDYID": "CDISCPILOT01",
    "DOMAIN": "VS",
    "USUBJID": "01-701-003",
    "VSSEQ": 23,
    "VSTESTCD": "HEIGHT",
    "VSTEST": "Height",
    "VSORRES": 173.4,
    "VSORRESU": "cm",
    "VSSTRESN": 173.4,
    "VSSTRESU": "cm",
    "VSBLFL": "",
    "VISITNUM": 4,
    "VISIT": "WEEK 4",
    "VISITDY": 29,
    "VSDTC": "2013-01-29",
    "VSDY": 29
  },
  {
    "STUDYID": "CDISCPILOT01",
    "DOMAIN": "VS",
    "USUBJID": "01-701-003",
    "VSSEQ": 24,
    "VSTESTCD": "TEMP",
    "VSTEST": "Temperature",
    "VSORRES": 36.4,
    "VSORRESU": "C",
    "VSSTRESN": 36.4,
    "VSSTRESU": "C",
    "VSBLFL": "",
    "VISITNUM": 4,
    "VISIT": "WEEK 4",
    "VISITDY": 29,
    "VSDTC": "2013-01-30",
    "VSDY": 29
  },
  {
    "STUDYID": "CDISCPILOT01",
    "DOMAIN": "VS",
    "USUBJID": "01-701-003",
    "VSSEQ": 25,
    "VSTESTCD": "SYSBP",
    "VSTEST": "Systolic Blood Pressure",
    "VSORRES": 136,
    "VSORRESU": "mmHg",
    "VSSTRESN": 136,
    "VSSTRESU": "mmHg",
    "VSBLFL": "",
    "VISITNUM": 4,
    "VISIT": "WEEK 4",
    "VISITDY": 29,
    "VSDTC": "2013-01-30",
    "VSDY": 29
  },
  {
    "STUDYID": "CDISCPILOT01",
    "DOMAIN": "VS",
    "USUBJID": "01-701-003",
    "VSSEQ": 26,
    "VSTESTCD": "DIABP",
    "VSTEST": "Diastolic Blood Pressure",
    "VSORRES": 83,
    "VSORRESU": "mmHg",
    "VSSTRESN": 83,
    "VSSTRESU": "mmHg",
    "VSBLFL": "",
    "VISITNUM": 4,
    "VISIT": "WEEK 4",
    "VISITDY": 29,
    "VSDTC": "2013-01-31",
    "VSDY": 29
  },
  {
    "STUDYID": "CDISCPILOT01",
    "DOMAIN": "VS",
    "USUBJID": "01-701-003",
    "VSSEQ": 27,
    "VSTESTCD": "PULSE",
    "VSTEST": "Pulse Rate",
    "VSORRES": 83.7,
    "VSORRESU": "beats/min",
    "VSSTRESN": 83.7,
    "VSSTRESU": "beats/min",
    "VSBLFL": "",
    "VISITNUM": 4,
    "VISIT": "WEEK 4",
    "VISITDY": 29,
    "VSDTC": "2013-01-31",
    "VSDY": 29
  },
  {
    "STUDYID": "CDISCPILOT01",
    "DOMAIN": "VS",
    "USUBJID": "01-701-003",
    "VSSEQ": 28,
    "VSTESTCD": "RESP",
    "VSTEST": "Respiratory Rate",
    "VSORRES": 15.9,
    "VSORRESU": "breaths/min",
    "VSSTRESN": 15.9,
    "VSSTRESU": "breaths/min",
    "VSBLFL": "",
    "VISITNUM": 4,
    "VISIT": "WEEK 4",
    "VISITDY": 29,
    "VSDTC": "2013-01-30",
    "VSDY": 29
  },
  {
    "STUDYID": "CDISCPILOT01",
    "DOMAIN": "VS",
    "USUBJID": "01-701-003",
    "VSSEQ": 29,
    "VSTESTCD": "WEIGHT",
    "VSTEST": "Weight",
    "VSORRES": 75.7,
    "VSORRESU": "kg",
    "VSSTRESN": 75.7,
    "VSSTRESU": "kg",
    "VSBLFL": "",
    "VISITNUM": 5,
    "VISIT": "WEEK 8",
    "VISITDY": 57,
    "VSDTC": "2013-02-27",
    "VSDY": 57
  },
  {
    "STUDYID": "CDISCPILOT01",
    "DOMAIN": "VS",
    "USUBJID": "01-701-003",
    "VSSEQ": 30,
    "VSTESTCD": "HEIGHT",
    "VSTEST": "Height",
    "VSORRES": 173.4,
    "VSORRESU": "cm",
    "VSSTRESN": 173.4,
    "VSSTRESU": "cm",
    "VSBLFL": "",
    "VISITNUM": 5,
    "VISIT": "WEEK 8",
    "VISITDY": 57,
    "VSDTC": "2013-02-26",
    "VSDY": 57
  },
  {
    "STUDYID": "CDISCPILOT01",
    "DOMAIN": "VS",
    "USUBJID": "01-701-003",
    "VSSEQ": 31,
    "VSTESTCD": "TEMP",
    "VSTEST": "Temperature",
    "VSORRES": 36.4,
    "VSORRESU": "C",
    "VSSTRESN": 36.4,
    "VSSTRESU": "C",
    "VSBLFL": "",
    "VISITNUM": 5,
    "VISIT": "WEEK 8",
    "VISITDY": 57,
    "VSDTC": "2013-02-28",
    "VSDY": 57
  },
  {
    "STUDYID": "CDISCPILOT01",
    "DOMAIN": "VS",
    "USUBJID": "01-701-003",
    "VSSEQ": 32,
    "VSTESTCD": "SYSBP",
    "VSTEST": "Systolic Blood Pressure",
    "VSORRES": 141.5,
    "VSORRESU": "mmHg",
    "VSSTRESN": 141.5,
    "VSSTRESU": "mmHg",
    "VSBLFL": "",
    "VISITNUM": 5,
    "VISIT": "WEEK 8",
    "VISITDY": 57,
    "VSDTC": "2013-02-27",
    "VSDY": 57
  },
  {
    "STUDYID": "CDISCPILOT01",
    "DOMAIN": "VS",
    "USUBJID": "01-701-003",
    "VSSEQ": 33,
    "VSTESTCD": "DIABP",
    "VSTEST": "Diastolic Blood Pressure",
    "VSORRES": 86.9,
    "VSORRESU": "mmHg",
    "VSSTRESN": 86.9,
    "VSSTRESU": "mmHg",
    "VSBLFL": "",
    "VISITNUM": 5,
    "VISIT": "WEEK 8",
    "VISITDY": 57,
    "VSDTC": "2013-02-28",
    "VSDY": 57
  },
  {
    "STUDYID": "CDISCPILOT01",
    "DOMAIN": "VS",
    "USUBJID": "01-701-003",
    "VSSEQ": 34,
    "VSTESTCD": "PULSE",
    "VSTEST": "Pulse Rate",
    "VSORRES": 81.9,
    "VSORRESU": "beats/min",
    "VSSTRESN": 81.9,
    "VSSTRESU": "beats/min",
    "VSBLFL": "",
    "VISITNUM": 5,
    "VISIT": "WEEK 8",
    "VISITDY": 57,
    "VSDTC": "2013-02-26",
    "VSDY": 57
  },
  {
    "STUDYID": "CDISCPILOT01",
    "DOMAIN": "VS",
    "USUBJID": "01-701-003",
    "VSSEQ": 35,
    "VSTESTCD": "RESP",
    "VSTEST": "Respiratory Rate",
    "VSORRES": 15.9,
    "VSORRESU": "breaths/min",
    "VSSTRESN": 15.9,
    "VSSTRESU": "breaths/min",
    "VSBLFL": "",
    "VISITNUM": 5,
    "VISIT": "WEEK 8",
    "VISITDY": 57,
    "VSDTC": "2013-02-28",
    "VSDY": 57
  },
  {
    "STUDYID": "CDISCPILOT01",
    "DOMAIN": "VS",
    "USUBJID": "01-701-003",
    "VSSEQ": 36,
    "VSTESTCD": "WEIGHT",
    "VSTEST": "Weight",
    "VSORRES": 75.6,
    "VSORRESU": "kg",
    "VSSTRESN": 75.6,
    "VSSTRESU": "kg",
    "VSBLFL": "",
    "VISITNUM": 6,
    "VISIT": "WEEK 12",
    "VISITDY": 85,
    "VSDTC": "2013-03-27",
    "VSDY": 85
  },
  {
    "STUDYID": "CDISCPILOT01",
    "DOMAIN": "VS",
    "USUBJID": "01-701-003",
    "VSSEQ": 37,
    "VSTESTCD": "HEIGHT",
    "VSTEST": "Height",
    "VSORRES": 173.4,
    "VSORRESU": "cm",
    "VSSTRESN": 173.4,
    "VSSTRESU": "cm",
    "VSBLFL": "",
    "VISITNUM": 6,
    "VISIT": "WEEK 12",
    "VISITDY": 85,
    "VSDTC": "2013-03-27",
    "VSDY": 85
  },
  {
    "STUDYID": "CDISCPILOT01",
    "DOMAIN": "VS",
    "USUBJID": "01-701-003",
    "VSSEQ": 38,
    "VSTESTCD": "TEMP",
    "VSTEST": "Temperature",
    "VSORRES": 36.4,
    "VSORRESU": "C",
    "VSSTRESN": 36.4,
    "VSSTRESU": "C",
    "VSBLFL": "",
    "VISITNUM": 6,
    "VISIT": "WEEK 12",
    "VISITDY": 85,
    "VSDTC": "2013-03-27",
    "VSDY": 85
  },
  {
    "STUDYID": "CDISCPILOT01",
    "DOMAIN": "VS",
    "USUBJID": "01-701-003",
    "VSSEQ": 39,
    "VSTESTCD": "SYSBP",
    "VSTEST": "Systolic Blood Pressure",
    "VSORRES": 140.7,
    "VSORRESU": "mmHg",
    "VSSTRESN": 140.7,
    "VSSTRESU": "mmHg",
    "VSBLFL": "",
    "VISITNUM": 6,
    "VISIT": "WEEK 12",
    "VISITDY": 85,
    "VSDTC": "2013-03-28",
    "VSDY": 85
  },
  {
    "STUDYID": "CDISCPILOT01",
    "DOMAIN": "VS",
    "USUBJID": "01-701-003",
    "VSSEQ": 40,
    "VSTESTCD": "DIABP",
    "VSTEST": "Diastolic Blood Pressure",
    "VSORRES": 83.3,
    "VSORRESU": "mmHg",
    "VSSTRESN": 83.3,
    "VSSTRESU": "mmHg",
    "VSBLFL": "",
    "VISITNUM": 6,
    "VISIT": "WEEK 12",
    "VISITDY": 85,
    "VSDTC": "2013-03-27",
    "VSDY": 85
  },
  {
    "STUDYID": "CDISCPILOT01",
    "DOMAIN": "VS",
    "USUBJID": "01-701-003",
    "VSSEQ": 41,
    "VSTESTCD": "PULSE",
    "VSTEST": "Pulse Rate",
    "VSORRES": 81.6,
    "VSORRESU": "beats/min",
    "VSSTRESN": 81.6,
    "VSSTRESU": "beats/min",
    "VSBLFL": "",
    "VISITNUM": 6,
    "VISIT": "WEEK 12",
    "VISITDY": 85,
    "VSDTC": "2013-03-28",
    "VSDY": 85
  },
  {
    "STUDYID": "CDISCPILOT01",
    "DOMAIN": "VS",
    "USUBJID": "01-701-003",
    "VSSEQ": 42,
    "VSTESTCD": "RESP",
    "VSTEST": "Respiratory Rate",
    "VSORRES": 16,
    "VSORRESU": "breaths/min",
    "VSSTRESN": 16,
    "VSSTRESU": "breaths/min",
    "VSBLFL": "",
    "VISITNUM": 6,
    "VISIT": "WEEK 12",
    "VISITDY": 85,
    "VSDTC": "2013-03-26",
    "VSDY": 85
  },
  {
    "STUDYID": "CDISCPILOT01",
    "DOMAIN": "VS",
    "USUBJID": "01-701-003",
    "VSSEQ": 43,
    "VSTESTCD": "WEIGHT",
    "VSTEST": "Weight",
    "VSORRES": 75.9,
    "VSORRESU": "kg",
    "VSSTRESN": 75.9,
    "VSSTRESU": "kg",
    "VSBLFL": "",
    "VISITNUM": 7,
    "VISIT": "WEEK 16",
    "VISITDY": 113,
    "VSDTC": "2013-04-25",
    "VSDY": 113
  },
  {
    "STUDYID": "CDISCPILOT01",
    "DOMAIN": "VS",
    "USUBJID": "01-701-003",
    "VSSEQ": 44,
    "VSTESTCD": "HEIGHT",
    "VSTEST": "Height",
    "VSORRES": 173.4,
    "VSORRESU": "cm",
    "VSSTRESN": 173.4,
    "VSSTRESU": "cm",
    "VSBLFL": "",
    "VISITNUM": 7,
    "VISIT": "WEEK 16",
    "VISITDY": 113,
    "VSDTC": "2013-04-23",
    "VSDY": 113
  },
  {
    "STUDYID": "CDISCPILOT01",
    "DOMAIN": "VS",
    "USUBJID": "01-701-003",
    "VSSEQ": 45,
    "VSTESTCD": "TEMP",
    "VSTEST": "Temperature",
    "VSORRES": 36.4,
    "VSORRESU": "C",
    "VSSTRESN": 36.4,
    "VSSTRESU": "C",
    "VSBLFL": "",
    "VISITNUM": 7,
    "VISIT": "WEEK 16",
    "VISITDY": 113,
    "VSDTC": "2013-04-23",
    "VSDY": 113
  },
  {
    "STUDYID": "CDISCPILOT01",
    "DOMAIN": "VS",
    "USUBJID": "01-701-003",
    "VSSEQ": 46,
    "VSTESTCD": "SYSBP",
    "VSTEST": "Systolic Blood Pressure",
    "VSORRES": 135,
    "VSORRESU": "mmHg",
    "VSSTRESN": 135,
    "VSSTRESU": "mmHg",
    "VSBLFL": "",
    "VISITNUM": 7,
    "VISIT": "WEEK 16",
    "VISITDY": 113,
    "VSDTC": "2013-04-24",
    "VSDY": 113
  },
  {
    "STUDYID": "CDISCPILOT01",
    "DOMAIN": "VS",
    "USUBJID": "01-701-003",
    "VSSEQ": 47,
    "VSTESTCD": "DIABP",
    "VSTEST": "Diastolic Blood Pressure",
    "VSORRES": 83.2,
    "VSORRESU": "mmHg",
    "VSSTRESN": 83.2,
    "VSSTRESU": "mmHg",
    "VSBLFL": "",
    "VISITNUM": 7,
    "VISIT": "WEEK 16",
    "VISITDY": 113,
    "VSDTC": "2013-04-24",
    "VSDY": 113
  },
  {
    "STUDYID": "CDISCPILOT01",
    "DOMAIN": "VS",
    "USUBJID": "01-701-003",
    "VSSEQ": 48,
    "VSTESTCD": "PULSE",
    "VSTEST": "Pulse Rate",
    "VSORRES": 80,
    "VSORRESU": "beats/min",
    "VSSTRESN": 80,
    "VSSTRESU": "beats/min",
    "VSBLFL": "",
    "VISITNUM": 7,
    "VISIT": "WEEK 16",
    "VISITDY": 113,
    "VSDTC": "2013-04-25",
    "VSDY": 113
  },
  {
    "STUDYID": "CDISCPILOT01",
    "DOMAIN": "VS",
    "USUBJID": "01-701-003",
    "VSSEQ": 49,
    "VSTESTCD": "RESP",
    "VSTEST": "Respiratory Rate",
    "VSORRES": 16.8,
    "VSORRESU": "breaths/min",
    "VSSTRESN": 16.8,
    "VSSTRESU": "breaths/min",
    "VSBLFL": "",
    "VISITNUM": 7,
    "VISIT": "WEEK 16",
    "VISITDY": 113,
    "VSDTC": "2013-04-25",
    "VSDY": 113
  },
  {
    "STUDYID": "CDISCPILOT01",
    "DOMAIN": "VS",
    "USUBJID": "01-701-003",
    "VSSEQ": 50,
    "VSTESTCD": "WEIGHT",
    "VSTEST": "Weight",
    "VSORRES": 75.8,
    "VSORRESU": "kg",
    "VSSTRESN": 75.8,
    "VSSTRESU": "kg",
    "VSBLFL": "",
    "VISITNUM": 8,
    "VISIT": "WEEK 20",
    "VISITDY": 141,
    "VSDTC": "2013-05-23",
    "VSDY": 141
  },
  {
    "STUDYID": "CDISCPILOT01",
    "DOMAIN": "VS",
    "USUBJID": "01-701-003",
    "VSSEQ": 51,
    "VSTESTCD": "HEIGHT",
    "VSTEST": "Height",
    "VSORRES": 173.4,
    "VSORRESU": "cm",
    "VSSTRESN": 173.4,
    "VSSTRESU": "cm",
    "VSBLFL": "",
    "VISITNUM": 8,
    "VISIT": "WEEK 20",
    "VISITDY": 141,
    "VSDTC": "2013-05-21",
    "VSDY": 141
  },
  {
    "STUDYID": "CDISCPILOT01",
    "DOMAIN": "VS",
    "USUBJID": "01-701-003",
    "VSSEQ": 52,
    "VSTESTCD": "TEMP",
    "VSTEST": "Temperature",
    "VSORRES": 36.4,
    "VSORRESU": "C",
    "VSSTRESN": 36.4,
    "VSSTRESU": "C",
    "VSBLFL": "",
    "VISITNUM": 8,
    "VISIT": "WEEK 20",
    "VISITDY": 141,
    "VSDTC": "2013-05-21",
    "VSDY": 141
  },
  {
    "STUDYID": "CDISCPILOT01",
    "DOMAIN": "VS",
    "USUBJID": "01-701-003",
    "VSSEQ": 53,
    "VSTESTCD": "SYSBP",
    "VSTEST": "Systolic Blood Pressure",
    "VSORRES": 137,
    "VSORRESU": "mmHg",
    "VSSTRESN": 137,
    "VSSTRESU": "mmHg",
    "VSBLFL": "",
    "VISITNUM": 8,
    "VISIT": "WEEK 20",
    "VISITDY": 141,
    "VSDTC": "2013-05-22",
    "VSDY": 141
  },
  {
    "STUDYID": "CDISCPILOT01",
    "DOMAIN": "VS",
    "USUBJID": "01-701-003",
    "VSSEQ": 54,
    "VSTESTCD": "DIABP",
    "VSTEST": "Diastolic Blood Pressure",
    "VSORRES": 83.3,
    "VSORRESU": "mmHg",
    "VSSTRESN": 83.3,
    "VSSTRESU": "mmHg",
    "VSBLFL": "",
    "VISITNUM": 8,
    "VISIT": "WEEK 20",
    "VISITDY": 141,
    "VSDTC": "2013-05-23",
    "VSDY": 141
  },
  {
    "STUDYID": "CDISCPILOT01",
    "DOMAIN": "VS",
    "USUBJID": "01-701-003",
    "VSSEQ": 55,
    "VSTESTCD": "PULSE",
    "VSTEST": "Pulse Rate",
    "VSORRES": 82.3,
    "VSORRESU": "beats/min",
    "VSSTRESN": 82.3,
    "VSSTRESU": "beats/min",
    "VSBLFL": "",
    "VISITNUM": 8,
    "VISIT": "WEEK 20",
    "VISITDY": 141,
    "VSDTC": "2013-05-21",
    "VSDY": 141
  },
  {
    "STUDYID": "CDISCPILOT01",
    "DOMAIN": "VS",
    "USUBJID": "01-701-003",
    "VSSEQ": 56,
    "VSTESTCD": "RESP",
    "VSTEST": "Respiratory Rate",
    "VSORRES": 16,
    "VSORRESU": "breaths/min",
    "VSSTRESN": 16,
    "VSSTRESU": "breaths/min",
    "VSBLFL": "",
    "VISITNUM": 8,
    "VISIT": "WEEK 20",
    "VISITDY": 141,
    "VSDTC": "2013-05-21",
    "VSDY": 141
  },
  {
    "STUDYID": "CDISCPILOT01",
    "DOMAIN": "VS",
    "USUBJID": "01-701-003",
    "VSSEQ": 57,
    "VSTESTCD": "WEIGHT",
    "VSTEST": "Weight",
    "VSORRES": 76,
    "VSORRESU": "kg",
    "VSSTRESN": 76,
    "VSSTRESU": "kg",
    "VSBLFL": "",
    "VISITNUM": 9,
    "VISIT": "WEEK 24",
    "VISITDY": 169,
    "VSDTC": "2013-06-18",
    "VSDY": 169
  },
  {
    "STUDYID": "CDISCPILOT01",
    "DOMAIN": "VS",
    "USUBJID": "01-701-003",
    "VSSEQ": 58,
    "VSTESTCD": "HEIGHT",
    "VSTEST": "Height",
    "VSORRES": 173.4,
    "VSORRESU": "cm",
    "VSSTRESN": 173.4,
    "VSSTRESU": "cm",
    "VSBLFL": "",
    "VISITNUM": 9,
    "VISIT": "WEEK 24",
    "VISITDY": 169,
    "VSDTC": "2013-06-20",
    "VSDY": 169
  },
  {
    "STUDYID": "CDISCPILOT01",
    "DOMAIN": "VS",
    "USUBJID": "01-701-003",
    "VSSEQ": 59,
    "VSTESTCD": "TEMP",
    "VSTEST": "Temperature",
    "VSORRES": 36.4,
    "VSORRESU": "C",
    "VSSTRESN": 36.4,
    "VSSTRESU": "C",
    "VSBLFL": "",
    "VISITNUM": 9,
    "VISIT": "WEEK 24",
    "VISITDY": 169,
    "VSDTC": "2013-06-19",
    "VSDY": 169
  },
  {
    "STUDYID": "CDISCPILOT01",
    "DOMAIN": "VS",
    "USUBJID": "01-701-003",
    "VSSEQ": 60,
    "VSTESTCD": "SYSBP",
    "VSTEST": "Systolic Blood Pressure",
    "VSORRES": 137,
    "VSORRESU": "mmHg",
    "VSSTRESN": 137,
    "VSSTRESU": "mmHg",
    "VSBLFL": "",
    "VISITNUM": 9,
    "VISIT": "WEEK 24",
    "VISITDY": 169,
    "VSDTC": "2013-06-19",
    "VSDY": 169
  },
  {
    "STUDYID": "CDISCPILOT01",
    "DOMAIN": "VS",
    "USUBJID": "01-701-003",
    "VSSEQ": 61,
    "VSTESTCD": "DIABP",
    "VSTEST": "Diastolic Blood Pressure",
    "VSORRES": 85.5,
    "VSORRESU": "mmHg",
    "VSSTRESN": 85.5,
    "VSSTRESU": "mmHg",
    "VSBLFL": "",
    "VISITNUM": 9,
    "VISIT": "WEEK 24",
    "VISITDY": 169,
    "VSDTC": "2013-06-18",
    "VSDY": 169
  },
  {
    "STUDYID": "CDISCPILOT01",
    "DOMAIN": "VS",
    "USUBJID": "01-701-003",
    "VSSEQ": 62,
    "VSTESTCD": "PULSE",
    "VSTEST": "Pulse Rate",
    "VSORRES": 82.5,
    "VSORRESU": "beats/min",
    "VSSTRESN": 82.5,
    "VSSTRESU": "beats/min",
    "VSBLFL": "",
    "VISITNUM": 9,
    "VISIT": "WEEK 24",
    "VISITDY": 169,
    "VSDTC": "2013-06-18",
    "VSDY": 169
  },
  {
    "STUDYID": "CDISCPILOT01",
    "DOMAIN": "VS",
    "USUBJID": "01-701-003",
    "VSSEQ": 63,
    "VSTESTCD": "RESP",
    "VSTEST": "Respiratory Rate",
    "VSORRES": 16.7,
    "VSORRESU": "breaths/min",
    "VSSTRESN": 16.7,
    "VSSTRESU": "breaths/min",
    "VSBLFL": "",
    "VISITNUM": 9,
    "VISIT": "WEEK 24",
    "VISITDY": 169,
    "VSDTC": "2013-06-20",
    "VSDY": 169
  },
  {
    "STUDYID": "CDISCPILOT01",
    "DOMAIN": "VS",
    "USUBJID": "01-701-004",
    "VSSEQ": 1,
    "VSTESTCD": "WEIGHT",
    "VSTEST": "Weight",
    "VSORRES": 76.5,
    "VSORRESU": "kg",
    "VSSTRESN": 76.5,
    "VSSTRESU": "kg",
    "VSBLFL": "Y",
    "VISITNUM": 1,
    "VISIT": "SCREENING",
    "VISITDY": -7,
    "VSDTC": "2013-08-18",
    "VSDY": -7
  },
  {
    "STUDYID": "CDISCPILOT01",
    "DOMAIN": "VS",
    "USUBJID": "01-701-004",
    "VSSEQ": 2,
    "VSTESTCD": "HEIGHT",
    "VSTEST": "Height",
    "VSORRES": 176.2,
    "VSORRESU": "cm",
    "VSSTRESN": 176.2,
    "VSSTRESU": "cm",
    "VSBLFL": "Y",
    "VISITNUM": 1,
    "VISIT": "SCREENING",
    "VISITDY": -7,
    "VSDTC": "2013-08-16",
    "VSDY": -7
  },
  {
    "STUDYID": "CDISCPILOT01",
    "DOMAIN": "VS",
    "USUBJID": "01-701-004",
    "VSSEQ": 3,
    "VSTESTCD": "TEMP",
    "VSTEST": "Temperature",
    "VSORRES": 36.3,
    "VSORRESU": "C",
    "VSSTRESN": 36.3,
    "VSSTRESU": "C",
    "VSBLFL": "Y",
    "VISITNUM": 1,
    "VISIT": "SCREENING",
    "VISITDY": -7,
    "VSDTC": "2013-08-18",
    "VSDY": -7
  },
  {
    "STUDYID": "CDISCPILOT01",
    "DOMAIN": "VS",
    "USUBJID": "01-701-004",
    "VSSEQ": 4,
    "VSTESTCD": "SYSBP",
    "VSTEST": "Systolic Blood Pressure",
    "VSORRES": 165.8,
    "VSORRESU": "mmHg",
    "VSSTRESN": 165.8,
    "VSSTRESU": "mmHg",
    "VSBLFL": "Y",
    "VISITNUM": 1,
    "VISIT": "SCREENING",
    "VISITDY": -7,
    "VSDTC": "2013-08-18",
    "VSDY": -7
  },
  {
    "STUDYID": "CDISCPILOT01",
    "DOMAIN": "VS",
    "USUBJID": "01-701-004",
    "VSSEQ": 5,
    "VSTESTCD": "DIABP",
    "VSTEST": "Diastolic Blood Pressure",
    "VSORRES": 99.4,
    "VSORRESU": "mmHg",
    "VSSTRESN": 99.4,
    "VSSTRESU": "mmHg",
    "VSBLFL": "Y",
    "VISITNUM": 1,
    "VISIT": "SCREENING",
    "VISITDY": -7,
    "VSDTC": "2013-08-17",
    "VSDY": -7
  },
  {
    "STUDYID": "CDISCPILOT01",
    "DOMAIN": "VS",
    "USUBJID": "01-701-004",
    "VSSEQ": 6,
    "VSTESTCD": "PULSE",
    "VSTEST": "Pulse Rate",
    "VSORRES": 74.2,
    "VSORRESU": "beats/min",
    "VSSTRESN": 74.2,
    "VSSTRESU": "beats/min",
    "VSBLFL": "Y",
    "VISITNUM": 1,
    "VISIT": "SCREENING",
    "VISITDY": -7,
    "VSDTC": "2013-08-18",
    "VSDY": -7
  },
  {
    "STUDYID": "CDISCPILOT01",
    "DOMAIN": "VS",
    "USUBJID": "01-701-004",
    "VSSEQ": 7,
    "VSTESTCD": "RESP",
    "VSTEST": "Respiratory Rate",
    "VSORRES": 17.1,
    "VSORRESU": "breaths/min",
    "VSSTRESN": 17.1,
    "VSSTRESU": "breaths/min",
    "VSBLFL": "Y",
    "VISITNUM": 1,
    "VISIT": "SCREENING",
    "VISITDY": -7,
    "VSDTC": "2013-08-18",
    "VSDY": -7
  },
  {
    "STUDYID": "CDISCPILOT01",
    "DOMAIN": "VS",
    "USUBJID": "01-701-004",
    "VSSEQ": 8,
    "VSTESTCD": "WEIGHT",
    "VSTEST": "Weight",
    "VSORRES": 76.3,
    "VSORRESU": "kg",
    "VSSTRESN": 76.3,
    "VSSTRESU": "kg",
    "VSBLFL": "",
    "VISITNUM": 2,
    "VISIT": "BASELINE",
    "VISITDY": 1,
    "VSDTC": "2013-08-24",
    "VSDY": 1
  },
  {
    "STUDYID": "CDISCPILOT01",
    "DOMAIN": "VS",
    "USUBJID": "01-701-004",
    "VSSEQ": 9,
    "VSTESTCD": "HEIGHT",
    "VSTEST": "Height",
    "VSORRES": 176.2,
    "VSORRESU": "cm",
    "VSSTRESN": 176.2,
    "VSSTRESU": "cm",
    "VSBLFL": "",
    "VISITNUM": 2,
    "VISIT": "BASELINE",
    "VISITDY": 1,
    "VSDTC": "2013-08-26",
    "VSDY": 1
  },
  {
    "STUDYID": "CDISCPILOT01",
    "DOMAIN": "VS",
    "USUBJID": "01-701-004",
    "VSSEQ": 10,
    "VSTESTCD": "TEMP",
    "VSTEST": "Temperature",
    "VSORRES": 36.3,
    "VSORRESU": "C",
    "VSSTRESN": 36.3,
    "VSSTRESU": "C",
    "VSBLFL": "",
    "VISITNUM": 2,
    "VISIT": "BASELINE",
    "VISITDY": 1,
    "VSDTC": "2013-08-24",
    "VSDY": 1
  },
  {
    "STUDYID": "CDISCPILOT01",
    "DOMAIN": "VS",
    "USUBJID": "01-701-004",
    "VSSEQ": 11,
    "VSTESTCD": "SYSBP",
    "VSTEST": "Systolic Blood Pressure",
    "VSORRES": 168,
    "VSORRESU": "mmHg",
    "VSSTRESN": 168,
    "VSSTRESU": "mmHg",
    "VSBLFL": "",
    "VISITNUM": 2,
    "VISIT": "BASELINE",
    "VISITDY": 1,
    "VSDTC": "2013-08-25",
    "VSDY": 1
  },
  {
    "STUDYID": "CDISCPILOT01",
    "DOMAIN": "VS",
    "USUBJID": "01-701-004",
    "VSSEQ": 12,
    "VSTESTCD": "DIABP",
    "VSTEST": "Diastolic Blood Pressure",
    "VSORRES": 101.5,
    "VSORRESU": "mmHg",
    "VSSTRESN": 101.5,
    "VSSTRESU": "mmHg",
    "VSBLFL": "",
    "VISITNUM": 2,
    "VISIT": "BASELINE",
    "VISITDY": 1,
    "VSDTC": "2013-08-26",
    "VSDY": 1
  },
  {
    "STUDYID": "CDISCPILOT01",
    "DOMAIN": "VS",
    "USUBJID": "01-701-004",
    "VSSEQ": 13,
    "VSTESTCD": "PULSE",
    "VSTEST": "Pulse Rate",
    "VSORRES": 73.5,
    "VSORRESU": "beats/min",
    "VSSTRESN": 73.5,
    "VSSTRESU": "beats/min",
    "VSBLFL": "",
    "VISITNUM": 2,
    "VISIT": "BASELINE",
    "VISITDY": 1,
    "VSDTC": "2013-08-24",
    "VSDY": 1
  },
  {
    "STUDYID": "CDISCPILOT01",
    "DOMAIN": "VS",
    "USUBJID": "01-701-004",
    "VSSEQ": 14,
    "VSTESTCD": "RESP",
    "VSTEST": "Respiratory Rate",
    "VSORRES": 17.2,
    "VSORRESU": "breaths/min",
    "VSSTRESN": 17.2,
    "VSSTRESU": "breaths/min",
    "VSBLFL": "",
    "VISITNUM": 2,
    "VISIT": "BASELINE",
    "VISITDY": 1,
    "VSDTC": "2013-08-25",
    "VSDY": 1
  },
  {
    "STUDYID": "CDISCPILOT01",
    "DOMAIN": "VS",
    "USUBJID": "01-701-004",
    "VSSEQ": 15,
    "VSTESTCD": "WEIGHT",
    "VSTEST": "Weight",
    "VSORRES": 76.9,
    "VSORRESU": "kg",
    "VSSTRESN": 76.9,
    "VSSTRESU": "kg",
    "VSBLFL": "",
    "VISITNUM": 3,
    "VISIT": "WEEK 2",
    "VISITDY": 15,
    "VSDTC": "2013-09-07",
    "VSDY": 15
  },
  {
    "STUDYID": "CDISCPILOT01",
    "DOMAIN": "VS",
    "USUBJID": "01-701-004",
    "VSSEQ": 16,
    "VSTESTCD": "HEIGHT",
    "VSTEST": "Height",
    "VSORRES": 176.2,
    "VSORRESU": "cm",
    "VSSTRESN": 176.2,
    "VSSTRESU": "cm",
    "VSBLFL": "",
    "VISITNUM": 3,
    "VISIT": "WEEK 2",
    "VISITDY": 15,
    "VSDTC": "2013-09-09",
    "VSDY": 15
  },
  {
    "STUDYID": "CDISCPILOT01",
    "DOMAIN": "VS",
    "USUBJID": "01-701-004",
    "VSSEQ": 17,
    "VSTESTCD": "TEMP",
    "VSTEST": "Temperature",
    "VSORRES": 36.4,
    "VSORRESU": "C",
    "VSSTRESN": 36.4,
    "VSSTRESU": "C",
    "VSBLFL": "",
    "VISITNUM": 3,
    "VISIT": "WEEK 2",
    "VISITDY": 15,
    "VSDTC": "2013-09-09",
    "VSDY": 15
  },
  {
    "STUDYID": "CDISCPILOT01",
    "DOMAIN": "VS",
    "USUBJID": "01-701-004",
    "VSSEQ": 18,
    "VSTESTCD": "SYSBP",
    "VSTEST": "Systolic Blood Pressure",
    "VSORRES": 160.4,
    "VSORRESU": "mmHg",
    "VSSTRESN": 160.4,
    "VSSTRESU": "mmHg",
    "VSBLFL": "",
    "VISITNUM": 3,
    "VISIT": "WEEK 2",
    "VISITDY": 15,
    "VSDTC": "2013-09-09",
    "VSDY": 15
  },
  {
    "STUDYID": "CDISCPILOT01",
    "DOMAIN": "VS",
    "USUBJID": "01-701-004",
    "VSSEQ": 19,
    "VSTESTCD": "DIABP",
    "VSTEST": "Diastolic Blood Pressure",
    "VSORRES": 102.3,
    "VSORRESU": "mmHg",
    "VSSTRESN": 102.3,
    "VSSTRESU": "mmHg",
    "VSBLFL": "",
    "VISITNUM": 3,
    "VISIT": "WEEK 2",
    "VISITDY": 15,
    "VSDTC": "2013-09-09",
    "VSDY": 15
  },
  {
    "STUDYID": "CDISCPILOT01",
    "DOMAIN": "VS",
    "USUBJID": "01-701-004",
    "VSSEQ": 20,
    "VSTESTCD": "PULSE",
    "VSTEST": "Pulse Rate",
    "VSORRES": 67.8,
    "VSORRESU": "beats/min",
    "VSSTRESN": 67.8,
    "VSSTRESU": "beats/min",
    "VSBLFL": "",
    "VISITNUM": 3,
    "VISIT": "WEEK 2",
    "VISITDY": 15,
    "VSDTC": "2013-09-07",
    "VSDY": 15
  },
  {
    "STUDYID": "CDISCPILOT01",
    "DOMAIN": "VS",
    "USUBJID": "01-701-004",
    "VSSEQ": 21,
    "VSTESTCD": "RESP",
    "VSTEST": "Respiratory Rate",
    "VSORRES": 17.1,
    "VSORRESU": "breaths/min",
    "VSSTRESN": 17.1,
    "VSSTRESU": "breaths/min",
    "VSBLFL": "",
    "VISITNUM": 3,
    "VISIT": "WEEK 2",
    "VISITDY": 15,
    "VSDTC": "2013-09-08",
    "VSDY": 15
  },
  {
    "STUDYID": "CDISCPILOT01",
    "DOMAIN": "VS",
    "USUBJID": "01-701-004",
    "VSSEQ": 22,
    "VSTESTCD": "WEIGHT",
    "VSTEST": "Weight",
    "VSORRES": 76.2,
    "VSORRESU": "kg",
    "VSSTRESN": 76.2,
    "VSSTRESU": "kg",
    "VSBLFL": "",
    "VISITNUM": 4,
    "VISIT": "WEEK 4",
    "VISITDY": 29,
    "VSDTC": "2013-09-21",
    "VSDY": 29
  },
  {
    "STUDYID": "CDISCPILOT01",
    "DOMAIN": "VS",
    "USUBJID": "01-701-004",
    "VSSEQ": 23,
    "VSTESTCD": "HEIGHT",
    "VSTEST": "Height",
    "VSORRES": 176.2,
    "VSORRESU": "cm",
    "VSSTRESN": 176.2,
    "VSSTRESU": "cm",
    "VSBLFL": "",
    "VISITNUM": 4,
    "VISIT": "WEEK 4",
    "VISITDY": 29,
    "VSDTC": "2013-09-21",
    "VSDY": 29
  },
  {
    "STUDYID": "CDISCPILOT01",
    "DOMAIN": "VS",
    "USUBJID": "01-701-004",
    "VSSEQ": 24,
    "VSTESTCD": "TEMP",
    "VSTEST": "Temperature",
    "VSORRES": 36.3,
    "VSORRESU": "C",
    "VSSTRESN": 36.3,
    "VSSTRESU": "C",
    "VSBLFL": "",
    "VISITNUM": 4,
    "VISIT": "WEEK 4",
    "VISITDY": 29,
    "VSDTC": "2013-09-21",
    "VSDY": 29
  },
  {
    "STUDYID": "CDISCPILOT01",
    "DOMAIN": "VS",
    "USUBJID": "01-701-004",
    "VSSEQ": 25,
    "VSTESTCD": "SYSBP",
    "VSTEST": "Systolic Blood Pressure",
    "VSORRES": 161.5,
    "VSORRESU": "mmHg",
    "VSSTRESN": 161.5,
    "VSSTRESU": "mmHg",
    "VSBLFL": "",
    "VISITNUM": 4,
    "VISIT": "WEEK 4",
    "VISITDY": 29,
    "VSDTC": "2013-09-21",
    "VSDY": 29
  },
  {
    "STUDYID": "CDISCPILOT01",
    "DOMAIN": "VS",
    "USUBJID": "01-701-004",
    "VSSEQ": 26,
    "VSTESTCD": "DIABP",
    "VSTEST": "Diastolic Blood Pressure",
    "VSORRES": 100.4,
    "VSORRESU": "mmHg",
    "VSSTRESN": 100.4,
    "VSSTRESU": "mmHg",
    "VSBLFL": "",
    "VISITNUM": 4,
    "VISIT": "WEEK 4",
    "VISITDY": 29,
    "VSDTC": "2013-09-21",
    "VSDY": 29
  },
  {
    "STUDYID": "CDISCPILOT01",
    "DOMAIN": "VS",
    "USUBJID": "01-701-004",
    "VSSEQ": 27,
    "VSTESTCD": "PULSE",
    "VSTEST": "Pulse Rate",
    "VSORRES": 70.5,
    "VSORRESU": "beats/min",
    "VSSTRESN": 70.5,
    "VSSTRESU": "beats/min",
    "VSBLFL": "",
    "VISITNUM": 4,
    "VISIT": "WEEK 4",
    "VISITDY": 29,
    "VSDTC": "2013-09-22",
    "VSDY": 29
  },
  {
    "STUDYID": "CDISCPILOT01",
    "DOMAIN": "VS",
    "USUBJID": "01-701-004",
    "VSSEQ": 28,
    "VSTESTCD": "RESP",
    "VSTEST": "Respiratory Rate",
    "VSORRES": 16.8,
    "VSORRESU": "breaths/min",
    "VSSTRESN": 16.8,
    "VSSTRESU": "breaths/min",
    "VSBLFL": "",
    "VISITNUM": 4,
    "VISIT": "WEEK 4",
    "VISITDY": 29,
    "VSDTC": "2013-09-22",
    "VSDY": 29
  },
  {
    "STUDYID": "CDISCPILOT01",
    "DOMAIN": "VS",
    "USUBJID": "01-701-004",
    "VSSEQ": 29,
    "VSTESTCD": "WEIGHT",
    "VSTEST": "Weight",
    "VSORRES": 76.5,
    "VSORRESU": "kg",
    "VSSTRESN": 76.5,
    "VSSTRESU": "kg",
    "VSBLFL": "",
    "VISITNUM": 5,
    "VISIT": "WEEK 8",
    "VISITDY": 57,
    "VSDTC": "2013-10-21",
    "VSDY": 57
  },
  {
    "STUDYID": "CDISCPILOT01",
    "DOMAIN": "VS",
    "USUBJID": "01-701-004",
    "VSSEQ": 30,
    "VSTESTCD": "HEIGHT",
    "VSTEST": "Height",
    "VSORRES": 176.2,
    "VSORRESU": "cm",
    "VSSTRESN": 176.2,
    "VSSTRESU": "cm",
    "VSBLFL": "",
    "VISITNUM": 5,
    "VISIT": "WEEK 8",
    "VISITDY": 57,
    "VSDTC": "2013-10-19",
    "VSDY": 57
  },
  {
    "STUDYID": "CDISCPILOT01",
    "DOMAIN": "VS",
    "USUBJID": "01-701-004",
    "VSSEQ": 31,
    "VSTESTCD": "TEMP",
    "VSTEST": "Temperature",
    "VSORRES": 36.3,
    "VSORRESU": "C",
    "VSSTRESN": 36.3,
    "VSSTRESU": "C",
    "VSBLFL": "",
    "VISITNUM": 5,
    "VISIT": "WEEK 8",
    "VISITDY": 57,
    "VSDTC": "2013-10-19",
    "VSDY": 57
  },
  {
    "STUDYID": "CDISCPILOT01",
    "DOMAIN": "VS",
    "USUBJID": "01-701-004",
    "VSSEQ": 32,
    "VSTESTCD": "SYSBP",
    "VSTEST": "Systolic Blood Pressure",
    "VSORRES": 164.3,
    "VSORRESU": "mmHg",
    "VSSTRESN": 164.3,
    "VSSTRESU": "mmHg",
    "VSBLFL": "",
    "VISITNUM": 5,
    "VISIT": "WEEK 8",
    "VISITDY": 57,
    "VSDTC": "2013-10-21",
    "VSDY": 57
  },
  {
    "STUDYID": "CDISCPILOT01",
    "DOMAIN": "VS",
    "USUBJID": "01-701-004",
    "VSSEQ": 33,
    "VSTESTCD": "DIABP",
    "VSTEST": "Diastolic Blood Pressure",
    "VSORRES": 99.8,
    "VSORRESU": "mmHg",
    "VSSTRESN": 99.8,
    "VSSTRESU": "mmHg",
    "VSBLFL": "",
    "VISITNUM": 5,
    "VISIT": "WEEK 8",
    "VISITDY": 57,
    "VSDTC": "2013-10-20",
    "VSDY": 57
  },
  {
    "STUDYID": "CDISCPILOT01",
    "DOMAIN": "VS",
    "USUBJID": "01-701-004",
    "VSSEQ": 34,
    "VSTESTCD": "PULSE",
    "VSTEST": "Pulse Rate",
    "VSORRES": 73.8,
    "VSORRESU": "beats/min",
    "VSSTRESN": 73.8,
    "VSSTRESU": "beats/min",
    "VSBLFL": "",
    "VISITNUM": 5,
    "VISIT": "WEEK 8",
    "VISITDY": 57,
    "VSDTC": "2013-10-21",
    "VSDY": 57
  },
  {
    "STUDYID": "CDISCPILOT01",
    "DOMAIN": "VS",
    "USUBJID": "01-701-004",
    "VSSEQ": 35,
    "VSTESTCD": "RESP",
    "VSTEST": "Respiratory Rate",
    "VSORRES": 17.4,
    "VSORRESU": "breaths/min",
    "VSSTRESN": 17.4,
    "VSSTRESU": "breaths/min",
    "VSBLFL": "",
    "VISITNUM": 5,
    "VISIT": "WEEK 8",
    "VISITDY": 57,
    "VSDTC": "2013-10-20",
    "VSDY": 57
  },
  {
    "STUDYID": "CDISCPILOT01",
    "DOMAIN": "VS",
    "USUBJID": "01-701-004",
    "VSSEQ": 36,
    "VSTESTCD": "WEIGHT",
    "VSTEST": "Weight",
    "VSORRES": 76.5,
    "VSORRESU": "kg",
    "VSSTRESN": 76.5,
    "VSSTRESU": "kg",
    "VSBLFL": "",
    "VISITNUM": 6,
    "VISIT": "WEEK 12",
    "VISITDY": 85,
    "VSDTC": "2013-11-16",
    "VSDY": 85
  },
  {
    "STUDYID": "CDISCPILOT01",
    "DOMAIN": "VS",
    "USUBJID": "01-701-004",
    "VSSEQ": 37,
    "VSTESTCD": "HEIGHT",
    "VSTEST": "Height",
    "VSORRES": 176.2,
    "VSORRESU": "cm",
    "VSSTRESN": 176.2,
    "VSSTRESU": "cm",
    "VSBLFL": "",
    "VISITNUM": 6,
    "VISIT": "WEEK 12",
    "VISITDY": 85,
    "VSDTC": "2013-11-16",
    "VSDY": 85
  },
  {
    "STUDYID": "CDISCPILOT01",
    "DOMAIN": "VS",
    "USUBJID": "01-701-004",
    "VSSEQ": 38,
    "VSTESTCD": "TEMP",
    "VSTEST": "Temperature",
    "VSORRES": 36.3,
    "VSORRESU": "C",
    "VSSTRESN": 36.3,
    "VSSTRESU": "C",
    "VSBLFL": "",
    "VISITNUM": 6,
    "VISIT": "WEEK 12",
    "VISITDY": 85,
    "VSDTC": "2013-11-17",
    "VSDY": 85
  },
  {
    "STUDYID": "CDISCPILOT01",
    "DOMAIN": "VS",
    "USUBJID": "01-701-004",
    "VSSEQ": 39,
    "VSTESTCD": "SYSBP",
    "VSTEST": "Systolic Blood Pressure",
    "VSORRES": 160.4,
    "VSORRESU": "mmHg",
    "VSSTRESN": 160.4,
    "VSSTRESU": "mmHg",
    "VSBLFL": "",
    "VISITNUM": 6,
    "VISIT": "WEEK 12",
    "VISITDY": 85,
    "VSDTC": "2013-11-17",
    "VSDY": 85
  },
  {
    "STUDYID": "CDISCPILOT01",
    "DOMAIN": "VS",
    "USUBJID": "01-701-004",
    "VSSEQ": 40,
    "VSTESTCD": "DIABP",
    "VSTEST": "Diastolic Blood Pressure",
    "VSORRES": 97.3,
    "VSORRESU": "mmHg",
    "VSSTRESN": 97.3,
    "VSSTRESU": "mmHg",
    "VSBLFL": "",
    "VISITNUM": 6,
    "VISIT": "WEEK 12",
    "VISITDY": 85,
    "VSDTC": "2013-11-18",
    "VSDY": 85
  },
  {
    "STUDYID": "CDISCPILOT01",
    "DOMAIN": "VS",
    "USUBJID": "01-701-004",
    "VSSEQ": 41,
    "VSTESTCD": "PULSE",
    "VSTEST": "Pulse Rate",
    "VSORRES": 67.6,
    "VSORRESU": "beats/min",
    "VSSTRESN": 67.6,
    "VSSTRESU": "beats/min",
    "VSBLFL": "",
    "VISITNUM": 6,
    "VISIT": "WEEK 12",
    "VISITDY": 85,
    "VSDTC": "2013-11-16",
    "VSDY": 85
  },
  {
    "STUDYID": "CDISCPILOT01",
    "DOMAIN": "VS",
    "USUBJID": "01-701-004",
    "VSSEQ": 42,
    "VSTESTCD": "RESP",
    "VSTEST": "Respiratory Rate",
    "VSORRES": 16.8,
    "VSORRESU": "breaths/min",
    "VSSTRESN": 16.8,
    "VSSTRESU": "breaths/min",
    "VSBLFL": "",
    "VISITNUM": 6,
    "VISIT": "WEEK 12",
    "VISITDY": 85,
    "VSDTC": "2013-11-18",
    "VSDY": 85
  },
  {
    "STUDYID": "CDISCPILOT01",
    "DOMAIN": "VS",
    "USUBJID": "01-701-005",
    "VSSEQ": 1,
    "VSTESTCD": "WEIGHT",
    "VSTEST": "Weight",
    "VSORRES": 70.6,
    "VSORRESU": "kg",
    "VSSTRESN": 70.6,
    "VSSTRESU": "kg",
    "VSBLFL": "Y",
    "VISITNUM": 1,
    "VISIT": "SCREENING",
    "VISITDY": -7,
    "VSDTC": "2013-01-30",
    "VSDY": -7
  },
  {
    "STUDYID": "CDISCPILOT01",
    "DOMAIN": "VS",
    "USUBJID": "01-701-005",
    "VSSEQ": 2,
    "VSTESTCD": "HEIGHT",
    "VSTEST": "Height",
    "VSORRES": 175.5,
    "VSORRESU": "cm",
    "VSSTRESN": 175.5,
    "VSSTRESU": "cm",
    "VSBLFL": "Y",
    "VISITNUM": 1,
    "VISIT": "SCREENING",
    "VISITDY": -7,
    "VSDTC": "2013-01-30",
    "VSDY": -7
  },
  {
    "STUDYID": "CDISCPILOT01",
    "DOMAIN": "VS",
    "USUBJID": "01-701-005",
    "VSSEQ": 3,
    "VSTESTCD": "TEMP",
    "VSTEST": "Temperature",
    "VSORRES": 36.9,
    "VSORRESU": "C",
    "VSSTRESN": 36.9,
    "VSSTRESU": "C",
    "VSBLFL": "Y",
    "VISITNUM": 1,
    "VISIT": "SCREENING",
    "VISITDY": -7,
    "VSDTC": "2013-01-31",
    "VSDY": -7
  },
  {
    "STUDYID": "CDISCPILOT01",
    "DOMAIN": "VS",
    "USUBJID": "01-701-005",
    "VSSEQ": 4,
    "VSTESTCD": "SYSBP",
    "VSTEST": "Systolic Blood Pressure",
    "VSORRES": 107.5,
    "VSORRESU": "mmHg",
    "VSSTRESN": 107.5,
    "VSSTRESU": "mmHg",
    "VSBLFL": "Y",
    "VISITNUM": 1,
    "VISIT": "SCREENING",
    "VISITDY": -7,
    "VSDTC": "2013-01-30",
    "VSDY": -7
  },
  {
    "STUDYID": "CDISCPILOT01",
    "DOMAIN": "VS",
    "USUBJID": "01-701-005",
    "VSSEQ": 5,
    "VSTESTCD": "DIABP",
    "VSTEST": "Diastolic Blood Pressure",
    "VSORRES": 77.4,
    "VSORRESU": "mmHg",
    "VSSTRESN": 77.4,
    "VSSTRESU": "mmHg",
    "VSBLFL": "Y",
    "VISITNUM": 1,
    "VISIT": "SCREENING",
    "VISITDY": -7,
    "VSDTC": "2013-01-31",
    "VSDY": -7
  },
  {
    "STUDYID": "CDISCPILOT01",
    "DOMAIN": "VS",
    "USUBJID": "01-701-005",
    "VSSEQ": 6,
    "VSTESTCD": "PULSE",
    "VSTEST": "Pulse Rate",
    "VSORRES": 64.4,
    "VSORRESU": "beats/min",
    "VSSTRESN": 64.4,
    "VSSTRESU": "beats/min",
    "VSBLFL": "Y",
    "VISITNUM": 1,
    "VISIT": "SCREENING",
    "VISITDY": -7,
    "VSDTC": "2013-01-31",
    "VSDY": -7
  },
  {
    "STUDYID": "CDISCPILOT01",
    "DOMAIN": "VS",
    "USUBJID": "01-701-005",
    "VSSEQ": 7,
    "VSTESTCD": "RESP",
    "VSTEST": "Respiratory Rate",
    "VSORRES": 17.7,
    "VSORRESU": "breaths/min",
    "VSSTRESN": 17.7,
    "VSSTRESU": "breaths/min",
    "VSBLFL": "Y",
    "VISITNUM": 1,
    "VISIT": "SCREENING",
    "VISITDY": -7,
    "VSDTC": "2013-01-30",
    "VSDY": -7
  },
  {
    "STUDYID": "CDISCPILOT01",
    "DOMAIN": "VS",
    "USUBJID": "01-701-005",
    "VSSEQ": 8,
    "VSTESTCD": "WEIGHT",
    "VSTEST": "Weight",
    "VSORRES": 71,
    "VSORRESU": "kg",
    "VSSTRESN": 71,
    "VSSTRESU": "kg",
    "VSBLFL": "",
    "VISITNUM": 2,
    "VISIT": "BASELINE",
    "VISITDY": 1,
    "VSDTC": "2013-02-07",
    "VSDY": 1
  },
  {
    "STUDYID": "CDISCPILOT01",
    "DOMAIN": "VS",
    "USUBJID": "01-701-005",
    "VSSEQ": 9,
    "VSTESTCD": "HEIGHT",
    "VSTEST": "Height",
    "VSORRES": 175.5,
    "VSORRESU": "cm",
    "VSSTRESN": 175.5,
    "VSSTRESU": "cm",
    "VSBLFL": "",
    "VISITNUM": 2,
    "VISIT": "BASELINE",
    "VISITDY": 1,
    "VSDTC": "2013-02-07",
    "VSDY": 1
  },
  {
    "STUDYID": "CDISCPILOT01",
    "DOMAIN": "VS",
    "USUBJID": "01-701-005",
    "VSSEQ": 10,
    "VSTESTCD": "TEMP",
    "VSTEST": "Temperature",
    "VSORRES": 37.1,
    "VSORRESU": "C",
    "VSSTRESN": 37.1,
    "VSSTRESU": "C",
    "VSBLFL": "",
    "VISITNUM": 2,
    "VISIT": "BASELINE",
    "VISITDY": 1,
    "VSDTC": "2013-02-08",
    "VSDY": 1
  },
  {
    "STUDYID": "CDISCPILOT01",
    "DOMAIN": "VS",
    "USUBJID": "01-701-005",
    "VSSEQ": 11,
    "VSTESTCD": "SYSBP",
    "VSTEST": "Systolic Blood Pressure",
    "VSORRES": 104.6,
    "VSORRESU": "mmHg",
    "VSSTRESN": 104.6,
    "VSSTRESU": "mmHg",
    "VSBLFL": "",
    "VISITNUM": 2,
    "VISIT": "BASELINE",
    "VISITDY": 1,
    "VSDTC": "2013-02-09",
    "VSDY": 1
  },
  {
    "STUDYID": "CDISCPILOT01",
    "DOMAIN": "VS",
    "USUBJID": "01-701-005",
    "VSSEQ": 12,
    "VSTESTCD": "DIABP",
    "VSTEST": "Diastolic Blood Pressure",
    "VSORRES": 78.2,
    "VSORRESU": "mmHg",
    "VSSTRESN": 78.2,
    "VSSTRESU": "mmHg",
    "VSBLFL": "",
    "VISITNUM": 2,
    "VISIT": "BASELINE",
    "VISITDY": 1,
    "VSDTC": "2013-02-08",
    "VSDY": 1
  },
  {
    "STUDYID": "CDISCPILOT01",
    "DOMAIN": "VS",
    "USUBJID": "01-701-005",
    "VSSEQ": 13,
    "VSTESTCD": "PULSE",
    "VSTEST": "Pulse Rate",
    "VSORRES": 63.6,
    "VSORRESU": "beats/min",
    "VSSTRESN": 63.6,
    "VSSTRESU": "beats/min",
    "VSBLFL": "",
    "VISITNUM": 2,
    "VISIT": "BASELINE",
    "VISITDY": 1,
    "VSDTC": "2013-02-09",
    "VSDY": 1
  },
  {
    "STUDYID": "CDISCPILOT01",
    "DOMAIN": "VS",
    "USUBJID": "01-701-005",
    "VSSEQ": 14,
    "VSTESTCD": "RESP",
    "VSTEST": "Respiratory Rate",
    "VSORRES": 18.4,
    "VSORRESU": "breaths/min",
    "VSSTRESN": 18.4,
    "VSSTRESU": "breaths/min",
    "VSBLFL": "",
    "VISITNUM": 2,
    "VISIT": "BASELINE",
    "VISITDY": 1,
    "VSDTC": "2013-02-07",
    "VSDY": 1
  },
  {
    "STUDYID": "CDISCPILOT01",
    "DOMAIN": "VS",
    "USUBJID": "01-701-005",
    "VSSEQ": 15,
    "VSTESTCD": "WEIGHT",
    "VSTEST": "Weight",
    "VSORRES": 70,
    "VSORRESU": "kg",
    "VSSTRESN": 70,
    "VSSTRESU": "kg",
    "VSBLFL": "",
    "VISITNUM": 3,
    "VISIT": "WEEK 2",
    "VISITDY": 15,
    "VSDTC": "2013-02-21",
    "VSDY": 15
  },
  {
    "STUDYID": "CDISCPILOT01",
    "DOMAIN": "VS",
    "USUBJID": "01-701-005",
    "VSSEQ": 16,
    "VSTESTCD": "HEIGHT",
    "VSTEST": "Height",
    "VSORRES": 175.5,
    "VSORRESU": "cm",
    "VSSTRESN": 175.5,
    "VSSTRESU": "cm",
    "VSBLFL": "",
    "VISITNUM": 3,
    "VISIT": "WEEK 2",
    "VISITDY": 15,
    "VSDTC": "2013-02-23",
    "VSDY": 15
  },
  {
    "STUDYID": "CDISCPILOT01",
    "DOMAIN": "VS",
    "USUBJID": "01-701-005",
    "VSSEQ": 17,
    "VSTESTCD": "TEMP",
    "VSTEST": "Temperature",
    "VSORRES": 36.8,
    "VSORRESU": "C",
    "VSSTRESN": 36.8,
    "VSSTRESU": "C",
    "VSBLFL": "",
    "VISITNUM": 3,
    "VISIT": "WEEK 2",
    "VISITDY": 15,
    "VSDTC": "2013-02-22",
    "VSDY": 15
  },
  {
    "STUDYID": "CDISCPILOT01",
    "DOMAIN": "VS",
    "USUBJID": "01-701-005",
    "VSSEQ": 18,
    "VSTESTCD": "SYSBP",
    "VSTEST": "Systolic Blood Pressure",
    "VSORRES": 110.6,
    "VSORRESU": "mmHg",
    "VSSTRESN": 110.6,
    "VSSTRESU": "mmHg",
    "VSBLFL": "",
    "VISITNUM": 3,
    "VISIT": "WEEK 2",
    "VISITDY": 15,
    "VSDTC": "2013-02-23",
    "VSDY": 15
  },
  {
    "STUDYID": "CDISCPILOT01",
    "DOMAIN": "VS",
    "USUBJID": "01-701-005",
    "VSSEQ": 19,
    "VSTESTCD": "DIABP",
    "VSTEST": "Diastolic Blood Pressure",
    "VSORRES": 76.3,
    "VSORRESU": "mmHg",
    "VSSTRESN": 76.3,
    "VSSTRESU": "mmHg",
    "VSBLFL": "",
    "VISITNUM": 3,
    "VISIT": "WEEK 2",
    "VISITDY": 15,
    "VSDTC": "2013-02-22",
    "VSDY": 15
  },
  {
    "STUDYID": "CDISCPILOT01",
    "DOMAIN": "VS",
    "USUBJID": "01-701-005",
    "VSSEQ": 20,
    "VSTESTCD": "PULSE",
    "VSTEST": "Pulse Rate",
    "VSORRES": 62.4,
    "VSORRESU": "beats/min",
    "VSSTRESN": 62.4,
    "VSSTRESU": "beats/min",
    "VSBLFL": "",
    "VISITNUM": 3,
    "VISIT": "WEEK 2",
    "VISITDY": 15,
    "VSDTC": "2013-02-23",
    "VSDY": 15
  },
  {
    "STUDYID": "CDISCPILOT01",
    "DOMAIN": "VS",
    "USUBJID": "01-701-005",
    "VSSEQ": 21,
    "VSTESTCD": "RESP",
    "VSTEST": "Respiratory Rate",
    "VSORRES": 17.9,
    "VSORRESU": "breaths/min",
    "VSSTRESN": 17.9,
    "VSSTRESU": "breaths/min",
    "VSBLFL": "",
    "VISITNUM": 3,
    "VISIT": "WEEK 2",
    "VISITDY": 15,
    "VSDTC": "2013-02-23",
    "VSDY": 15
  },
  {
    "STUDYID": "CDISCPILOT01",
    "DOMAIN": "VS",
    "USUBJID": "01-701-005",
    "VSSEQ": 22,
    "VSTESTCD": "WEIGHT",
    "VSTEST": "Weight",
    "VSORRES": 70.4,
    "VSORRESU": "kg",
    "VSSTRESN": 70.4,
    "VSSTRESU": "kg",
    "VSBLFL": "",
    "VISITNUM": 4,
    "VISIT": "WEEK 4",
    "VISITDY": 29,
    "VSDTC": "2013-03-08",
    "VSDY": 29
  },
  {
    "STUDYID": "CDISCPILOT01",
    "DOMAIN": "VS",
    "USUBJID": "01-701-005",
    "VSSEQ": 23,
    "VSTESTCD": "HEIGHT",
    "VSTEST": "Height",
    "VSORRES": 175.5,
    "VSORRESU": "cm",
    "VSSTRESN": 175.5,
    "VSSTRESU": "cm",
    "VSBLFL": "",
    "VISITNUM": 4,
    "VISIT": "WEEK 4",
    "VISITDY": 29,
    "VSDTC": "2013-03-07",
    "VSDY": 29
  },
  {
    "STUDYID": "CDISCPILOT01",
    "DOMAIN": "VS",
    "USUBJID": "01-701-005",
    "VSSEQ": 24,
    "VSTESTCD": "TEMP",
    "VSTEST": "Temperature",
    "VSORRES": 36.9,
    "VSORRESU": "C",
    "VSSTRESN": 36.9,
    "VSSTRESU": "C",
    "VSBLFL": "",
    "VISITNUM": 4,
    "VISIT": "WEEK 4",
    "VISITDY": 29,
    "VSDTC": "2013-03-08",
    "VSDY": 29
  },
  {
    "STUDYID": "CDISCPILOT01",
    "DOMAIN": "VS",
    "USUBJID": "01-701-005",
    "VSSEQ": 25,
    "VSTESTCD": "SYSBP",
    "VSTEST": "Systolic Blood Pressure",
    "VSORRES": 105.7,
    "VSORRESU": "mmHg",
    "VSSTRESN": 105.7,
    "VSSTRESU": "mmHg",
    "VSBLFL": "",
    "VISITNUM": 4,
    "VISIT": "WEEK 4",
    "VISITDY": 29,
    "VSDTC": "2013-03-08",
    "VSDY": 29
  },
  {
    "STUDYID": "CDISCPILOT01",
    "DOMAIN": "VS",
    "USUBJID": "01-701-005",
    "VSSEQ": 26,
    "VSTESTCD": "DIABP",
    "VSTEST": "Diastolic Blood Pressure",
    "VSORRES": 79.6,
    "VSORRESU": "mmHg",
    "VSSTRESN": 79.6,
    "VSSTRESU": "mmHg",
    "VSBLFL": "",
    "VISITNUM": 4,
    "VISIT": "WEEK 4",
    "VISITDY": 29,
    "VSDTC": "2013-03-09",
    "VSDY": 29
  },
  {
    "STUDYID": "CDISCPILOT01",
    "DOMAIN": "VS",
    "USUBJID": "01-701-005",
    "VSSEQ": 27,
    "VSTESTCD": "PULSE",
    "VSTEST": "Pulse Rate",
    "VSORRES": 64.1,
    "VSORRESU": "beats/min",
    "VSSTRESN": 64.1,
    "VSSTRESU": "beats/min",
    "VSBLFL": "",
    "VISITNUM": 4,
    "VISIT": "WEEK 4",
    "VISITDY": 29,
    "VSDTC": "2013-03-08",
    "VSDY": 29
  },
  {
    "STUDYID": "CDISCPILOT01",
    "DOMAIN": "VS",
    "USUBJID": "01-701-005",
    "VSSEQ": 28,
    "VSTESTCD": "RESP",
    "VSTEST": "Respiratory Rate",
    "VSORRES": 17.9,
    "VSORRESU": "breaths/min",
    "VSSTRESN": 17.9,
    "VSSTRESU": "breaths/min",
    "VSBLFL": "",
    "VISITNUM": 4,
    "VISIT": "WEEK 4",
    "VISITDY": 29,
    "VSDTC": "2013-03-07",
    "VSDY": 29
  },
  {
    "STUDYID": "CDISCPILOT01",
    "DOMAIN": "VS",
    "USUBJID": "01-701-005",
    "VSSEQ": 29,
    "VSTESTCD": "WEIGHT",
    "VSTEST": "Weight",
    "VSORRES": 70.5,
    "VSORRESU": "kg",
    "VSSTRESN": 70.5,
    "VSSTRESU": "kg",
    "VSBLFL": "",
    "VISITNUM": 5,
    "VISIT": "WEEK 8",
    "VISITDY": 57,
    "VSDTC": "2013-04-06",
    "VSDY": 57
  },
  {
    "STUDYID": "CDISCPILOT01",
    "DOMAIN": "VS",
    "USUBJID": "01-701-005",
    "VSSEQ": 30,
    "VSTESTCD": "HEIGHT",
    "VSTEST": "Height",
    "VSORRES": 175.5,
    "VSORRESU": "cm",
    "VSSTRESN": 175.5,
    "VSSTRESU": "cm",
    "VSBLFL": "",
    "VISITNUM": 5,
    "VISIT": "WEEK 8",
    "VISITDY": 57,
    "VSDTC": "2013-04-06",
    "VSDY": 57
  },
  {
    "STUDYID": "CDISCPILOT01",
    "DOMAIN": "VS",
    "USUBJID": "01-701-005",
    "VSSEQ": 31,
    "VSTESTCD": "TEMP",
    "VSTEST": "Temperature",
    "VSORRES": 36.9,
    "VSORRESU": "C",
    "VSSTRESN": 36.9,
    "VSSTRESU": "C",
    "VSBLFL": "",
    "VISITNUM": 5,
    "VISIT": "WEEK 8",
    "VISITDY": 57,
    "VSDTC": "2013-04-06",
    "VSDY": 57
  },
  {
    "STUDYID": "CDISCPILOT01",
    "DOMAIN": "VS",
    "USUBJID": "01-701-005",
    "VSSEQ": 32,
    "VSTESTCD": "SYSBP",
    "VSTEST": "Systolic Blood Pressure",
    "VSORRES": 108.6,
    "VSORRESU": "mmHg",
    "VSSTRESN": 108.6,
    "VSSTRESU": "mmHg",
    "VSBLFL": "",
    "VISITNUM": 5,
    "VISIT": "WEEK 8",
    "VISITDY": 57,
    "VSDTC": "2013-04-06",
    "VSDY": 57
  },
  {
    "STUDYID": "CDISCPILOT01",
    "DOMAIN": "VS",
    "USUBJID": "01-701-005",
    "VSSEQ": 33,
    "VSTESTCD": "DIABP",
    "VSTEST": "Diastolic Blood Pressure",
    "VSORRES": 78.3,
    "VSORRESU": "mmHg",
    "VSSTRESN": 78.3,
    "VSSTRESU": "mmHg",
    "VSBLFL": "",
    "VISITNUM": 5,
    "VISIT": "WEEK 8",
    "VISITDY": 57,
    "VSDTC": "2013-04-04",
    "VSDY": 57
  },
  {
    "STUDYID": "CDISCPILOT01",
    "DOMAIN": "VS",
    "USUBJID": "01-701-005",
    "VSSEQ": 34,
    "VSTESTCD": "PULSE",
    "VSTEST": "Pulse Rate",
    "VSORRES": 65,
    "VSORRESU": "beats/min",
    "VSSTRESN": 65,
    "VSSTRESU": "beats/min",
    "VSBLFL": "",
    "VISITNUM": 5,
    "VISIT": "WEEK 8",
    "VISITDY": 57,
    "VSDTC": "2013-04-05",
    "VSDY": 57
  },
  {
    "STUDYID": "CDISCPILOT01",
    "DOMAIN": "VS",
    "USUBJID": "01-701-005",
    "VSSEQ": 35,
    "VSTESTCD": "RESP",
    "VSTEST": "Respiratory Rate",
    "VSORRES": 17.3,
    "VSORRESU": "breaths/min",
    "VSSTRESN": 17.3,
    "VSSTRESU": "breaths/min",
    "VSBLFL": "",
    "VISITNUM": 5,
    "VISIT": "WEEK 8",
    "VISITDY": 57,
    "VSDTC": "2013-04-05",
    "VSDY": 57
  },
  {
    "STUDYID": "CDISCPILOT01",
    "DOMAIN": "VS",
    "USUBJID": "01-701-005",
    "VSSEQ": 36,
    "VSTESTCD": "WEIGHT",
    "VSTEST": "Weight",
    "VSORRES": 69.7,
    "VSORRESU": "kg",
    "VSSTRESN": 69.7,
    "VSSTRESU": "kg",
    "VSBLFL": "",
    "VISITNUM": 6,
    "VISIT": "WEEK 12",
    "VISITDY": 85,
    "VSDTC": "2013-05-03",
    "VSDY": 85
  },
  {
    "STUDYID": "CDISCPILOT01",
    "DOMAIN": "VS",
    "USUBJID": "01-701-005",
    "VSSEQ": 37,
    "VSTESTCD": "HEIGHT",
    "VSTEST": "Height",
    "VSORRES": 175.5,
    "VSORRESU": "cm",
    "VSSTRESN": 175.5,
    "VSSTRESU": "cm",
    "VSBLFL": "",
    "VISITNUM": 6,
    "VISIT": "WEEK 12",
    "VISITDY": 85,
    "VSDTC": "2013-05-03",
    "VSDY": 85
  },
  {
    "STUDYID": "CDISCPILOT01",
    "DOMAIN": "VS",
    "USUBJID": "01-701-005",
    "VSSEQ": 38,
    "VSTESTCD": "TEMP",
    "VSTEST": "Temperature",
    "VSORRES": 36.9,
    "VSORRESU": "C",
    "VSSTRESN": 36.9,
    "VSSTRESU": "C",
    "VSBLFL": "",
    "VISITNUM": 6,
    "VISIT": "WEEK 12",
    "VISITDY": 85,
    "VSDTC": "2013-05-02",
    "VSDY": 85
  },
  {
    "STUDYID": "CDISCPILOT01",
    "DOMAIN": "VS",
    "USUBJID": "01-701-005",
    "VSSEQ": 39,
    "VSTESTCD": "SYSBP",
    "VSTEST": "Systolic Blood Pressure",
    "VSORRES": 112.4,
    "VSORRESU": "mmHg",
    "VSSTRESN": 112.4,
    "VSSTRESU": "mmHg",
    "VSBLFL": "",
    "VISITNUM": 6,
    "VISIT": "WEEK 12",
    "VISITDY": 85,
    "VSDTC": "2013-05-02",
    "VSDY": 85
  },
  {
    "STUDYID": "CDISCPILOT01",
    "DOMAIN": "VS",
    "USUBJID": "01-701-005",
    "VSSEQ": 40,
    "VSTESTCD": "DIABP",
    "VSTEST": "Diastolic Blood Pressure",
    "VSORRES": 75.4,
    "VSORRESU": "mmHg",
    "VSSTRESN": 75.4,
    "VSSTRESU": "mmHg",
    "VSBLFL": "",
    "VISITNUM": 6,
    "VISIT": "WEEK 12",
    "VISITDY": 85,
    "VSDTC": "2013-05-03",
    "VSDY": 85
  },
  {
    "STUDYID": "CDISCPILOT01",
    "DOMAIN": "VS",
    "USUBJID": "01-701-005",
    "VSSEQ": 41,
    "VSTESTCD": "PULSE",
    "VSTEST": "Pulse Rate",
    "VSORRES": 63.6,
    "VSORRESU": "beats/min",
    "VSSTRESN": 63.6,
    "VSSTRESU": "beats/min",
    "VSBLFL": "",
    "VISITNUM": 6,
    "VISIT": "WEEK 12",
    "VISITDY": 85,
    "VSDTC": "2013-05-04",
    "VSDY": 85
  },
  {
    "STUDYID": "CDISCPILOT01",
    "DOMAIN": "VS",
    "USUBJID": "01-701-005",
    "VSSEQ": 42,
    "VSTESTCD": "RESP",
    "VSTEST": "Respiratory Rate",
    "VSORRES": 17.8,
    "VSORRESU": "breaths/min",
    "VSSTRESN": 17.8,
    "VSSTRESU": "breaths/min",
    "VSBLFL": "",
    "VISITNUM": 6,
    "VISIT": "WEEK 12",
    "VISITDY": 85,
    "VSDTC": "2013-05-02",
    "VSDY": 85
  },
  {
    "STUDYID": "CDISCPILOT01",
    "DOMAIN": "VS",
    "USUBJID": "01-701-005",
    "VSSEQ": 43,
    "VSTESTCD": "WEIGHT",
    "VSTEST": "Weight",
    "VSORRES": 69.2,
    "VSORRESU": "kg",
    "VSSTRESN": 69.2,
    "VSSTRESU": "kg",
    "VSBLFL": "",
    "VISITNUM": 7,
    "VISIT": "WEEK 16",
    "VISITDY": 113,
    "VSDTC": "2013-05-30",
    "VSDY": 113
  },
  {
    "STUDYID": "CDISCPILOT01",
    "DOMAIN": "VS",
    "USUBJID": "01-701-005",
    "VSSEQ": 44,
    "VSTESTCD": "HEIGHT",
    "VSTEST": "Height",
    "VSORRES": 175.5,
    "VSORRESU": "cm",
    "VSSTRESN": 175.5,
    "VSSTRESU": "cm",
    "VSBLFL": "",
    "VISITNUM": 7,
    "VISIT": "WEEK 16",
    "VISITDY": 113,
    "VSDTC": "2013-06-01",
    "VSDY": 113
  },
  {
    "STUDYID": "CDISCPILOT01",
    "DOMAIN": "VS",
    "USUBJID": "01-701-005",
    "VSSEQ": 45,
    "VSTESTCD": "TEMP",
    "VSTEST": "Temperature",
    "VSORRES": 36.9,
    "VSORRESU": "C",
    "VSSTRESN": 36.9,
    "VSSTRESU": "C",
    "VSBLFL": "",
    "VISITNUM": 7,
    "VISIT": "WEEK 16",
    "VISITDY": 113,
    "VSDTC": "2013-05-31",
    "VSDY": 113
  },
  {
    "STUDYID": "CDISCPILOT01",
    "DOMAIN": "VS",
    "USUBJID": "01-701-005",
    "VSSEQ": 46,
    "VSTESTCD": "SYSBP",
    "VSTEST": "Systolic Blood Pressure",
    "VSORRES": 105.9,
    "VSORRESU": "mmHg",
    "VSSTRESN": 105.9,
    "VSSTRESU": "mmHg",
    "VSBLFL": "",
    "VISITNUM": 7,
    "VISIT": "WEEK 16",
    "VISITDY": 113,
    "VSDTC": "2013-06-01",
    "VSDY": 113
  },
  {
    "STUDYID": "CDISCPILOT01",
    "DOMAIN": "VS",
    "USUBJID": "01-701-005",
    "VSSEQ": 47,
    "VSTESTCD": "DIABP",
    "VSTEST": "Diastolic Blood Pressure",
    "VSORRES": 77.4,
    "VSORRESU": "mmHg",
    "VSSTRESN": 77.4,
    "VSSTRESU": "mmHg",
    "VSBLFL": "",
    "VISITNUM": 7,
    "VISIT": "WEEK 16",
    "VISITDY": 113,
    "VSDTC": "2013-05-30",
    "VSDY": 113
  },
  {
    "STUDYID": "CDISCPILOT01",
    "DOMAIN": "VS",
    "USUBJID": "01-701-005",
    "VSSEQ": 48,
    "VSTESTCD": "PULSE",
    "VSTEST": "Pulse Rate",
    "VSORRES": 67.5,
    "VSORRESU": "beats/min",
    "VSSTRESN": 67.5,
    "VSSTRESU": "beats/min",
    "VSBLFL": "",
    "VISITNUM": 7,
    "VISIT": "WEEK 16",
    "VISITDY": 113,
    "VSDTC": "2013-06-01",
    "VSDY": 113
  },
  {
    "STUDYID": "CDISCPILOT01",
    "DOMAIN": "VS",
    "USUBJID": "01-701-005",
    "VSSEQ": 49,
    "VSTESTCD": "RESP",
    "VSTEST": "Respiratory Rate",
    "VSORRES": 17.7,
    "VSORRESU": "breaths/min",
    "VSSTRESN": 17.7,
    "VSSTRESU": "breaths/min",
    "VSBLFL": "",
    "VISITNUM": 7,
    "VISIT": "WEEK 16",
    "VISITDY": 113,
    "VSDTC": "2013-05-30",
    "VSDY": 113
  },
  {
    "STUDYID": "CDISCPILOT01",
    "DOMAIN": "VS",
    "USUBJID": "01-701-005",
    "VSSEQ": 50,
    "VSTESTCD": "WEIGHT",
    "VSTEST": "Weight",
    "VSORRES": 70.2,
    "VSORRESU": "kg",
    "VSSTRESN": 70.2,
    "VSSTRESU": "kg",
    "VSBLFL": "",
    "VISITNUM": 8,
    "VISIT": "WEEK 20",
    "VISITDY": 141,
    "VSDTC": "2013-06-29",
    "VSDY": 141
  },
  {
    "STUDYID": "CDISCPILOT01",
    "DOMAIN": "VS",
    "USUBJID": "01-701-005",
    "VSSEQ": 51,
    "VSTESTCD": "HEIGHT",
    "VSTEST": "Height",
    "VSORRES": 175.5,
    "VSORRESU": "cm",
    "VSSTRESN": 175.5,
    "VSSTRESU": "cm",
    "VSBLFL": "",
    "VISITNUM": 8,
    "VISIT": "WEEK 20",
    "VISITDY": 141,
    "VSDTC": "2013-06-27",
    "VSDY": 141
  },
  {
    "STUDYID": "CDISCPILOT01",
    "DOMAIN": "VS",
    "USUBJID": "01-701-005",
    "VSSEQ": 52,
    "VSTESTCD": "TEMP",
    "VSTEST": "Temperature",
    "VSORRES": 36.9,
    "VSORRESU": "C",
    "VSSTRESN": 36.9,
    "VSSTRESU": "C",
    "VSBLFL": "",
    "VISITNUM": 8,
    "VISIT": "WEEK 20",
    "VISITDY": 141,
    "VSDTC": "2013-06-29",
    "VSDY": 141
  },
  {
    "STUDYID": "CDISCPILOT01",
    "DOMAIN": "VS",
    "USUBJID": "01-701-005",
    "VSSEQ": 53,
    "VSTESTCD": "SYSBP",
    "VSTEST": "Systolic Blood Pressure",
    "VSORRES": 107.5,
    "VSORRESU": "mmHg",
    "VSSTRESN": 107.5,
    "VSSTRESU": "mmHg",
    "VSBLFL": "",
    "VISITNUM": 8,
    "VISIT": "WEEK 20",
    "VISITDY": 141,
    "VSDTC": "2013-06-28",
    "VSDY": 141
  },
  {
    "STUDYID": "CDISCPILOT01",
    "DOMAIN": "VS",
    "USUBJID": "01-701-005",
    "VSSEQ": 54,
    "VSTESTCD": "DIABP",
    "VSTEST": "Diastolic Blood Pressure",
    "VSORRES": 79.1,
    "VSORRESU": "mmHg",
    "VSSTRESN": 79.1,
    "VSSTRESU": "mmHg",
    "VSBLFL": "",
    "VISITNUM": 8,
    "VISIT": "WEEK 20",
    "VISITDY": 141,
    "VSDTC": "2013-06-29",
    "VSDY": 141
  },
  {
    "STUDYID": "CDISCPILOT01",
    "DOMAIN": "VS",
    "USUBJID": "01-701-005",
    "VSSEQ": 55,
    "VSTESTCD": "PULSE",
    "VSTEST": "Pulse Rate",
    "VSORRES": 64.3,
    "VSORRESU": "beats/min",
    "VSSTRESN": 64.3,
    "VSSTRESU": "beats/min",
    "VSBLFL": "",
    "VISITNUM": 8,
    "VISIT": "WEEK 20",
    "VISITDY": 141,
    "VSDTC": "2013-06-29",
    "VSDY": 141
  },
  {
    "STUDYID": "CDISCPILOT01",
    "DOMAIN": "VS",
    "USUBJID": "01-701-005",
    "VSSEQ": 56,
    "VSTESTCD": "RESP",
    "VSTEST": "Respiratory Rate",
    "VSORRES": 17.9,
    "VSORRESU": "breaths/min",
    "VSSTRESN": 17.9,
    "VSSTRESU": "breaths/min",
    "VSBLFL": "",
    "VISITNUM": 8,
    "VISIT": "WEEK 20",
    "VISITDY": 141,
    "VSDTC": "2013-06-29",
    "VSDY": 141
  },
  {
    "STUDYID": "CDISCPILOT01",
    "DOMAIN": "VS",
    "USUBJID": "01-701-005",
    "VSSEQ": 57,
    "VSTESTCD": "WEIGHT",
    "VSTEST": "Weight",
    "VSORRES": 70.3,
    "VSORRESU": "kg",
    "VSSTRESN": 70.3,
    "VSSTRESU": "kg",
    "VSBLFL": "",
    "VISITNUM": 9,
    "VISIT": "WEEK 24",
    "VISITDY": 169,
    "VSDTC": "2013-07-26",
    "VSDY": 169
  },
  {
    "STUDYID": "CDISCPILOT01",
    "DOMAIN": "VS",
    "USUBJID": "01-701-005",
    "VSSEQ": 58,
    "VSTESTCD": "HEIGHT",
    "VSTEST": "Height",
    "VSORRES": 175.5,
    "VSORRESU": "cm",
    "VSSTRESN": 175.5,
    "VSSTRESU": "cm",
    "VSBLFL": "",
    "VISITNUM": 9,
    "VISIT": "WEEK 24",
    "VISITDY": 169,
    "VSDTC": "2013-07-25",
    "VSDY": 169
  },
  {
    "STUDYID": "CDISCPILOT01",
    "DOMAIN": "VS",
    "USUBJID": "01-701-005",
    "VSSEQ": 59,
    "VSTESTCD": "TEMP",
    "VSTEST": "Temperature",
    "VSORRES": 36.8,
    "VSORRESU": "C",
    "VSSTRESN": 36.8,
    "VSSTRESU": "C",
    "VSBLFL": "",
    "VISITNUM": 9,
    "VISIT": "WEEK 24",
    "VISITDY": 169,
    "VSDTC": "2013-07-26",
    "VSDY": 169
  },
  {
    "STUDYID": "CDISCPILOT01",
    "DOMAIN": "VS",
    "USUBJID": "01-701-005",
    "VSSEQ": 60,
    "VSTESTCD": "SYSBP",
    "VSTEST": "Systolic Blood Pressure",
    "VSORRES": 104.7,
    "VSORRESU": "mmHg",
    "VSSTRESN": 104.7,
    "VSSTRESU": "mmHg",
    "VSBLFL": "",
    "VISITNUM": 9,
    "VISIT": "WEEK 24",
    "VISITDY": 169,
    "VSDTC": "2013-07-26",
    "VSDY": 169
  },
  {
    "STUDYID": "CDISCPILOT01",
    "DOMAIN": "VS",
    "USUBJID": "01-701-005",
    "VSSEQ": 61,
    "VSTESTCD": "DIABP",
    "VSTEST": "Diastolic Blood Pressure",
    "VSORRES": 78.7,
    "VSORRESU": "mmHg",
    "VSSTRESN": 78.7,
    "VSSTRESU": "mmHg",
    "VSBLFL": "",
    "VISITNUM": 9,
    "VISIT": "WEEK 24",
    "VISITDY": 169,
    "VSDTC": "2013-07-27",
    "VSDY": 169
  },
  {
    "STUDYID": "CDISCPILOT01",
    "DOMAIN": "VS",
    "USUBJID": "01-701-005",
    "VSSEQ": 62,
    "VSTESTCD": "PULSE",
    "VSTEST": "Pulse Rate",
    "VSORRES": 66.1,
    "VSORRESU": "beats/min",
    "VSSTRESN": 66.1,
    "VSSTRESU": "beats/min",
    "VSBLFL": "",
    "VISITNUM": 9,
    "VISIT": "WEEK 24",
    "VISITDY": 169,
    "VSDTC": "2013-07-27",
    "VSDY": 169
  },
  {
    "STUDYID": "CDISCPILOT01",
    "DOMAIN": "VS",
    "USUBJID": "01-701-005",
    "VSSEQ": 63,
    "VSTESTCD": "RESP",
    "VSTEST": "Respiratory Rate",
    "VSORRES": 17.7,
    "VSORRESU": "breaths/min",
    "VSSTRESN": 17.7,
    "VSSTRESU": "breaths/min",
    "VSBLFL": "",
    "VISITNUM": 9,
    "VISIT": "WEEK 24",
    "VISITDY": 169,
    "VSDTC": "2013-07-26",
    "VSDY": 169
  },
  {
    "STUDYID": "CDISCPILOT01",
    "DOMAIN": "VS",
    "USUBJID": "01-701-006",
    "VSSEQ": 1,
    "VSTESTCD": "WEIGHT",
    "VSTEST": "Weight",
    "VSORRES": 66.3,
    "VSORRESU": "kg",
    "VSSTRESN": 66.3,
    "VSSTRESU": "kg",
    "VSBLFL": "Y",
    "VISITNUM": 1,
    "VISIT": "SCREENING",
    "VISITDY": -7,
    "VSDTC": "2013-06-20",
    "VSDY": -7
  },
  {
    "STUDYID": "CDISCPILOT01",
    "DOMAIN": "VS",
    "USUBJID": "01-701-006",
    "VSSEQ": 2,
    "VSTESTCD": "HEIGHT",
    "VSTEST": "Height",
    "VSORRES": 160.7,
    "VSORRESU": "cm",
    "VSSTRESN": 160.7,
    "VSSTRESU": "cm",
    "VSBLFL": "Y",
    "VISITNUM": 1,
    "VISIT": "SCREENING",
    "VISITDY": -7,
    "VSDTC": "2013-06-19",
    "VSDY": -7
  },
  {
    "STUDYID": "CDISCPILOT01",
    "DOMAIN": "VS",
    "USUBJID": "01-701-006",
    "VSSEQ": 3,
    "VSTESTCD": "TEMP",
    "VSTEST": "Temperature",
    "VSORRES": 37,
    "VSORRESU": "C",
    "VSSTRESN": 37,
    "VSSTRESU": "C",
    "VSBLFL": "Y",
    "VISITNUM": 1,
    "VISIT": "SCREENING",
    "VISITDY": -7,
    "VSDTC": "2013-06-18",
    "VSDY": -7
  },
  {
    "STUDYID": "CDISCPILOT01",
    "DOMAIN": "VS",
    "USUBJID": "01-701-006",
    "VSSEQ": 4,
    "VSTESTCD": "SYSBP",
    "VSTEST": "Systolic Blood Pressure",
    "VSORRES": 129.7,
    "VSORRESU": "mmHg",
    "VSSTRESN": 129.7,
    "VSSTRESU": "mmHg",
    "VSBLFL": "Y",
    "VISITNUM": 1,
    "VISIT": "SCREENING",
    "VISITDY": -7,
    "VSDTC": "2013-06-20",
    "VSDY": -7
  },
  {
    "STUDYID": "CDISCPILOT01",
    "DOMAIN": "VS",
    "USUBJID": "01-701-006",
    "VSSEQ": 5,
    "VSTESTCD": "DIABP",
    "VSTEST": "Diastolic Blood Pressure",
    "VSORRES": 86.9,
    "VSORRESU": "mmHg",
    "VSSTRESN": 86.9,
    "VSSTRESU": "mmHg",
    "VSBLFL": "Y",
    "VISITNUM": 1,
    "VISIT": "SCREENING",
    "VISITDY": -7,
    "VSDTC": "2013-06-20",
    "VSDY": -7
  },
  {
    "STUDYID": "CDISCPILOT01",
    "DOMAIN": "VS",
    "USUBJID": "01-701-006",
    "VSSEQ": 6,
    "VSTESTCD": "PULSE",
    "VSTEST": "Pulse Rate",
    "VSORRES": 80.6,
    "VSORRESU": "beats/min",
    "VSSTRESN": 80.6,
    "VSSTRESU": "beats/min",
    "VSBLFL": "Y",
    "VISITNUM": 1,
    "VISIT": "SCREENING",
    "VISITDY": -7,
    "VSDTC": "2013-06-20",
    "VSDY": -7
  },
  {
    "STUDYID": "CDISCPILOT01",
    "DOMAIN": "VS",
    "USUBJID": "01-701-006",
    "VSSEQ": 7,
    "VSTESTCD": "RESP",
    "VSTEST": "Respiratory Rate",
    "VSORRES": 16.1,
    "VSORRESU": "breaths/min",
    "VSSTRESN": 16.1,
    "VSSTRESU": "breaths/min",
    "VSBLFL": "Y",
    "VISITNUM": 1,
    "VISIT": "SCREENING",
    "VISITDY": -7,
    "VSDTC": "2013-06-19",
    "VSDY": -7
  },
  {
    "STUDYID": "CDISCPILOT01",
    "DOMAIN": "VS",
    "USUBJID": "01-701-006",
    "VSSEQ": 8,
    "VSTESTCD": "WEIGHT",
    "VSTEST": "Weight",
    "VSORRES": 66.3,
    "VSORRESU": "kg",
    "VSSTRESN": 66.3,
    "VSSTRESU": "kg",
    "VSBLFL": "",
    "VISITNUM": 2,
    "VISIT": "BASELINE",
    "VISITDY": 1,
    "VSDTC": "2013-06-26",
    "VSDY": 1
  },
  {
    "STUDYID": "CDISCPILOT01",
    "DOMAIN": "VS",
    "USUBJID": "01-701-006",
    "VSSEQ": 9,
    "VSTESTCD": "HEIGHT",
    "VSTEST": "Height",
    "VSORRES": 160.7,
    "VSORRESU": "cm",
    "VSSTRESN": 160.7,
    "VSSTRESU": "cm",
    "VSBLFL": "",
    "VISITNUM": 2,
    "VISIT": "BASELINE",
    "VISITDY": 1,
    "VSDTC": "2013-06-26",
    "VSDY": 1
  },
  {
    "STUDYID": "CDISCPILOT01",
    "DOMAIN": "VS",
    "USUBJID": "01-701-006",
    "VSSEQ": 10,
    "VSTESTCD": "TEMP",
    "VSTEST": "Temperature",
    "VSORRES": 37,
    "VSORRESU": "C",
    "VSSTRESN": 37,
    "VSSTRESU": "C",
    "VSBLFL": "",
    "VISITNUM": 2,
    "VISIT": "BASELINE",
    "VISITDY": 1,
    "VSDTC": "2013-06-27",
    "VSDY": 1
  },
  {
    "STUDYID": "CDISCPILOT01",
    "DOMAIN": "VS",
    "USUBJID": "01-701-006",
    "VSSEQ": 11,
    "VSTESTCD": "SYSBP",
    "VSTEST": "Systolic Blood Pressure",
    "VSORRES": 128.2,
    "VSORRESU": "mmHg",
    "VSSTRESN": 128.2,
    "VSSTRESU": "mmHg",
    "VSBLFL": "",
    "VISITNUM": 2,
    "VISIT": "BASELINE",
    "VISITDY": 1,
    "VSDTC": "2013-06-26",
    "VSDY": 1
  },
  {
    "STUDYID": "CDISCPILOT01",
    "DOMAIN": "VS",
    "USUBJID": "01-701-006",
    "VSSEQ": 12,
    "VSTESTCD": "DIABP",
    "VSTEST": "Diastolic Blood Pressure",
    "VSORRES": 89.5,
    "VSORRESU": "mmHg",
    "VSSTRESN": 89.5,
    "VSSTRESU": "mmHg",
    "VSBLFL": "",
    "VISITNUM": 2,
    "VISIT": "BASELINE",
    "VISITDY": 1,
    "VSDTC": "2013-06-27",
    "VSDY": 1
  },
  {
    "STUDYID": "CDISCPILOT01",
    "DOMAIN": "VS",
    "USUBJID": "01-701-006",
    "VSSEQ": 13,
    "VSTESTCD": "PULSE",
    "VSTEST": "Pulse Rate",
    "VSORRES": 79.7,
    "VSORRESU": "beats/min",
    "VSSTRESN": 79.7,
    "VSSTRESU": "beats/min",
    "VSBLFL": "",
    "VISITNUM": 2,
    "VISIT": "BASELINE",
    "VISITDY": 1,
    "VSDTC": "2013-06-27",
    "VSDY": 1
  },
  {
    "STUDYID": "CDISCPILOT01",
    "DOMAIN": "VS",
    "USUBJID": "01-701-006",
    "VSSEQ": 14,
    "VSTESTCD": "RESP",
    "VSTEST": "Respiratory Rate",
    "VSORRES": 17.1,
    "VSORRESU": "breaths/min",
    "VSSTRESN": 17.1,
    "VSSTRESU": "breaths/min",
    "VSBLFL": "",
    "VISITNUM": 2,
    "VISIT": "BASELINE",
    "VISITDY": 1,
    "VSDTC": "2013-06-27",
    "VSDY": 1
  },
  {
    "STUDYID": "CDISCPILOT01",
    "DOMAIN": "VS",
    "USUBJID": "01-701-006",
    "VSSEQ": 15,
    "VSTESTCD": "WEIGHT",
    "VSTEST": "Weight",
    "VSORRES": 66.5,
    "VSORRESU": "kg",
    "VSSTRESN": 66.5,
    "VSSTRESU": "kg",
    "VSBLFL": "",
    "VISITNUM": 3,
    "VISIT": "WEEK 2",
    "VISITDY": 15,
    "VSDTC": "2013-07-12",
    "VSDY": 15
  },
  {
    "STUDYID": "CDISCPILOT01",
    "DOMAIN": "VS",
    "USUBJID": "01-701-006",
    "VSSEQ": 16,
    "VSTESTCD": "HEIGHT",
    "VSTEST": "Height",
    "VSORRES": 160.7,
    "VSORRESU": "cm",
    "VSSTRESN": 160.7,
    "VSSTRESU": "cm",
    "VSBLFL": "",
    "VISITNUM": 3,
    "VISIT": "WEEK 2",
    "VISITDY": 15,
    "VSDTC": "2013-07-11",
    "VSDY": 15
  },
  {
    "STUDYID": "CDISCPILOT01",
    "DOMAIN": "VS",
    "USUBJID": "01-701-006",
    "VSSEQ": 17,
    "VSTESTCD": "TEMP",
    "VSTEST": "Temperature",
    "VSORRES": 37,
    "VSORRESU": "C",
    "VSSTRESN": 37,
    "VSSTRESU": "C",
    "VSBLFL": "",
    "VISITNUM": 3,
    "VISIT": "WEEK 2",
    "VISITDY": 15,
    "VSDTC": "2013-07-12",
    "VSDY": 15
  },
  {
    "STUDYID": "CDISCPILOT01",
    "DOMAIN": "VS",
    "USUBJID": "01-701-006",
    "VSSEQ": 18,
    "VSTESTCD": "SYSBP",
    "VSTEST": "Systolic Blood Pressure",
    "VSORRES": 130.7,
    "VSORRESU": "mmHg",
    "VSSTRESN": 130.7,
    "VSSTRESU": "mmHg",
    "VSBLFL": "",
    "VISITNUM": 3,
    "VISIT": "WEEK 2",
    "VISITDY": 15,
    "VSDTC": "2013-07-12",
    "VSDY": 15
  },
  {
    "STUDYID": "CDISCPILOT01",
    "DOMAIN": "VS",
    "USUBJID": "01-701-006",
    "VSSEQ": 19,
    "VSTESTCD": "DIABP",
    "VSTEST": "Diastolic Blood Pressure",
    "VSORRES": 86.4,
    "VSORRESU": "mmHg",
    "VSSTRESN": 86.4,
    "VSSTRESU": "mmHg",
    "VSBLFL": "",
    "VISITNUM": 3,
    "VISIT": "WEEK 2",
    "VISITDY": 15,
    "VSDTC": "2013-07-10",
    "VSDY": 15
  },
  {
    "STUDYID": "CDISCPILOT01",
    "DOMAIN": "VS",
    "USUBJID": "01-701-006",
    "VSSEQ": 20,
    "VSTESTCD": "PULSE",
    "VSTEST": "Pulse Rate",
    "VSORRES": 80.1,
    "VSORRESU": "beats/min",
    "VSSTRESN": 80.1,
    "VSSTRESU": "beats/min",
    "VSBLFL": "",
    "VISITNUM": 3,
    "VISIT": "WEEK 2",
    "VISITDY": 15,
    "VSDTC": "2013-07-12",
    "VSDY": 15
  },
  {
    "STUDYID": "CDISCPILOT01",
    "DOMAIN": "VS",
    "USUBJID": "01-701-006",
    "VSSEQ": 21,
    "VSTESTCD": "RESP",
    "VSTEST": "Respiratory Rate",
    "VSORRES": 16.4,
    "VSORRESU": "breaths/min",
    "VSSTRESN": 16.4,
    "VSSTRESU": "breaths/min",
    "VSBLFL": "",
    "VISITNUM": 3,
    "VISIT": "WEEK 2",
    "VISITDY": 15,
    "VSDTC": "2013-07-10",
    "VSDY": 15
  },
  {
    "STUDYID": "CDISCPILOT01",
    "DOMAIN": "VS",
    "USUBJID": "01-701-006",
    "VSSEQ": 22,
    "VSTESTCD": "WEIGHT",
    "VSTEST": "Weight",
    "VSORRES": 66.2,
    "VSORRESU": "kg",
    "VSSTRESN": 66.2,
    "VSSTRESU": "kg",
    "VSBLFL": "",
    "VISITNUM": 4,
    "VISIT": "WEEK 4",
    "VISITDY": 29,
    "VSDTC": "2013-07-25",
    "VSDY": 29
  },
  {
    "STUDYID": "CDISCPILOT01",
    "DOMAIN": "VS",
    "USUBJID": "01-701-006",
    "VSSEQ": 23,
    "VSTESTCD": "HEIGHT",
    "VSTEST": "Height",
    "VSORRES": 160.7,
    "VSORRESU": "cm",
    "VSSTRESN": 160.7,
    "VSSTRESU": "cm",
    "VSBLFL": "",
    "VISITNUM": 4,
    "VISIT": "WEEK 4",
    "VISITDY": 29,
    "VSDTC": "2013-07-25",
    "VSDY": 29
  },
  {
    "STUDYID": "CDISCPILOT01",
    "DOMAIN": "VS",
    "USUBJID": "01-701-006",
    "VSSEQ": 24,
    "VSTESTCD": "TEMP",
    "VSTEST": "Temperature",
    "VSORRES": 37,
    "VSORRESU": "C",
    "VSSTRESN": 37,
    "VSSTRESU": "C",
    "VSBLFL": "",
    "VISITNUM": 4,
    "VISIT": "WEEK 4",
    "VISITDY": 29,
    "VSDTC": "2013-07-24",
    "VSDY": 29
  },
  {
    "STUDYID": "CDISCPILOT01",
    "DOMAIN": "VS",
    "USUBJID": "01-701-006",
    "VSSEQ": 25,
    "VSTESTCD": "SYSBP",
    "VSTEST": "Systolic Blood Pressure",
    "VSORRES": 129,
    "VSORRESU": "mmHg",
    "VSSTRESN": 129,
    "VSSTRESU": "mmHg",
    "VSBLFL": "",
    "VISITNUM": 4,
    "VISIT": "WEEK 4",
    "VISITDY": 29,
    "VSDTC": "2013-07-25",
    "VSDY": 29
  },
  {
    "STUDYID": "CDISCPILOT01",
    "DOMAIN": "VS",
    "USUBJID": "01-701-006",
    "VSSEQ": 26,
    "VSTESTCD": "DIABP",
    "VSTEST": "Diastolic Blood Pressure",
    "VSORRES": 86.2,
    "VSORRESU": "mmHg",
    "VSSTRESN": 86.2,
    "VSSTRESU": "mmHg",
    "VSBLFL": "",
    "VISITNUM": 4,
    "VISIT": "WEEK 4",
    "VISITDY": 29,
    "VSDTC": "2013-07-25",
    "VSDY": 29
  },
  {
    "STUDYID": "CDISCPILOT01",
    "DOMAIN": "VS",
    "USUBJID": "01-701-006",
    "VSSEQ": 27,
    "VSTESTCD": "PULSE",
    "VSTEST": "Pulse Rate",
    "VSORRES": 79.7,
    "VSORRESU": "beats/min",
    "VSSTRESN": 79.7,
    "VSSTRESU": "beats/min",
    "VSBLFL": "",
    "VISITNUM": 4,
    "VISIT": "WEEK 4",
    "VISITDY": 29,
    "VSDTC": "2013-07-24",
    "VSDY": 29
  },
  {
    "STUDYID": "CDISCPILOT01",
    "DOMAIN": "VS",
    "USUBJID": "01-701-006",
    "VSSEQ": 28,
    "VSTESTCD": "RESP",
    "VSTEST": "Respiratory Rate",
    "VSORRES": 16.3,
    "VSORRESU": "breaths/min",
    "VSSTRESN": 16.3,
    "VSSTRESU": "breaths/min",
    "VSBLFL": "",
    "VISITNUM": 4,
    "VISIT": "WEEK 4",
    "VISITDY": 29,
    "VSDTC": "2013-07-25",
    "VSDY": 29
  },
  {
    "STUDYID": "CDISCPILOT01",
    "DOMAIN": "VS",
    "USUBJID": "01-701-006",
    "VSSEQ": 29,
    "VSTESTCD": "WEIGHT",
    "VSTEST": "Weight",
    "VSORRES": 67.2,
    "VSORRESU": "kg",
    "VSSTRESN": 67.2,
    "VSSTRESU": "kg",
    "VSBLFL": "",
    "VISITNUM": 5,
    "VISIT": "WEEK 8",
    "VISITDY": 57,
    "VSDTC": "2013-08-21",
    "VSDY": 57
  },
  {
    "STUDYID": "CDISCPILOT01",
    "DOMAIN": "VS",
    "USUBJID": "01-701-006",
    "VSSEQ": 30,
    "VSTESTCD": "HEIGHT",
    "VSTEST": "Height",
    "VSORRES": 160.7,
    "VSORRESU": "cm",
    "VSSTRESN": 160.7,
    "VSSTRESU": "cm",
    "VSBLFL": "",
    "VISITNUM": 5,
    "VISIT": "WEEK 8",
    "VISITDY": 57,
    "VSDTC": "2013-08-21",
    "VSDY": 57
  },
  {
    "STUDYID": "CDISCPILOT01",
    "DOMAIN": "VS",
    "USUBJID": "01-701-006",
    "VSSEQ": 31,
    "VSTESTCD": "TEMP",
    "VSTEST": "Temperature",
    "VSORRES": 37,
    "VSORRESU": "C",
    "VSSTRESN": 37,
    "VSSTRESU": "C",
    "VSBLFL": "",
    "VISITNUM": 5,
    "VISIT": "WEEK 8",
    "VISITDY": 57,
    "VSDTC": "2013-08-22",
    "VSDY": 57
  },
  {
    "STUDYID": "CDISCPILOT01",
    "DOMAIN": "VS",
    "USUBJID": "01-701-006",
    "VSSEQ": 32,
    "VSTESTCD": "SYSBP",
    "VSTEST": "Systolic Blood Pressure",
    "VSORRES": 126.8,
    "VSORRESU": "mmHg",
    "VSSTRESN": 126.8,
    "VSSTRESU": "mmHg",
    "VSBLFL": "",
    "VISITNUM": 5,
    "VISIT": "WEEK 8",
    "VISITDY": 57,
    "VSDTC": "2013-08-22",
    "VSDY": 57
  },
  {
    "STUDYID": "CDISCPILOT01",
    "DOMAIN": "VS",
    "USUBJID": "01-701-006",
    "VSSEQ": 33,
    "VSTESTCD": "DIABP",
    "VSTEST": "Diastolic Blood Pressure",
    "VSORRES": 87.7,
    "VSORRESU": "mmHg",
    "VSSTRESN": 87.7,
    "VSSTRESU": "mmHg",
    "VSBLFL": "",
    "VISITNUM": 5,
    "VISIT": "WEEK 8",
    "VISITDY": 57,
    "VSDTC": "2013-08-21",
    "VSDY": 57
  },
  {
    "STUDYID": "CDISCPILOT01",
    "DOMAIN": "VS",
    "USUBJID": "01-701-006",
    "VSSEQ": 34,
    "VSTESTCD": "PULSE",
    "VSTEST": "Pulse Rate",
    "VSORRES": 82.3,
    "VSORRESU": "beats/min",
    "VSSTRESN": 82.3,
    "VSSTRESU": "beats/min",
    "VSBLFL": "",
    "VISITNUM": 5,
    "VISIT": "WEEK 8",
    "VISITDY": 57,
    "VSDTC": "2013-08-23",
    "VSDY": 57
  },
  {
    "STUDYID": "CDISCPILOT01",
    "DOMAIN": "VS",
    "USUBJID": "01-701-006",
    "VSSEQ": 35,
    "VSTESTCD": "RESP",
    "VSTEST": "Respiratory Rate",
    "VSORRES": 16.2,
    "VSORRESU": "breaths/min",
    "VSSTRESN": 16.2,
    "VSSTRESU": "breaths/min",
    "VSBLFL": "",
    "VISITNUM": 5,
    "VISIT": "WEEK 8",
    "VISITDY": 57,
    "VSDTC": "2013-08-22",
    "VSDY": 57
  },
  {
    "STUDYID": "CDISCPILOT01",
    "DOMAIN": "VS",
    "USUBJID": "01-701-006",
    "VSSEQ": 36,
    "VSTESTCD": "WEIGHT",
    "VSTEST": "Weight",
    "VSORRES": 66.4,
    "VSORRESU": "kg",
    "VSSTRESN": 66.4,
    "VSSTRESU": "kg",
    "VSBLFL": "",
    "VISITNUM": 6,
    "VISIT": "WEEK 12",
    "VISITDY": 85,
    "VSDTC": "2013-09-20",
    "VSDY": 85
  },
  {
    "STUDYID": "CDISCPILOT01",
    "DOMAIN": "VS",
    "USUBJID": "01-701-006",
    "VSSEQ": 37,
    "VSTESTCD": "HEIGHT",
    "VSTEST": "Height",
    "VSORRES": 160.7,
    "VSORRESU": "cm",
    "VSSTRESN": 160.7,
    "VSSTRESU": "cm",
    "VSBLFL": "",
    "VISITNUM": 6,
    "VISIT": "WEEK 12",
    "VISITDY": 85,
    "VSDTC": "2013-09-19",
    "VSDY": 85
  },
  {
    "STUDYID": "CDISCPILOT01",
    "DOMAIN": "VS",
    "USUBJID": "01-701-006",
    "VSSEQ": 38,
    "VSTESTCD": "TEMP",
    "VSTEST": "Temperature",
    "VSORRES": 37,
    "VSORRESU": "C",
    "VSSTRESN": 37,
    "VSSTRESU": "C",
    "VSBLFL": "",
    "VISITNUM": 6,
    "VISIT": "WEEK 12",
    "VISITDY": 85,
    "VSDTC": "2013-09-19",
    "VSDY": 85
  },
  {
    "STUDYID": "CDISCPILOT01",
    "DOMAIN": "VS",
    "USUBJID": "01-701-006",
    "VSSEQ": 39,
    "VSTESTCD": "SYSBP",
    "VSTEST": "Systolic Blood Pressure",
    "VSORRES": 129.2,
    "VSORRESU": "mmHg",
    "VSSTRESN": 129.2,
    "VSSTRESU": "mmHg",
    "VSBLFL": "",
    "VISITNUM": 6,
    "VISIT": "WEEK 12",
    "VISITDY": 85,
    "VSDTC": "2013-09-19",
    "VSDY": 85
  },
  {
    "STUDYID": "CDISCPILOT01",
    "DOMAIN": "VS",
    "USUBJID": "01-701-006",
    "VSSEQ": 40,
    "VSTESTCD": "DIABP",
    "VSTEST": "Diastolic Blood Pressure",
    "VSORRES": 85.4,
    "VSORRESU": "mmHg",
    "VSSTRESN": 85.4,
    "VSSTRESU": "mmHg",
    "VSBLFL": "",
    "VISITNUM": 6,
    "VISIT": "WEEK 12",
    "VISITDY": 85,
    "VSDTC": "2013-09-20",
    "VSDY": 85
  },
  {
    "STUDYID": "CDISCPILOT01",
    "DOMAIN": "VS",
    "USUBJID": "01-701-006",
    "VSSEQ": 41,
    "VSTESTCD": "PULSE",
    "VSTEST": "Pulse Rate",
    "VSORRES": 83.3,
    "VSORRESU": "beats/min",
    "VSSTRESN": 83.3,
    "VSSTRESU": "beats/min",
    "VSBLFL": "",
    "VISITNUM": 6,
    "VISIT": "WEEK 12",
    "VISITDY": 85,
    "VSDTC": "2013-09-20",
    "VSDY": 85
  },
  {
    "STUDYID": "CDISCPILOT01",
    "DOMAIN": "VS",
    "USUBJID": "01-701-006",
    "VSSEQ": 42,
    "VSTESTCD": "RESP",
    "VSTEST": "Respiratory Rate",
    "VSORRES": 15.6,
    "VSORRESU": "breaths/min",
    "VSSTRESN": 15.6,
    "VSSTRESU": "breaths/min",
    "VSBLFL": "",
    "VISITNUM": 6,
    "VISIT": "WEEK 12",
    "VISITDY": 85,
    "VSDTC": "2013-09-18",
    "VSDY": 85
  },
  {
    "STUDYID": "CDISCPILOT01",
    "DOMAIN": "VS",
    "USUBJID": "01-701-006",
    "VSSEQ": 43,
    "VSTESTCD": "WEIGHT",
    "VSTEST": "Weight",
    "VSORRES": 66.7,
    "VSORRESU": "kg",
    "VSSTRESN": 66.7,
    "VSSTRESU": "kg",
    "VSBLFL": "",
    "VISITNUM": 7,
    "VISIT": "WEEK 16",
    "VISITDY": 113,
    "VSDTC": "2013-10-17",
    "VSDY": 113
  },
  {
    "STUDYID": "CDISCPILOT01",
    "DOMAIN": "VS",
    "USUBJID": "01-701-006",
    "VSSEQ": 44,
    "VSTESTCD": "HEIGHT",
    "VSTEST": "Height",
    "VSORRES": 160.7,
    "VSORRESU": "cm",
    "VSSTRESN": 160.7,
    "VSSTRESU": "cm",
    "VSBLFL": "",
    "VISITNUM": 7,
    "VISIT": "WEEK 16",
    "VISITDY": 113,
    "VSDTC": "2013-10-17",
    "VSDY": 113
  },
  {
    "STUDYID": "CDISCPILOT01",
    "DOMAIN": "VS",
    "USUBJID": "01-701-006",
    "VSSEQ": 45,
    "VSTESTCD": "TEMP",
    "VSTEST": "Temperature",
    "VSORRES": 37.1,
    "VSORRESU": "C",
    "VSSTRESN": 37.1,
    "VSSTRESU": "C",
    "VSBLFL": "",
    "VISITNUM": 7,
    "VISIT": "WEEK 16",
    "VISITDY": 113,
    "VSDTC": "2013-10-18",
    "VSDY": 113
  },
  {
    "STUDYID": "CDISCPILOT01",
    "DOMAIN": "VS",
    "USUBJID": "01-701-006",
    "VSSEQ": 46,
    "VSTESTCD": "SYSBP",
    "VSTEST": "Systolic Blood Pressure",
    "VSORRES": 132.4,
    "VSORRESU": "mmHg",
    "VSSTRESN": 132.4,
    "VSSTRESU": "mmHg",
    "VSBLFL": "",
    "VISITNUM": 7,
    "VISIT": "WEEK 16",
    "VISITDY": 113,
    "VSDTC": "2013-10-18",
    "VSDY": 113
  },
  {
    "STUDYID": "CDISCPILOT01",
    "DOMAIN": "VS",
    "USUBJID": "01-701-006",
    "VSSEQ": 47,
    "VSTESTCD": "DIABP",
    "VSTEST": "Diastolic Blood Pressure",
    "VSORRES": 88.5,
    "VSORRESU": "mmHg",
    "VSSTRESN": 88.5,
    "VSSTRESU": "mmHg",
    "VSBLFL": "",
    "VISITNUM": 7,
    "VISIT": "WEEK 16",
    "VISITDY": 113,
    "VSDTC": "2013-10-16",
    "VSDY": 113
  },
  {
    "STUDYID": "CDISCPILOT01",
    "DOMAIN": "VS",
    "USUBJID": "01-701-006",
    "VSSEQ": 48,
    "VSTESTCD": "PULSE",
    "VSTEST": "Pulse Rate",
    "VSORRES": 80.9,
    "VSORRESU": "beats/min",
    "VSSTRESN": 80.9,
    "VSSTRESU": "beats/min",
    "VSBLFL": "",
    "VISITNUM": 7,
    "VISIT": "WEEK 16",
    "VISITDY": 113,
    "VSDTC": "2013-10-18",
    "VSDY": 113
  },
  {
    "STUDYID": "CDISCPILOT01",
    "DOMAIN": "VS",
    "USUBJID": "01-701-006",
    "VSSEQ": 49,
    "VSTESTCD": "RESP",
    "VSTEST": "Respiratory Rate",
    "VSORRES": 16.2,
    "VSORRESU": "breaths/min",
    "VSSTRESN": 16.2,
    "VSSTRESU": "breaths/min",
    "VSBLFL": "",
    "VISITNUM": 7,
    "VISIT": "WEEK 16",
    "VISITDY": 113,
    "VSDTC": "2013-10-17",
    "VSDY": 113
  },
  {
    "STUDYID": "CDISCPILOT01",
    "DOMAIN": "VS",
    "USUBJID": "01-701-006",
    "VSSEQ": 50,
    "VSTESTCD": "WEIGHT",
    "VSTEST": "Weight",
    "VSORRES": 67,
    "VSORRESU": "kg",
    "VSSTRESN": 67,
    "VSSTRESU": "kg",
    "VSBLFL": "",
    "VISITNUM": 8,
    "VISIT": "WEEK 20",
    "VISITDY": 141,
    "VSDTC": "2013-11-14",
    "VSDY": 141
  },
  {
    "STUDYID": "CDISCPILOT01",
    "DOMAIN": "VS",
    "USUBJID": "01-701-006",
    "VSSEQ": 51,
    "VSTESTCD": "HEIGHT",
    "VSTEST": "Height",
    "VSORRES": 160.7,
    "VSORRESU": "cm",
    "VSSTRESN": 160.7,
    "VSSTRESU": "cm",
    "VSBLFL": "",
    "VISITNUM": 8,
    "VISIT": "WEEK 20",
    "VISITDY": 141,
    "VSDTC": "2013-11-13",
    "VSDY": 141
  },
  {
    "STUDYID": "CDISCPILOT01",
    "DOMAIN": "VS",
    "USUBJID": "01-701-006",
    "VSSEQ": 52,
    "VSTESTCD": "TEMP",
    "VSTEST": "Temperature",
    "VSORRES": 37.1,
    "VSORRESU": "C",
    "VSSTRESN": 37.1,
    "VSSTRESU": "C",
    "VSBLFL": "",
    "VISITNUM": 8,
    "VISIT": "WEEK 20",
    "VISITDY": 141,
    "VSDTC": "2013-11-15",
    "VSDY": 141
  },
  {
    "STUDYID": "CDISCPILOT01",
    "DOMAIN": "VS",
    "USUBJID": "01-701-006",
    "VSSEQ": 53,
    "VSTESTCD": "SYSBP",
    "VSTEST": "Systolic Blood Pressure",
    "VSORRES": 129.9,
    "VSORRESU": "mmHg",
    "VSSTRESN": 129.9,
    "VSSTRESU": "mmHg",
    "VSBLFL": "",
    "VISITNUM": 8,
    "VISIT": "WEEK 20",
    "VISITDY": 141,
    "VSDTC": "2013-11-13",
    "VSDY": 141
  },
  {
    "STUDYID": "CDISCPILOT01",
    "DOMAIN": "VS",
    "USUBJID": "01-701-006",
    "VSSEQ": 54,
    "VSTESTCD": "DIABP",
    "VSTEST": "Diastolic Blood Pressure",
    "VSORRES": 89,
    "VSORRESU": "mmHg",
    "VSSTRESN": 89,
    "VSSTRESU": "mmHg",
    "VSBLFL": "",
    "VISITNUM": 8,
    "VISIT": "WEEK 20",
    "VISITDY": 141,
    "VSDTC": "2013-11-15",
    "VSDY": 141
  },
  {
    "STUDYID": "CDISCPILOT01",
    "DOMAIN": "VS",
    "USUBJID": "01-701-006",
    "VSSEQ": 55,
    "VSTESTCD": "PULSE",
    "VSTEST": "Pulse Rate",
    "VSORRES": 79.8,
    "VSORRESU": "beats/min",
    "VSSTRESN": 79.8,
    "VSSTRESU": "beats/min",
    "VSBLFL": "",
    "VISITNUM": 8,
    "VISIT": "WEEK 20",
    "VISITDY": 141,
    "VSDTC": "2013-11-14",
    "VSDY": 141
  },
  {
    "STUDYID": "CDISCPILOT01",
    "DOMAIN": "VS",
    "USUBJID": "01-701-006",
    "VSSEQ": 56,
    "VSTESTCD": "RESP",
    "VSTEST": "Respiratory Rate",
    "VSORRES": 15.9,
    "VSORRESU": "breaths/min",
    "VSSTRESN": 15.9,
    "VSSTRESU": "breaths/min",
    "VSBLFL": "",
    "VISITNUM": 8,
    "VISIT": "WEEK 20",
    "VISITDY": 141,
    "VSDTC": "2013-11-14",
    "VSDY": 141
  },
  {
    "STUDYID": "CDISCPILOT01",
    "DOMAIN": "VS",
    "USUBJID": "01-701-006",
    "VSSEQ": 57,
    "VSTESTCD": "WEIGHT",
    "VSTEST": "Weight",
    "VSORRES": 65.7,
    "VSORRESU": "kg",
    "VSSTRESN": 65.7,
    "VSSTRESU": "kg",
    "VSBLFL": "",
    "VISITNUM": 9,
    "VISIT": "WEEK 24",
    "VISITDY": 169,
    "VSDTC": "2013-12-13",
    "VSDY": 169
  },
  {
    "STUDYID": "CDISCPILOT01",
    "DOMAIN": "VS",
    "USUBJID": "01-701-006",
    "VSSEQ": 58,
    "VSTESTCD": "HEIGHT",
    "VSTEST": "Height",
    "VSORRES": 160.7,
    "VSORRESU": "cm",
    "VSSTRESN": 160.7,
    "VSSTRESU": "cm",
    "VSBLFL": "",
    "VISITNUM": 9,
    "VISIT": "WEEK 24",
    "VISITDY": 169,
    "VSDTC": "2013-12-13",
    "VSDY": 169
  },
  {
    "STUDYID": "CDISCPILOT01",
    "DOMAIN": "VS",
    "USUBJID": "01-701-006",
    "VSSEQ": 59,
    "VSTESTCD": "TEMP",
    "VSTEST": "Temperature",
    "VSORRES": 37,
    "VSORRESU": "C",
    "VSSTRESN": 37,
    "VSSTRESU": "C",
    "VSBLFL": "",
    "VISITNUM": 9,
    "VISIT": "WEEK 24",
    "VISITDY": 169,
    "VSDTC": "2013-12-13",
    "VSDY": 169
  },
  {
    "STUDYID": "CDISCPILOT01",
    "DOMAIN": "VS",
    "USUBJID": "01-701-006",
    "VSSEQ": 60,
    "VSTESTCD": "SYSBP",
    "VSTEST": "Systolic Blood Pressure",
    "VSORRES": 127,
    "VSORRESU": "mmHg",
    "VSSTRESN": 127,
    "VSSTRESU": "mmHg",
    "VSBLFL": "",
    "VISITNUM": 9,
    "VISIT": "WEEK 24",
    "VISITDY": 169,
    "VSDTC": "2013-12-13",
    "VSDY": 169
  },
  {
    "STUDYID": "CDISCPILOT01",
    "DOMAIN": "VS",
    "USUBJID": "01-701-006",
    "VSSEQ": 61,
    "VSTESTCD": "DIABP",
    "VSTEST": "Diastolic Blood Pressure",
    "VSORRES": 86,
    "VSORRESU": "mmHg",
    "VSSTRESN": 86,
    "VSSTRESU": "mmHg",
    "VSBLFL": "",
    "VISITNUM": 9,
    "VISIT": "WEEK 24",
    "VISITDY": 169,
    "VSDTC": "2013-12-13",
    "VSDY": 169
  },
  {
    "STUDYID": "CDISCPILOT01",
    "DOMAIN": "VS",
    "USUBJID": "01-701-006",
    "VSSEQ": 62,
    "VSTESTCD": "PULSE",
    "VSTEST": "Pulse Rate",
    "VSORRES": 80.6,
    "VSORRESU": "beats/min",
    "VSSTRESN": 80.6,
    "VSSTRESU": "beats/min",
    "VSBLFL": "",
    "VISITNUM": 9,
    "VISIT": "WEEK 24",
    "VISITDY": 169,
    "VSDTC": "2013-12-12",
    "VSDY": 169
  },
  {
    "STUDYID": "CDISCPILOT01",
    "DOMAIN": "VS",
    "USUBJID": "01-701-006",
    "VSSEQ": 63,
    "VSTESTCD": "RESP",
    "VSTEST": "Respiratory Rate",
    "VSORRES": 15.4,
    "VSORRESU": "breaths/min",
    "VSSTRESN": 15.4,
    "VSSTRESU": "breaths/min",
    "VSBLFL": "",
    "VISITNUM": 9,
    "VISIT": "WEEK 24",
    "VISITDY": 169,
    "VSDTC": "2013-12-12",
    "VSDY": 169
  },
  {
    "STUDYID": "CDISCPILOT01",
    "DOMAIN": "VS",
    "USUBJID": "01-701-007",
    "VSSEQ": 1,
    "VSTESTCD": "WEIGHT",
    "VSTEST": "Weight",
    "VSORRES": 47.2,
    "VSORRESU": "kg",
    "VSSTRESN": 47.2,
    "VSSTRESU": "kg",
    "VSBLFL": "Y",
    "VISITNUM": 1,
    "VISIT": "SCREENING",
    "VISITDY": -7,
    "VSDTC": "2013-07-08",
    "VSDY": -7
  },
  {
    "STUDYID": "CDISCPILOT01",
    "DOMAIN": "VS",
    "USUBJID": "01-701-007",
    "VSSEQ": 2,
    "VSTESTCD": "HEIGHT",
    "VSTEST": "Height",
    "VSORRES": 163.2,
    "VSORRESU": "cm",
    "VSSTRESN": 163.2,
    "VSSTRESU": "cm",
    "VSBLFL": "Y",
    "VISITNUM": 1,
    "VISIT": "SCREENING",
    "VISITDY": -7,
    "VSDTC": "2013-07-08",
    "VSDY": -7
  },
  {
    "STUDYID": "CDISCPILOT01",
    "DOMAIN": "VS",
    "USUBJID": "01-701-007",
    "VSSEQ": 3,
    "VSTESTCD": "TEMP",
    "VSTEST": "Temperature",
    "VSORRES": 36.7,
    "VSORRESU": "C",
    "VSSTRESN": 36.7,
    "VSSTRESU": "C",
    "VSBLFL": "Y",
    "VISITNUM": 1,
    "VISIT": "SCREENING",
    "VISITDY": -7,
    "VSDTC": "2013-07-09",
    "VSDY": -7
  },
  {
    "STUDYID": "CDISCPILOT01",
    "DOMAIN": "VS",
    "USUBJID": "01-701-007",
    "VSSEQ": 4,
    "VSTESTCD": "SYSBP",
    "VSTEST": "Systolic Blood Pressure",
    "VSORRES": 116.5,
    "VSORRESU": "mmHg",
    "VSSTRESN": 116.5,
    "VSSTRESU": "mmHg",
    "VSBLFL": "Y",
    "VISITNUM": 1,
    "VISIT": "SCREENING",
    "VISITDY": -7,
    "VSDTC": "2013-07-08",
    "VSDY": -7
  },
  {
    "STUDYID": "CDISCPILOT01",
    "DOMAIN": "VS",
    "USUBJID": "01-701-007",
    "VSSEQ": 5,
    "VSTESTCD": "DIABP",
    "VSTEST": "Diastolic Blood Pressure",
    "VSORRES": 67.9,
    "VSORRESU": "mmHg",
    "VSSTRESN": 67.9,
    "VSSTRESU": "mmHg",
    "VSBLFL": "Y",
    "VISITNUM": 1,
    "VISIT": "SCREENING",
    "VISITDY": -7,
    "VSDTC": "2013-07-09",
    "VSDY": -7
  },
  {
    "STUDYID": "CDISCPILOT01",
    "DOMAIN": "VS",
    "USUBJID": "01-701-007",
    "VSSEQ": 6,
    "VSTESTCD": "PULSE",
    "VSTEST": "Pulse Rate",
    "VSORRES": 70.1,
    "VSORRESU": "beats/min",
    "VSSTRESN": 70.1,
    "VSSTRESU": "beats/min",
    "VSBLFL": "Y",
    "VISITNUM": 1,
    "VISIT": "SCREENING",
    "VISITDY": -7,
    "VSDTC": "2013-07-07",
    "VSDY": -7
  },
  {
    "STUDYID": "CDISCPILOT01",
    "DOMAIN": "VS",
    "USUBJID": "01-701-007",
    "VSSEQ": 7,
    "VSTESTCD": "RESP",
    "VSTEST": "Respiratory Rate",
    "VSORRES": 15.1,
    "VSORRESU": "breaths/min",
    "VSSTRESN": 15.1,
    "VSSTRESU": "breaths/min",
    "VSBLFL": "Y",
    "VISITNUM": 1,
    "VISIT": "SCREENING",
    "VISITDY": -7,
    "VSDTC": "2013-07-08",
    "VSDY": -7
  },
  {
    "STUDYID": "CDISCPILOT01",
    "DOMAIN": "VS",
    "USUBJID": "01-701-007",
    "VSSEQ": 8,
    "VSTESTCD": "WEIGHT",
    "VSTEST": "Weight",
    "VSORRES": 47.3,
    "VSORRESU": "kg",
    "VSSTRESN": 47.3,
    "VSSTRESU": "kg",
    "VSBLFL": "",
    "VISITNUM": 2,
    "VISIT": "BASELINE",
    "VISITDY": 1,
    "VSDTC": "2013-07-15",
    "VSDY": 1
  },
  {
    "STUDYID": "CDISCPILOT01",
    "DOMAIN": "VS",
    "USUBJID": "01-701-007",
    "VSSEQ": 9,
    "VSTESTCD": "HEIGHT",
    "VSTEST": "Height",
    "VSORRES": 163.2,
    "VSORRESU": "cm",
    "VSSTRESN": 163.2,
    "VSSTRESU": "cm",
    "VSBLFL": "",
    "VISITNUM": 2,
    "VISIT": "BASELINE",
    "VISITDY": 1,
    "VSDTC": "2013-07-16",
    "VSDY": 1
  },
  {
    "STUDYID": "CDISCPILOT01",
    "DOMAIN": "VS",
    "USUBJID": "01-701-007",
    "VSSEQ": 10,
    "VSTESTCD": "TEMP",
    "VSTEST": "Temperature",
    "VSORRES": 36.7,
    "VSORRESU": "C",
    "VSSTRESN": 36.7,
    "VSSTRESU": "C",
    "VSBLFL": "",
    "VISITNUM": 2,
    "VISIT": "BASELINE",
    "VISITDY": 1,
    "VSDTC": "2013-07-16",
    "VSDY": 1
  },
  {
    "STUDYID": "CDISCPILOT01",
    "DOMAIN": "VS",
    "USUBJID": "01-701-007",
    "VSSEQ": 11,
    "VSTESTCD": "SYSBP",
    "VSTEST": "Systolic Blood Pressure",
    "VSORRES": 118.9,
    "VSORRESU": "mmHg",
    "VSSTRESN": 118.9,
    "VSSTRESU": "mmHg",
    "VSBLFL": "",
    "VISITNUM": 2,
    "VISIT": "BASELINE",
    "VISITDY": 1,
    "VSDTC": "2013-07-17",
    "VSDY": 1
  },
  {
    "STUDYID": "CDISCPILOT01",
    "DOMAIN": "VS",
    "USUBJID": "01-701-007",
    "VSSEQ": 12,
    "VSTESTCD": "DIABP",
    "VSTEST": "Diastolic Blood Pressure",
    "VSORRES": 68.1,
    "VSORRESU": "mmHg",
    "VSSTRESN": 68.1,
    "VSSTRESU": "mmHg",
    "VSBLFL": "",
    "VISITNUM": 2,
    "VISIT": "BASELINE",
    "VISITDY": 1,
    "VSDTC": "2013-07-15",
    "VSDY": 1
  },
  {
    "STUDYID": "CDISCPILOT01",
    "DOMAIN": "VS",
    "USUBJID": "01-701-007",
    "VSSEQ": 13,
    "VSTESTCD": "PULSE",
    "VSTEST": "Pulse Rate",
    "VSORRES": 70.6,
    "VSORRESU": "beats/min",
    "VSSTRESN": 70.6,
    "VSSTRESU": "beats/min",
    "VSBLFL": "",
    "VISITNUM": 2,
    "VISIT": "BASELINE",
    "VISITDY": 1,
    "VSDTC": "2013-07-17",
    "VSDY": 1
  },
  {
    "STUDYID": "CDISCPILOT01",
    "DOMAIN": "VS",
    "USUBJID": "01-701-007",
    "VSSEQ": 14,
    "VSTESTCD": "RESP",
    "VSTEST": "Respiratory Rate",
    "VSORRES": 15.7,
    "VSORRESU": "breaths/min",
    "VSSTRESN": 15.7,
    "VSSTRESU": "breaths/min",
    "VSBLFL": "",
    "VISITNUM": 2,
    "VISIT": "BASELINE",
    "VISITDY": 1,
    "VSDTC": "2013-07-17",
    "VSDY": 1
  },
  {
    "STUDYID": "CDISCPILOT01",
    "DOMAIN": "VS",
    "USUBJID": "01-701-007",
    "VSSEQ": 15,
    "VSTESTCD": "WEIGHT",
    "VSTEST": "Weight",
    "VSORRES": 46.3,
    "VSORRESU": "kg",
    "VSSTRESN": 46.3,
    "VSSTRESU": "kg",
    "VSBLFL": "",
    "VISITNUM": 3,
    "VISIT": "WEEK 2",
    "VISITDY": 15,
    "VSDTC": "2013-07-30",
    "VSDY": 15
  },
  {
    "STUDYID": "CDISCPILOT01",
    "DOMAIN": "VS",
    "USUBJID": "01-701-007",
    "VSSEQ": 16,
    "VSTESTCD": "HEIGHT",
    "VSTEST": "Height",
    "VSORRES": 163.2,
    "VSORRESU": "cm",
    "VSSTRESN": 163.2,
    "VSSTRESU": "cm",
    "VSBLFL": "",
    "VISITNUM": 3,
    "VISIT": "WEEK 2",
    "VISITDY": 15,
    "VSDTC": "2013-07-29",
    "VSDY": 15
  },
  {
    "STUDYID": "CDISCPILOT01",
    "DOMAIN": "VS",
    "USUBJID": "01-701-007",
    "VSSEQ": 17,
    "VSTESTCD": "TEMP",
    "VSTEST": "Temperature",
    "VSORRES": 36.8,
    "VSORRESU": "C",
    "VSSTRESN": 36.8,
    "VSSTRESU": "C",
    "VSBLFL": "",
    "VISITNUM": 3,
    "VISIT": "WEEK 2",
    "VISITDY": 15,
    "VSDTC": "2013-07-31",
    "VSDY": 15
  },
  {
    "STUDYID": "CDISCPILOT01",
    "DOMAIN": "VS",
    "USUBJID": "01-701-007",
    "VSSEQ": 18,
    "VSTESTCD": "SYSBP",
    "VSTEST": "Systolic Blood Pressure",
    "VSORRES": 115,
    "VSORRESU": "mmHg",
    "VSSTRESN": 115,
    "VSSTRESU": "mmHg",
    "VSBLFL": "",
    "VISITNUM": 3,
    "VISIT": "WEEK 2",
    "VISITDY": 15,
    "VSDTC": "2013-07-29",
    "VSDY": 15
  },
  {
    "STUDYID": "CDISCPILOT01",
    "DOMAIN": "VS",
    "USUBJID": "01-701-007",
    "VSSEQ": 19,
    "VSTESTCD": "DIABP",
    "VSTEST": "Diastolic Blood Pressure",
    "VSORRES": 68,
    "VSORRESU": "mmHg",
    "VSSTRESN": 68,
    "VSSTRESU": "mmHg",
    "VSBLFL": "",
    "VISITNUM": 3,
    "VISIT": "WEEK 2",
    "VISITDY": 15,
    "VSDTC": "2013-07-30",
    "VSDY": 15
  },
  {
    "STUDYID": "CDISCPILOT01",
    "DOMAIN": "VS",
    "USUBJID": "01-701-007",
    "VSSEQ": 20,
    "VSTESTCD": "PULSE",
    "VSTEST": "Pulse Rate",
    "VSORRES": 69.9,
    "VSORRESU": "beats/min",
    "VSSTRESN": 69.9,
    "VSSTRESU": "beats/min",
    "VSBLFL": "",
    "VISITNUM": 3,
    "VISIT": "WEEK 2",
    "VISITDY": 15,
    "VSDTC": "2013-07-31",
    "VSDY": 15
  },
  {
    "STUDYID": "CDISCPILOT01",
    "DOMAIN": "VS",
    "USUBJID": "01-701-007",
    "VSSEQ": 21,
    "VSTESTCD": "RESP",
    "VSTEST": "Respiratory Rate",
    "VSORRES": 15.1,
    "VSORRESU": "breaths/min",
    "VSSTRESN": 15.1,
    "VSSTRESU": "breaths/min",
    "VSBLFL": "",
    "VISITNUM": 3,
    "VISIT": "WEEK 2",
    "VISITDY": 15,
    "VSDTC": "2013-07-29",
    "VSDY": 15
  },
  {
    "STUDYID": "CDISCPILOT01",
    "DOMAIN": "VS",
    "USUBJID": "01-701-007",
    "VSSEQ": 22,
    "VSTESTCD": "WEIGHT",
    "VSTEST": "Weight",
    "VSORRES": 47.6,
    "VSORRESU": "kg",
    "VSSTRESN": 47.6,
    "VSSTRESU": "kg",
    "VSBLFL": "",
    "VISITNUM": 4,
    "VISIT": "WEEK 4",
    "VISITDY": 29,
    "VSDTC": "2013-08-13",
    "VSDY": 29
  },
  {
    "STUDYID": "CDISCPILOT01",
    "DOMAIN": "VS",
    "USUBJID": "01-701-007",
    "VSSEQ": 23,
    "VSTESTCD": "HEIGHT",
    "VSTEST": "Height",
    "VSORRES": 163.2,
    "VSORRESU": "cm",
    "VSSTRESN": 163.2,
    "VSSTRESU": "cm",
    "VSBLFL": "",
    "VISITNUM": 4,
    "VISIT": "WEEK 4",
    "VISITDY": 29,
    "VSDTC": "2013-08-12",
    "VSDY": 29
  },
  {
    "STUDYID": "CDISCPILOT01",
    "DOMAIN": "VS",
    "USUBJID": "01-701-007",
    "VSSEQ": 24,
    "VSTESTCD": "TEMP",
    "VSTEST": "Temperature",
    "VSORRES": 36.8,
    "VSORRESU": "C",
    "VSSTRESN": 36.8,
    "VSSTRESU": "C",
    "VSBLFL": "",
    "VISITNUM": 4,
    "VISIT": "WEEK 4",
    "VISITDY": 29,
    "VSDTC": "2013-08-14",
    "VSDY": 29
  },
  {
    "STUDYID": "CDISCPILOT01",
    "DOMAIN": "VS",
    "USUBJID": "01-701-007",
    "VSSEQ": 25,
    "VSTESTCD": "SYSBP",
    "VSTEST": "Systolic Blood Pressure",
    "VSORRES": 117.8,
    "VSORRESU": "mmHg",
    "VSSTRESN": 117.8,
    "VSSTRESU": "mmHg",
    "VSBLFL": "",
    "VISITNUM": 4,
    "VISIT": "WEEK 4",
    "VISITDY": 29,
    "VSDTC": "2013-08-13",
    "VSDY": 29
  },
  {
    "STUDYID": "CDISCPILOT01",
    "DOMAIN": "VS",
    "USUBJID": "01-701-007",
    "VSSEQ": 26,
    "VSTESTCD": "DIABP",
    "VSTEST": "Diastolic Blood Pressure",
    "VSORRES": 69,
    "VSORRESU": "mmHg",
    "VSSTRESN": 69,
    "VSSTRESU": "mmHg",
    "VSBLFL": "",
    "VISITNUM": 4,
    "VISIT": "WEEK 4",
    "VISITDY": 29,
    "VSDTC": "2013-08-12",
    "VSDY": 29
  },
  {
    "STUDYID": "CDISCPILOT01",
    "DOMAIN": "VS",
    "USUBJID": "01-701-007",
    "VSSEQ": 27,
    "VSTESTCD": "PULSE",
    "VSTEST": "Pulse Rate",
    "VSORRES": 70.1,
    "VSORRESU": "beats/min",
    "VSSTRESN": 70.1,
    "VSSTRESU": "beats/min",
    "VSBLFL": "",
    "VISITNUM": 4,
    "VISIT": "WEEK 4",
    "VISITDY": 29,
    "VSDTC": "2013-08-12",
    "VSDY": 29
  },
  {
    "STUDYID": "CDISCPILOT01",
    "DOMAIN": "VS",
    "USUBJID": "01-701-007",
    "VSSEQ": 28,
    "VSTESTCD": "RESP",
    "VSTEST": "Respiratory Rate",
    "VSORRES": 14.7,
    "VSORRESU": "breaths/min",
    "VSSTRESN": 14.7,
    "VSSTRESU": "breaths/min",
    "VSBLFL": "",
    "VISITNUM": 4,
    "VISIT": "WEEK 4",
    "VISITDY": 29,
    "VSDTC": "2013-08-12",
    "VSDY": 29
  },
  {
    "STUDYID": "CDISCPILOT01",
    "DOMAIN": "VS",
    "USUBJID": "01-701-007",
    "VSSEQ": 29,
    "VSTESTCD": "WEIGHT",
    "VSTEST": "Weight",
    "VSORRES": 47.8,
    "VSORRESU": "kg",
    "VSSTRESN": 47.8,
    "VSSTRESU": "kg",
    "VSBLFL": "",
    "VISITNUM": 5,
    "VISIT": "WEEK 8",
    "VISITDY": 57,
    "VSDTC": "2013-09-11",
    "VSDY": 57
  },
  {
    "STUDYID": "CDISCPILOT01",
    "DOMAIN": "VS",
    "USUBJID": "01-701-007",
    "VSSEQ": 30,
    "VSTESTCD": "HEIGHT",
    "VSTEST": "Height",
    "VSORRES": 163.2,
    "VSORRESU": "cm",
    "VSSTRESN": 163.2,
    "VSSTRESU": "cm",
    "VSBLFL": "",
    "VISITNUM": 5,
    "VISIT": "WEEK 8",
    "VISITDY": 57,
    "VSDTC": "2013-09-11",
    "VSDY": 57
  },
  {
    "STUDYID": "CDISCPILOT01",
    "DOMAIN": "VS",
    "USUBJID": "01-701-007",
    "VSSEQ": 31,
    "VSTESTCD": "TEMP",
    "VSTEST": "Temperature",
    "VSORRES": 36.7,
    "VSORRESU": "C",
    "VSSTRESN": 36.7,
    "VSSTRESU": "C",
    "VSBLFL": "",
    "VISITNUM": 5,
    "VISIT": "WEEK 8",
    "VISITDY": 57,
    "VSDTC": "2013-09-10",
    "VSDY": 57
  },
  {
    "STUDYID": "CDISCPILOT01",
    "DOMAIN": "VS",
    "USUBJID": "01-701-007",
    "VSSEQ": 32,
    "VSTESTCD": "SYSBP",
    "VSTEST": "Systolic Blood Pressure",
    "VSORRES": 120.5,
    "VSORRESU": "mmHg",
    "VSSTRESN": 120.5,
    "VSSTRESU": "mmHg",
    "VSBLFL": "",
    "VISITNUM": 5,
    "VISIT": "WEEK 8",
    "VISITDY": 57,
    "VSDTC": "2013-09-10",
    "VSDY": 57
  },
  {
    "STUDYID": "CDISCPILOT01",
    "DOMAIN": "VS",
    "USUBJID": "01-701-007",
    "VSSEQ": 33,
    "VSTESTCD": "DIABP",
    "VSTEST": "Diastolic Blood Pressure",
    "VSORRES": 69.5,
    "VSORRESU": "mmHg",
    "VSSTRESN": 69.5,
    "VSSTRESU": "mmHg",
    "VSBLFL": "",
    "VISITNUM": 5,
    "VISIT": "WEEK 8",
    "VISITDY": 57,
    "VSDTC": "2013-09-11",
    "VSDY": 57
  },
  {
    "STUDYID": "CDISCPILOT01",
    "DOMAIN": "VS",
    "USUBJID": "01-701-007",
    "VSSEQ": 34,
    "VSTESTCD": "PULSE",
    "VSTEST": "Pulse Rate",
    "VSORRES": 69.1,
    "VSORRESU": "beats/min",
    "VSSTRESN": 69.1,
    "VSSTRESU": "beats/min",
    "VSBLFL": "",
    "VISITNUM": 5,
    "VISIT": "WEEK 8",
    "VISITDY": 57,
    "VSDTC": "2013-09-11",
    "VSDY": 57
  },
  {
    "STUDYID": "CDISCPILOT01",
    "DOMAIN": "VS",
    "USUBJID": "01-701-007",
    "VSSEQ": 35,
    "VSTESTCD": "RESP",
    "VSTEST": "Respiratory Rate",
    "VSORRES": 15.3,
    "VSORRESU": "breaths/min",
    "VSSTRESN": 15.3,
    "VSSTRESU": "breaths/min",
    "VSBLFL": "",
    "VISITNUM": 5,
    "VISIT": "WEEK 8",
    "VISITDY": 57,
    "VSDTC": "2013-09-10",
    "VSDY": 57
  },
  {
    "STUDYID": "CDISCPILOT01",
    "DOMAIN": "VS",
    "USUBJID": "01-701-007",
    "VSSEQ": 36,
    "VSTESTCD": "WEIGHT",
    "VSTEST": "Weight",
    "VSORRES": 47.3,
    "VSORRESU": "kg",
    "VSSTRESN": 47.3,
    "VSSTRESU": "kg",
    "VSBLFL": "",
    "VISITNUM": 6,
    "VISIT": "WEEK 12",
    "VISITDY": 85,
    "VSDTC": "2013-10-08",
    "VSDY": 85
  },
  {
    "STUDYID": "CDISCPILOT01",
    "DOMAIN": "VS",
    "USUBJID": "01-701-007",
    "VSSEQ": 37,
    "VSTESTCD": "HEIGHT",
    "VSTEST": "Height",
    "VSORRES": 163.2,
    "VSORRESU": "cm",
    "VSSTRESN": 163.2,
    "VSSTRESU": "cm",
    "VSBLFL": "",
    "VISITNUM": 6,
    "VISIT": "WEEK 12",
    "VISITDY": 85,
    "VSDTC": "2013-10-09",
    "VSDY": 85
  },
  {
    "STUDYID": "CDISCPILOT01",
    "DOMAIN": "VS",
    "USUBJID": "01-701-007",
    "VSSEQ": 38,
    "VSTESTCD": "TEMP",
    "VSTEST": "Temperature",
    "VSORRES": 36.7,
    "VSORRESU": "C",
    "VSSTRESN": 36.7,
    "VSSTRESU": "C",
    "VSBLFL": "",
    "VISITNUM": 6,
    "VISIT": "WEEK 12",
    "VISITDY": 85,
    "VSDTC": "2013-10-08",
    "VSDY": 85
  },
  {
    "STUDYID": "CDISCPILOT01",
    "DOMAIN": "VS",
    "USUBJID": "01-701-007",
    "VSSEQ": 39,
    "VSTESTCD": "SYSBP",
    "VSTEST": "Systolic Blood Pressure",
    "VSORRES": 116.5,
    "VSORRESU": "mmHg",
    "VSSTRESN": 116.5,
    "VSSTRESU": "mmHg",
    "VSBLFL": "",
    "VISITNUM": 6,
    "VISIT": "WEEK 12",
    "VISITDY": 85,
    "VSDTC": "2013-10-07",
    "VSDY": 85
  },
  {
    "STUDYID": "CDISCPILOT01",
    "DOMAIN": "VS",
    "USUBJID": "01-701-007",
    "VSSEQ": 40,
    "VSTESTCD": "DIABP",
    "VSTEST": "Diastolic Blood Pressure",
    "VSORRES": 67.2,
    "VSORRESU": "mmHg",
    "VSSTRESN": 67.2,
    "VSSTRESU": "mmHg",
    "VSBLFL": "",
    "VISITNUM": 6,
    "VISIT": "WEEK 12",
    "VISITDY": 85,
    "VSDTC": "2013-10-07",
    "VSDY": 85
  },
  {
    "STUDYID": "CDISCPILOT01",
    "DOMAIN": "VS",
    "USUBJID": "01-701-007",
    "VSSEQ": 41,
    "VSTESTCD": "PULSE",
    "VSTEST": "Pulse Rate",
    "VSORRES": 71.2,
    "VSORRESU": "beats/min",
    "VSSTRESN": 71.2,
    "VSSTRESU": "beats/min",
    "VSBLFL": "",
    "VISITNUM": 6,
    "VISIT": "WEEK 12",
    "VISITDY": 85,
    "VSDTC": "2013-10-08",
    "VSDY": 85
  },
  {
    "STUDYID": "CDISCPILOT01",
    "DOMAIN": "VS",
    "USUBJID": "01-701-007",
    "VSSEQ": 42,
    "VSTESTCD": "RESP",
    "VSTEST": "Respiratory Rate",
    "VSORRES": 15.3,
    "VSORRESU": "breaths/min",
    "VSSTRESN": 15.3,
    "VSSTRESU": "breaths/min",
    "VSBLFL": "",
    "VISITNUM": 6,
    "VISIT": "WEEK 12",
    "VISITDY": 85,
    "VSDTC": "2013-10-07",
    "VSDY": 85
  },
  {
    "STUDYID": "CDISCPILOT01",
    "DOMAIN": "VS",
    "USUBJID": "01-701-007",
    "VSSEQ": 43,
    "VSTESTCD": "WEIGHT",
    "VSTEST": "Weight",
    "VSORRES": 46.8,
    "VSORRESU": "kg",
    "VSSTRESN": 46.8,
    "VSSTRESU": "kg",
    "VSBLFL": "",
    "VISITNUM": 7,
    "VISIT": "WEEK 16",
    "VISITDY": 113,
    "VSDTC": "2013-11-06",
    "VSDY": 113
  },
  {
    "STUDYID": "CDISCPILOT01",
    "DOMAIN": "VS",
    "USUBJID": "01-701-007",
    "VSSEQ": 44,
    "VSTESTCD": "HEIGHT",
    "VSTEST": "Height",
    "VSORRES": 163.2,
    "VSORRESU": "cm",
    "VSSTRESN": 163.2,
    "VSSTRESU": "cm",
    "VSBLFL": "",
    "VISITNUM": 7,
    "VISIT": "WEEK 16",
    "VISITDY": 113,
    "VSDTC": "2013-11-04",
    "VSDY": 113
  },
  {
    "STUDYID": "CDISCPILOT01",
    "DOMAIN": "VS",
    "USUBJID": "01-701-007",
    "VSSEQ": 45,
    "VSTESTCD": "TEMP",
    "VSTEST": "Temperature",
    "VSORRES": 36.8,
    "VSORRESU": "C",
    "VSSTRESN": 36.8,
    "VSSTRESU": "C",
    "VSBLFL": "",
    "VISITNUM": 7,
    "VISIT": "WEEK 16",
    "VISITDY": 113,
    "VSDTC": "2013-11-05",
    "VSDY": 113
  },
  {
    "STUDYID": "CDISCPILOT01",
    "DOMAIN": "VS",
    "USUBJID": "01-701-007",
    "VSSEQ": 46,
    "VSTESTCD": "SYSBP",
    "VSTEST": "Systolic Blood Pressure",
    "VSORRES": 118.4,
    "VSORRESU": "mmHg",
    "VSSTRESN": 118.4,
    "VSSTRESU": "mmHg",
    "VSBLFL": "",
    "VISITNUM": 7,
    "VISIT": "WEEK 16",
    "VISITDY": 113,
    "VSDTC": "2013-11-05",
    "VSDY": 113
  },
  {
    "STUDYID": "CDISCPILOT01",
    "DOMAIN": "VS",
    "USUBJID": "01-701-007",
    "VSSEQ": 47,
    "VSTESTCD": "DIABP",
    "VSTEST": "Diastolic Blood Pressure",
    "VSORRES": 66.1,
    "VSORRESU": "mmHg",
    "VSSTRESN": 66.1,
    "VSSTRESU": "mmHg",
    "VSBLFL": "",
    "VISITNUM": 7,
    "VISIT": "WEEK 16",
    "VISITDY": 113,
    "VSDTC": "2013-11-06",
    "VSDY": 113
  },
  {
    "STUDYID": "CDISCPILOT01",
    "DOMAIN": "VS",
    "USUBJID": "01-701-007",
    "VSSEQ": 48,
    "VSTESTCD": "PULSE",
    "VSTEST": "Pulse Rate",
    "VSORRES": 69.7,
    "VSORRESU": "beats/min",
    "VSSTRESN": 69.7,
    "VSSTRESU": "beats/min",
    "VSBLFL": "",
    "VISITNUM": 7,
    "VISIT": "WEEK 16",
    "VISITDY": 113,
    "VSDTC": "2013-11-06",
    "VSDY": 113
  },
  {
    "STUDYID": "CDISCPILOT01",
    "DOMAIN": "VS",
    "USUBJID": "01-701-007",
    "VSSEQ": 49,
    "VSTESTCD": "RESP",
    "VSTEST": "Respiratory Rate",
    "VSORRES": 15.2,
    "VSORRESU": "breaths/min",
    "VSSTRESN": 15.2,
    "VSSTRESU": "breaths/min",
    "VSBLFL": "",
    "VISITNUM": 7,
    "VISIT": "WEEK 16",
    "VISITDY": 113,
    "VSDTC": "2013-11-06",
    "VSDY": 113
  },
  {
    "STUDYID": "CDISCPILOT01",
    "DOMAIN": "VS",
    "USUBJID": "01-701-007",
    "VSSEQ": 50,
    "VSTESTCD": "WEIGHT",
    "VSTEST": "Weight",
    "VSORRES": 46.6,
    "VSORRESU": "kg",
    "VSSTRESN": 46.6,
    "VSSTRESU": "kg",
    "VSBLFL": "",
    "VISITNUM": 8,
    "VISIT": "WEEK 20",
    "VISITDY": 141,
    "VSDTC": "2013-12-03",
    "VSDY": 141
  },
  {
    "STUDYID": "CDISCPILOT01",
    "DOMAIN": "VS",
    "USUBJID": "01-701-007",
    "VSSEQ": 51,
    "VSTESTCD": "HEIGHT",
    "VSTEST": "Height",
    "VSORRES": 163.2,
    "VSORRESU": "cm",
    "VSSTRESN": 163.2,
    "VSSTRESU": "cm",
    "VSBLFL": "",
    "VISITNUM": 8,
    "VISIT": "WEEK 20",
    "VISITDY": 141,
    "VSDTC": "2013-12-04",
    "VSDY": 141
  },
  {
    "STUDYID": "CDISCPILOT01",
    "DOMAIN": "VS",
    "USUBJID": "01-701-007",
    "VSSEQ": 52,
    "VSTESTCD": "TEMP",
    "VSTEST": "Temperature",
    "VSORRES": 36.8,
    "VSORRESU": "C",
    "VSSTRESN": 36.8,
    "VSSTRESU": "C",
    "VSBLFL": "",
    "VISITNUM": 8,
    "VISIT": "WEEK 20",
    "VISITDY": 141,
    "VSDTC": "2013-12-04",
    "VSDY": 141
  },
  {
    "STUDYID": "CDISCPILOT01",
    "DOMAIN": "VS",
    "USUBJID": "01-701-007",
    "VSSEQ": 53,
    "VSTESTCD": "SYSBP",
    "VSTEST": "Systolic Blood Pressure",
    "VSORRES": 115.5,
    "VSORRESU": "mmHg",
    "VSSTRESN": 115.5,
    "VSSTRESU": "mmHg",
    "VSBLFL": "",
    "VISITNUM": 8,
    "VISIT": "WEEK 20",
    "VISITDY": 141,
    "VSDTC": "2013-12-04",
    "VSDY": 141
  },
  {
    "STUDYID": "CDISCPILOT01",
    "DOMAIN": "VS",
    "USUBJID": "01-701-007",
    "VSSEQ": 54,
    "VSTESTCD": "DIABP",
    "VSTEST": "Diastolic Blood Pressure",
    "VSORRES": 67.1,
    "VSORRESU": "mmHg",
    "VSSTRESN": 67.1,
    "VSSTRESU": "mmHg",
    "VSBLFL": "",
    "VISITNUM": 8,
    "VISIT": "WEEK 20",
    "VISITDY": 141,
    "VSDTC": "2013-12-04",
    "VSDY": 141
  },
  {
    "STUDYID": "CDISCPILOT01",
    "DOMAIN": "VS",
    "USUBJID": "01-701-007",
    "VSSEQ": 55,
    "VSTESTCD": "PULSE",
    "VSTEST": "Pulse Rate",
    "VSORRES": 70.2,
    "VSORRESU": "beats/min",
    "VSSTRESN": 70.2,
    "VSSTRESU": "beats/min",
    "VSBLFL": "",
    "VISITNUM": 8,
    "VISIT": "WEEK 20",
    "VISITDY": 141,
    "VSDTC": "2013-12-04",
    "VSDY": 141
  },
  {
    "STUDYID": "CDISCPILOT01",
    "DOMAIN": "VS",
    "USUBJID": "01-701-007",
    "VSSEQ": 56,
    "VSTESTCD": "RESP",
    "VSTEST": "Respiratory Rate",
    "VSORRES": 15,
    "VSORRESU": "breaths/min",
    "VSSTRESN": 15,
    "VSSTRESU": "breaths/min",
    "VSBLFL": "",
    "VISITNUM": 8,
    "VISIT": "WEEK 20",
    "VISITDY": 141,
    "VSDTC": "2013-12-03",
    "VSDY": 141
  },
  {
    "STUDYID": "CDISCPILOT01",
    "DOMAIN": "VS",
    "USUBJID": "01-701-007",
    "VSSEQ": 57,
    "VSTESTCD": "WEIGHT",
    "VSTEST": "Weight",
    "VSORRES": 47.5,
    "VSORRESU": "kg",
    "VSSTRESN": 47.5,
    "VSSTRESU": "kg",
    "VSBLFL": "",
    "VISITNUM": 9,
    "VISIT": "WEEK 24",
    "VISITDY": 169,
    "VSDTC": "2013-12-31",
    "VSDY": 169
  },
  {
    "STUDYID": "CDISCPILOT01",
    "DOMAIN": "VS",
    "USUBJID": "01-701-007",
    "VSSEQ": 58,
    "VSTESTCD": "HEIGHT",
    "VSTEST": "Height",
    "VSORRES": 163.2,
    "VSORRESU": "cm",
    "VSSTRESN": 163.2,
    "VSSTRESU": "cm",
    "VSBLFL": "",
    "VISITNUM": 9,
    "VISIT": "WEEK 24",
    "VISITDY": 169,
    "VSDTC": "2014-01-01",
    "VSDY": 169
  },
  {
    "STUDYID": "CDISCPILOT01",
    "DOMAIN": "VS",
    "USUBJID": "01-701-007",
    "VSSEQ": 59,
    "VSTESTCD": "TEMP",
    "VSTEST": "Temperature",
    "VSORRES": 36.9,
    "VSORRESU": "C",
    "VSSTRESN": 36.9,
    "VSSTRESU": "C",
    "VSBLFL": "",
    "VISITNUM": 9,
    "VISIT": "WEEK 24",
    "VISITDY": 169,
    "VSDTC": "2013-12-31",
    "VSDY": 169
  },
  {
    "STUDYID": "CDISCPILOT01",
    "DOMAIN": "VS",
    "USUBJID": "01-701-007",
    "VSSEQ": 60,
    "VSTESTCD": "SYSBP",
    "VSTEST": "Systolic Blood Pressure",
    "VSORRES": 117.1,
    "VSORRESU": "mmHg",
    "VSSTRESN": 117.1,
    "VSSTRESU": "mmHg",
    "VSBLFL": "",
    "VISITNUM": 9,
    "VISIT": "WEEK 24",
    "VISITDY": 169,
    "VSDTC": "2013-12-31",
    "VSDY": 169
  },
  {
    "STUDYID": "CDISCPILOT01",
    "DOMAIN": "VS",
    "USUBJID": "01-701-007",
    "VSSEQ": 61,
    "VSTESTCD": "DIABP",
    "VSTEST": "Diastolic Blood Pressure",
    "VSORRES": 68.6,
    "VSORRESU": "mmHg",
    "VSSTRESN": 68.6,
    "VSSTRESU": "mmHg",
    "VSBLFL": "",
    "VISITNUM": 9,
    "VISIT": "WEEK 24",
    "VISITDY": 169,
    "VSDTC": "2013-12-30",
    "VSDY": 169
  },
  {
    "STUDYID": "CDISCPILOT01",
    "DOMAIN": "VS",
    "USUBJID": "01-701-007",
    "VSSEQ": 62,
    "VSTESTCD": "PULSE",
    "VSTEST": "Pulse Rate",
    "VSORRES": 71.1,
    "VSORRESU": "beats/min",
    "VSSTRESN": 71.1,
    "VSSTRESU": "beats/min",
    "VSBLFL": "",
    "VISITNUM": 9,
    "VISIT": "WEEK 24",
    "VISITDY": 169,
    "VSDTC": "2013-12-30",
    "VSDY": 169
  },
  {
    "STUDYID": "CDISCPILOT01",
    "DOMAIN": "VS",
    "USUBJID": "01-701-007",
    "VSSEQ": 63,
    "VSTESTCD": "RESP",
    "VSTEST": "Respiratory Rate",
    "VSORRES": 14.8,
    "VSORRESU": "breaths/min",
    "VSSTRESN": 14.8,
    "VSSTRESU": "breaths/min",
    "VSBLFL": "",
    "VISITNUM": 9,
    "VISIT": "WEEK 24",
    "VISITDY": 169,
    "VSDTC": "2014-01-01",
    "VSDY": 169
  },
  {
    "STUDYID": "CDISCPILOT01",
    "DOMAIN": "VS",
    "USUBJID": "01-701-008",
    "VSSEQ": 1,
    "VSTESTCD": "WEIGHT",
    "VSTEST": "Weight",
    "VSORRES": 78.5,
    "VSORRESU": "kg",
    "VSSTRESN": 78.5,
    "VSSTRESU": "kg",
    "VSBLFL": "Y",
    "VISITNUM": 1,
    "VISIT": "SCREENING",
    "VISITDY": -7,
    "VSDTC": "2013-11-15",
    "VSDY": -7
  },
  {
    "STUDYID": "CDISCPILOT01",
    "DOMAIN": "VS",
    "USUBJID": "01-701-008",
    "VSSEQ": 2,
    "VSTESTCD": "HEIGHT",
    "VSTEST": "Height",
    "VSORRES": 168,
    "VSORRESU": "cm",
    "VSSTRESN": 168,
    "VSSTRESU": "cm",
    "VSBLFL": "Y",
    "VISITNUM": 1,
    "VISIT": "SCREENING",
    "VISITDY": -7,
    "VSDTC": "2013-11-15",
    "VSDY": -7
  },
  {
    "STUDYID": "CDISCPILOT01",
    "DOMAIN": "VS",
    "USUBJID": "01-701-008",
    "VSSEQ": 3,
    "VSTESTCD": "TEMP",
    "VSTEST": "Temperature",
    "VSORRES": 36.3,
    "VSORRESU": "C",
    "VSSTRESN": 36.3,
    "VSSTRESU": "C",
    "VSBLFL": "Y",
    "VISITNUM": 1,
    "VISIT": "SCREENING",
    "VISITDY": -7,
    "VSDTC": "2013-11-15",
    "VSDY": -7
  },
  {
    "STUDYID": "CDISCPILOT01",
    "DOMAIN": "VS",
    "USUBJID": "01-701-008",
    "VSSEQ": 4,
    "VSTESTCD": "SYSBP",
    "VSTEST": "Systolic Blood Pressure",
    "VSORRES": 168,
    "VSORRESU": "mmHg",
    "VSSTRESN": 168,
    "VSSTRESU": "mmHg",
    "VSBLFL": "Y",
    "VISITNUM": 1,
    "VISIT": "SCREENING",
    "VISITDY": -7,
    "VSDTC": "2013-11-16",
    "VSDY": -7
  },
  {
    "STUDYID": "CDISCPILOT01",
    "DOMAIN": "VS",
    "USUBJID": "01-701-008",
    "VSSEQ": 5,
    "VSTESTCD": "DIABP",
    "VSTEST": "Diastolic Blood Pressure",
    "VSORRES": 88.5,
    "VSORRESU": "mmHg",
    "VSSTRESN": 88.5,
    "VSSTRESU": "mmHg",
    "VSBLFL": "Y",
    "VISITNUM": 1,
    "VISIT": "SCREENING",
    "VISITDY": -7,
    "VSDTC": "2013-11-16",
    "VSDY": -7
  },
  {
    "STUDYID": "CDISCPILOT01",
    "DOMAIN": "VS",
    "USUBJID": "01-701-008",
    "VSSEQ": 6,
    "VSTESTCD": "PULSE",
    "VSTEST": "Pulse Rate",
    "VSORRES": 98.3,
    "VSORRESU": "beats/min",
    "VSSTRESN": 98.3,
    "VSSTRESU": "beats/min",
    "VSBLFL": "Y",
    "VISITNUM": 1,
    "VISIT": "SCREENING",
    "VISITDY": -7,
    "VSDTC": "2013-11-15",
    "VSDY": -7
  },
  {
    "STUDYID": "CDISCPILOT01",
    "DOMAIN": "VS",
    "USUBJID": "01-701-008",
    "VSSEQ": 7,
    "VSTESTCD": "RESP",
    "VSTEST": "Respiratory Rate",
    "VSORRES": 16.5,
    "VSORRESU": "breaths/min",
    "VSSTRESN": 16.5,
    "VSSTRESU": "breaths/min",
    "VSBLFL": "Y",
    "VISITNUM": 1,
    "VISIT": "SCREENING",
    "VISITDY": -7,
    "VSDTC": "2013-11-16",
    "VSDY": -7
  },
  {
    "STUDYID": "CDISCPILOT01",
    "DOMAIN": "VS",
    "USUBJID": "01-701-008",
    "VSSEQ": 8,
    "VSTESTCD": "WEIGHT",
    "VSTEST": "Weight",
    "VSORRES": 80,
    "VSORRESU": "kg",
    "VSSTRESN": 80,
    "VSSTRESU": "kg",
    "VSBLFL": "",
    "VISITNUM": 2,
    "VISIT": "BASELINE",
    "VISITDY": 1,
    "VSDTC": "2013-11-23",
    "VSDY": 1
  },
  {
    "STUDYID": "CDISCPILOT01",
    "DOMAIN": "VS",
    "USUBJID": "01-701-008",
    "VSSEQ": 9,
    "VSTESTCD": "HEIGHT",
    "VSTEST": "Height",
    "VSORRES": 168,
    "VSORRESU": "cm",
    "VSSTRESN": 168,
    "VSSTRESU": "cm",
    "VSBLFL": "",
    "VISITNUM": 2,
    "VISIT": "BASELINE",
    "VISITDY": 1,
    "VSDTC": "2013-11-24",
    "VSDY": 1
  },
  {
    "STUDYID": "CDISCPILOT01",
    "DOMAIN": "VS",
    "USUBJID": "01-701-008",
    "VSSEQ": 10,
    "VSTESTCD": "TEMP",
    "VSTEST": "Temperature",
    "VSORRES": 36.4,
    "VSORRESU": "C",
    "VSSTRESN": 36.4,
    "VSSTRESU": "C",
    "VSBLFL": "",
    "VISITNUM": 2,
    "VISIT": "BASELINE",
    "VISITDY": 1,
    "VSDTC": "2013-11-25",
    "VSDY": 1
  },
  {
    "STUDYID": "CDISCPILOT01",
    "DOMAIN": "VS",
    "USUBJID": "01-701-008",
    "VSSEQ": 11,
    "VSTESTCD": "SYSBP",
    "VSTEST": "Systolic Blood Pressure",
    "VSORRES": 168,
    "VSORRESU": "mmHg",
    "VSSTRESN": 168,
    "VSSTRESU": "mmHg",
    "VSBLFL": "",
    "VISITNUM": 2,
    "VISIT": "BASELINE",
    "VISITDY": 1,
    "VSDTC": "2013-11-25",
    "VSDY": 1
  },
  {
    "STUDYID": "CDISCPILOT01",
    "DOMAIN": "VS",
    "USUBJID": "01-701-008",
    "VSSEQ": 12,
    "VSTESTCD": "DIABP",
    "VSTEST": "Diastolic Blood Pressure",
    "VSORRES": 88.7,
    "VSORRESU": "mmHg",
    "VSSTRESN": 88.7,
    "VSSTRESU": "mmHg",
    "VSBLFL": "",
    "VISITNUM": 2,
    "VISIT": "BASELINE",
    "VISITDY": 1,
    "VSDTC": "2013-11-23",
    "VSDY": 1
  },
  {
    "STUDYID": "CDISCPILOT01",
    "DOMAIN": "VS",
    "USUBJID": "01-701-008",
    "VSSEQ": 13,
    "VSTESTCD": "PULSE",
    "VSTEST": "Pulse Rate",
    "VSORRES": 100.2,
    "VSORRESU": "beats/min",
    "VSSTRESN": 100.2,
    "VSSTRESU": "beats/min",
    "VSBLFL": "",
    "VISITNUM": 2,
    "VISIT": "BASELINE",
    "VISITDY": 1,
    "VSDTC": "2013-11-25",
    "VSDY": 1
  },
  {
    "STUDYID": "CDISCPILOT01",
    "DOMAIN": "VS",
    "USUBJID": "01-701-008",
    "VSSEQ": 14,
    "VSTESTCD": "RESP",
    "VSTEST": "Respiratory Rate",
    "VSORRES": 16.6,
    "VSORRESU": "breaths/min",
    "VSSTRESN": 16.6,
    "VSSTRESU": "breaths/min",
    "VSBLFL": "",
    "VISITNUM": 2,
    "VISIT": "BASELINE",
    "VISITDY": 1,
    "VSDTC": "2013-11-23",
    "VSDY": 1
  },
  {
    "STUDYID": "CDISCPILOT01",
    "DOMAIN": "VS",
    "USUBJID": "01-701-008",
    "VSSEQ": 15,
    "VSTESTCD": "WEIGHT",
    "VSTEST": "Weight",
    "VSORRES": 78.9,
    "VSORRESU": "kg",
    "VSSTRESN": 78.9,
    "VSSTRESU": "kg",
    "VSBLFL": "",
    "VISITNUM": 3,
    "VISIT": "WEEK 2",
    "VISITDY": 15,
    "VSDTC": "2013-12-08",
    "VSDY": 15
  },
  {
    "STUDYID": "CDISCPILOT01",
    "DOMAIN": "VS",
    "USUBJID": "01-701-008",
    "VSSEQ": 16,
    "VSTESTCD": "HEIGHT",
    "VSTEST": "Height",
    "VSORRES": 168,
    "VSORRESU": "cm",
    "VSSTRESN": 168,
    "VSSTRESU": "cm",
    "VSBLFL": "",
    "VISITNUM": 3,
    "VISIT": "WEEK 2",
    "VISITDY": 15,
    "VSDTC": "2013-12-08",
    "VSDY": 15
  },
  {
    "STUDYID": "CDISCPILOT01",
    "DOMAIN": "VS",
    "USUBJID": "01-701-008",
    "VSSEQ": 17,
    "VSTESTCD": "TEMP",
    "VSTEST": "Temperature",
    "VSORRES": 36.3,
    "VSORRESU": "C",
    "VSSTRESN": 36.3,
    "VSSTRESU": "C",
    "VSBLFL": "",
    "VISITNUM": 3,
    "VISIT": "WEEK 2",
    "VISITDY": 15,
    "VSDTC": "2013-12-07",
    "VSDY": 15
  },
  {
    "STUDYID": "CDISCPILOT01",
    "DOMAIN": "VS",
    "USUBJID": "01-701-008",
    "VSSEQ": 18,
    "VSTESTCD": "SYSBP",
    "VSTEST": "Systolic Blood Pressure",
    "VSORRES": 168,
    "VSORRESU": "mmHg",
    "VSSTRESN": 168,
    "VSSTRESU": "mmHg",
    "VSBLFL": "",
    "VISITNUM": 3,
    "VISIT": "WEEK 2",
    "VISITDY": 15,
    "VSDTC": "2013-12-09",
    "VSDY": 15
  },
  {
    "STUDYID": "CDISCPILOT01",
    "DOMAIN": "VS",
    "USUBJID": "01-701-008",
    "VSSEQ": 19,
    "VSTESTCD": "DIABP",
    "VSTEST": "Diastolic Blood Pressure",
    "VSORRES": 87.7,
    "VSORRESU": "mmHg",
    "VSSTRESN": 87.7,
    "VSSTRESU": "mmHg",
    "VSBLFL": "",
    "VISITNUM": 3,
    "VISIT": "WEEK 2",
    "VISITDY": 15,
    "VSDTC": "2013-12-09",
    "VSDY": 15
  },
  {
    "STUDYID": "CDISCPILOT01",
    "DOMAIN": "VS",
    "USUBJID": "01-701-008",
    "VSSEQ": 20,
    "VSTESTCD": "PULSE",
    "VSTEST": "Pulse Rate",
    "VSORRES": 97.3,
    "VSORRESU": "beats/min",
    "VSSTRESN": 97.3,
    "VSSTRESU": "beats/min",
    "VSBLFL": "",
    "VISITNUM": 3,
    "VISIT": "WEEK 2",
    "VISITDY": 15,
    "VSDTC": "2013-12-07",
    "VSDY": 15
  },
  {
    "STUDYID": "CDISCPILOT01",
    "DOMAIN": "VS",
    "USUBJID": "01-701-008",
    "VSSEQ": 21,
    "VSTESTCD": "RESP",
    "VSTEST": "Respiratory Rate",
    "VSORRES": 16.1,
    "VSORRESU": "breaths/min",
    "VSSTRESN": 16.1,
    "VSSTRESU": "breaths/min",
    "VSBLFL": "",
    "VISITNUM": 3,
    "VISIT": "WEEK 2",
    "VISITDY": 15,
    "VSDTC": "2013-12-09",
    "VSDY": 15
  },
  {
    "STUDYID": "CDISCPILOT01",
    "DOMAIN": "VS",
    "USUBJID": "01-701-008",
    "VSSEQ": 22,
    "VSTESTCD": "WEIGHT",
    "VSTEST": "Weight",
    "VSORRES": 78.9,
    "VSORRESU": "kg",
    "VSSTRESN": 78.9,
    "VSSTRESU": "kg",
    "VSBLFL": "",
    "VISITNUM": 4,
    "VISIT": "WEEK 4",
    "VISITDY": 29,
    "VSDTC": "2013-12-22",
    "VSDY": 29
  },
  {
    "STUDYID": "CDISCPILOT01",
    "DOMAIN": "VS",
    "USUBJID": "01-701-008",
    "VSSEQ": 23,
    "VSTESTCD": "HEIGHT",
    "VSTEST": "Height",
    "VSORRES": 168,
    "VSORRESU": "cm",
    "VSSTRESN": 168,
    "VSSTRESU": "cm",
    "VSBLFL": "",
    "VISITNUM": 4,
    "VISIT": "WEEK 4",
    "VISITDY": 29,
    "VSDTC": "2013-12-22",
    "VSDY": 29
  },
  {
    "STUDYID": "CDISCPILOT01",
    "DOMAIN": "VS",
    "USUBJID": "01-701-008",
    "VSSEQ": 24,
    "VSTESTCD": "TEMP",
    "VSTEST": "Temperature",
    "VSORRES": 36.2,
    "VSORRESU": "C",
    "VSSTRESN": 36.2,
    "VSSTRESU": "C",
    "VSBLFL": "",
    "VISITNUM": 4,
    "VISIT": "WEEK 4",
    "VISITDY": 29,
    "VSDTC": "2013-12-23",
    "VSDY": 29
  },
  {
    "STUDYID": "CDISCPILOT01",
    "DOMAIN": "VS",
    "USUBJID": "01-701-008",
    "VSSEQ": 25,
    "VSTESTCD": "SYSBP",
    "VSTEST": "Systolic Blood Pressure",
    "VSORRES": 168,
    "VSORRESU": "mmHg",
    "VSSTRESN": 168,
    "VSSTRESU": "mmHg",
    "VSBLFL": "",
    "VISITNUM": 4,
    "VISIT": "WEEK 4",
    "VISITDY": 29,
    "VSDTC": "2013-12-22",
    "VSDY": 29
  },
  {
    "STUDYID": "CDISCPILOT01",
    "DOMAIN": "VS",
    "USUBJID": "01-701-008",
    "VSSEQ": 26,
    "VSTESTCD": "DIABP",
    "VSTEST": "Diastolic Blood Pressure",
    "VSORRES": 91.1,
    "VSORRESU": "mmHg",
    "VSSTRESN": 91.1,
    "VSSTRESU": "mmHg",
    "VSBLFL": "",
    "VISITNUM": 4,
    "VISIT": "WEEK 4",
    "VISITDY": 29,
    "VSDTC": "2013-12-23",
    "VSDY": 29
  },
  {
    "STUDYID": "CDISCPILOT01",
    "DOMAIN": "VS",
    "USUBJID": "01-701-008",
    "VSSEQ": 27,
    "VSTESTCD": "PULSE",
    "VSTEST": "Pulse Rate",
    "VSORRES": 96.5,
    "VSORRESU": "beats/min",
    "VSSTRESN": 96.5,
    "VSSTRESU": "beats/min",
    "VSBLFL": "",
    "VISITNUM": 4,
    "VISIT": "WEEK 4",
    "VISITDY": 29,
    "VSDTC": "2013-12-22",
    "VSDY": 29
  },
  {
    "STUDYID": "CDISCPILOT01",
    "DOMAIN": "VS",
    "USUBJID": "01-701-008",
    "VSSEQ": 28,
    "VSTESTCD": "RESP",
    "VSTEST": "Respiratory Rate",
    "VSORRES": 16,
    "VSORRESU": "breaths/min",
    "VSSTRESN": 16,
    "VSSTRESU": "breaths/min",
    "VSBLFL": "",
    "VISITNUM": 4,
    "VISIT": "WEEK 4",
    "VISITDY": 29,
    "VSDTC": "2013-12-22",
    "VSDY": 29
  },
  {
    "STUDYID": "CDISCPILOT01",
    "DOMAIN": "VS",
    "USUBJID": "01-701-008",
    "VSSEQ": 29,
    "VSTESTCD": "WEIGHT",
    "VSTEST": "Weight",
    "VSORRES": 78.9,
    "VSORRESU": "kg",
    "VSSTRESN": 78.9,
    "VSSTRESU": "kg",
    "VSBLFL": "",
    "VISITNUM": 5,
    "VISIT": "WEEK 8",
    "VISITDY": 57,
    "VSDTC": "2014-01-18",
    "VSDY": 57
  },
  {
    "STUDYID": "CDISCPILOT01",
    "DOMAIN": "VS",
    "USUBJID": "01-701-008",
    "VSSEQ": 30,
    "VSTESTCD": "HEIGHT",
    "VSTEST": "Height",
    "VSORRES": 168,
    "VSORRESU": "cm",
    "VSSTRESN": 168,
    "VSSTRESU": "cm",
    "VSBLFL": "",
    "VISITNUM": 5,
    "VISIT": "WEEK 8",
    "VISITDY": 57,
    "VSDTC": "2014-01-19",
    "VSDY": 57
  },
  {
    "STUDYID": "CDISCPILOT01",
    "DOMAIN": "VS",
    "USUBJID": "01-701-008",
    "VSSEQ": 31,
    "VSTESTCD": "TEMP",
    "VSTEST": "Temperature",
    "VSORRES": 36.4,
    "VSORRESU": "C",
    "VSSTRESN": 36.4,
    "VSSTRESU": "C",
    "VSBLFL": "",
    "VISITNUM": 5,
    "VISIT": "WEEK 8",
    "VISITDY": 57,
    "VSDTC": "2014-01-18",
    "VSDY": 57
  },
  {
    "STUDYID": "CDISCPILOT01",
    "DOMAIN": "VS",
    "USUBJID": "01-701-008",
    "VSSEQ": 32,
    "VSTESTCD": "SYSBP",
    "VSTEST": "Systolic Blood Pressure",
    "VSORRES": 168,
    "VSORRESU": "mmHg",
    "VSSTRESN": 168,
    "VSSTRESU": "mmHg",
    "VSBLFL": "",
    "VISITNUM": 5,
    "VISIT": "WEEK 8",
    "VISITDY": 57,
    "VSDTC": "2014-01-20",
    "VSDY": 57
  },
  {
    "STUDYID": "CDISCPILOT01",
    "DOMAIN": "VS",
    "USUBJID": "01-701-008",
    "VSSEQ": 33,
    "VSTESTCD": "DIABP",
    "VSTEST": "Diastolic Blood Pressure",
    "VSORRES": 87.9,
    "VSORRESU": "mmHg",
    "VSSTRESN": 87.9,
    "VSSTRESU": "mmHg",
    "VSBLFL": "",
    "VISITNUM": 5,
    "VISIT": "WEEK 8",
    "VISITDY": 57,
    "VSDTC": "2014-01-19",
    "VSDY": 57
  },
  {
    "STUDYID": "CDISCPILOT01",
    "DOMAIN": "VS",
    "USUBJID": "01-701-008",
    "VSSEQ": 34,
    "VSTESTCD": "PULSE",
    "VSTEST": "Pulse Rate",
    "VSORRES": 92.7,
    "VSORRESU": "beats/min",
    "VSSTRESN": 92.7,
    "VSSTRESU": "beats/min",
    "VSBLFL": "",
    "VISITNUM": 5,
    "VISIT": "WEEK 8",
    "VISITDY": 57,
    "VSDTC": "2014-01-19",
    "VSDY": 57
  },
  {
    "STUDYID": "CDISCPILOT01",
    "DOMAIN": "VS",
    "USUBJID": "01-701-008",
    "VSSEQ": 35,
    "VSTESTCD": "RESP",
    "VSTEST": "Respiratory Rate",
    "VSORRES": 16.5,
    "VSORRESU": "breaths/min",
    "VSSTRESN": 16.5,
    "VSSTRESU": "breaths/min",
    "VSBLFL": "",
    "VISITNUM": 5,
    "VISIT": "WEEK 8",
    "VISITDY": 57,
    "VSDTC": "2014-01-19",
    "VSDY": 57
  },
  {
    "STUDYID": "CDISCPILOT01",
    "DOMAIN": "VS",
    "USUBJID": "01-701-008",
    "VSSEQ": 36,
    "VSTESTCD": "WEIGHT",
    "VSTEST": "Weight",
    "VSORRES": 79,
    "VSORRESU": "kg",
    "VSSTRESN": 79,
    "VSSTRESU": "kg",
    "VSBLFL": "",
    "VISITNUM": 6,
    "VISIT": "WEEK 12",
    "VISITDY": 85,
    "VSDTC": "2014-02-16",
    "VSDY": 85
  },
  {
    "STUDYID": "CDISCPILOT01",
    "DOMAIN": "VS",
    "USUBJID": "01-701-008",
    "VSSEQ": 37,
    "VSTESTCD": "HEIGHT",
    "VSTEST": "Height",
    "VSORRES": 168,
    "VSORRESU": "cm",
    "VSSTRESN": 168,
    "VSSTRESU": "cm",
    "VSBLFL": "",
    "VISITNUM": 6,
    "VISIT": "WEEK 12",
    "VISITDY": 85,
    "VSDTC": "2014-02-15",
    "VSDY": 85
  },
  {
    "STUDYID": "CDISCPILOT01",
    "DOMAIN": "VS",
    "USUBJID": "01-701-008",
    "VSSEQ": 38,
    "VSTESTCD": "TEMP",
    "VSTEST": "Temperature",
    "VSORRES": 36.2,
    "VSORRESU": "C",
    "VSSTRESN": 36.2,
    "VSSTRESU": "C",
    "VSBLFL": "",
    "VISITNUM": 6,
    "VISIT": "WEEK 12",
    "VISITDY": 85,
    "VSDTC": "2014-02-15",
    "VSDY": 85
  },
  {
    "STUDYID": "CDISCPILOT01",
    "DOMAIN": "VS",
    "USUBJID": "01-701-008",
    "VSSEQ": 39,
    "VSTESTCD": "SYSBP",
    "VSTEST": "Systolic Blood Pressure",
    "VSORRES": 168,
    "VSORRESU": "mmHg",
    "VSSTRESN": 168,
    "VSSTRESU": "mmHg",
    "VSBLFL": "",
    "VISITNUM": 6,
    "VISIT": "WEEK 12",
    "VISITDY": 85,
    "VSDTC": "2014-02-16",
    "VSDY": 85
  },
  {
    "STUDYID": "CDISCPILOT01",
    "DOMAIN": "VS",
    "USUBJID": "01-701-008",
    "VSSEQ": 40,
    "VSTESTCD": "DIABP",
    "VSTEST": "Diastolic Blood Pressure",
    "VSORRES": 87.8,
    "VSORRESU": "mmHg",
    "VSSTRESN": 87.8,
    "VSSTRESU": "mmHg",
    "VSBLFL": "",
    "VISITNUM": 6,
    "VISIT": "WEEK 12",
    "VISITDY": 85,
    "VSDTC": "2014-02-17",
    "VSDY": 85
  },
  {
    "STUDYID": "CDISCPILOT01",
    "DOMAIN": "VS",
    "USUBJID": "01-701-008",
    "VSSEQ": 41,
    "VSTESTCD": "PULSE",
    "VSTEST": "Pulse Rate",
    "VSORRES": 98.9,
    "VSORRESU": "beats/min",
    "VSSTRESN": 98.9,
    "VSSTRESU": "beats/min",
    "VSBLFL": "",
    "VISITNUM": 6,
    "VISIT": "WEEK 12",
    "VISITDY": 85,
    "VSDTC": "2014-02-16",
    "VSDY": 85
  },
  {
    "STUDYID": "CDISCPILOT01",
    "DOMAIN": "VS",
    "USUBJID": "01-701-008",
    "VSSEQ": 42,
    "VSTESTCD": "RESP",
    "VSTEST": "Respiratory Rate",
    "VSORRES": 16.5,
    "VSORRESU": "breaths/min",
    "VSSTRESN": 16.5,
    "VSSTRESU": "breaths/min",
    "VSBLFL": "",
    "VISITNUM": 6,
    "VISIT": "WEEK 12",
    "VISITDY": 85,
    "VSDTC": "2014-02-17",
    "VSDY": 85
  },
  {
    "STUDYID": "CDISCPILOT01",
    "DOMAIN": "VS",
    "USUBJID": "01-701-008",
    "VSSEQ": 43,
    "VSTESTCD": "WEIGHT",
    "VSTEST": "Weight",
    "VSORRES": 79,
    "VSORRESU": "kg",
    "VSSTRESN": 79,
    "VSSTRESU": "kg",
    "VSBLFL": "",
    "VISITNUM": 7,
    "VISIT": "WEEK 16",
    "VISITDY": 113,
    "VSDTC": "2014-03-17",
    "VSDY": 113
  },
  {
    "STUDYID": "CDISCPILOT01",
    "DOMAIN": "VS",
    "USUBJID": "01-701-008",
    "VSSEQ": 44,
    "VSTESTCD": "HEIGHT",
    "VSTEST": "Height",
    "VSORRES": 168,
    "VSORRESU": "cm",
    "VSSTRESN": 168,
    "VSSTRESU": "cm",
    "VSBLFL": "",
    "VISITNUM": 7,
    "VISIT": "WEEK 16",
    "VISITDY": 113,
    "VSDTC": "2014-03-15",
    "VSDY": 113
  },
  {
    "STUDYID": "CDISCPILOT01",
    "DOMAIN": "VS",
    "USUBJID": "01-701-008",
    "VSSEQ": 45,
    "VSTESTCD": "TEMP",
    "VSTEST": "Temperature",
    "VSORRES": 36.3,
    "VSORRESU": "C",
    "VSSTRESN": 36.3,
    "VSSTRESU": "C",
    "VSBLFL": "",
    "VISITNUM": 7,
    "VISIT": "WEEK 16",
    "VISITDY": 113,
    "VSDTC": "2014-03-16",
    "VSDY": 113
  },
  {
    "STUDYID": "CDISCPILOT01",
    "DOMAIN": "VS",
    "USUBJID": "01-701-008",
    "VSSEQ": 46,
    "VSTESTCD": "SYSBP",
    "VSTEST": "Systolic Blood Pressure",
    "VSORRES": 167.7,
    "VSORRESU": "mmHg",
    "VSSTRESN": 167.7,
    "VSSTRESU": "mmHg",
    "VSBLFL": "",
    "VISITNUM": 7,
    "VISIT": "WEEK 16",
    "VISITDY": 113,
    "VSDTC": "2014-03-17",
    "VSDY": 113
  },
  {
    "STUDYID": "CDISCPILOT01",
    "DOMAIN": "VS",
    "USUBJID": "01-701-008",
    "VSSEQ": 47,
    "VSTESTCD": "DIABP",
    "VSTEST": "Diastolic Blood Pressure",
    "VSORRES": 88.2,
    "VSORRESU": "mmHg",
    "VSSTRESN": 88.2,
    "VSSTRESU": "mmHg",
    "VSBLFL": "",
    "VISITNUM": 7,
    "VISIT": "WEEK 16",
    "VISITDY": 113,
    "VSDTC": "2014-03-17",
    "VSDY": 113
  },
  {
    "STUDYID": "CDISCPILOT01",
    "DOMAIN": "VS",
    "USUBJID": "01-701-008",
    "VSSEQ": 48,
    "VSTESTCD": "PULSE",
    "VSTEST": "Pulse Rate",
    "VSORRES": 93.1,
    "VSORRESU": "beats/min",
    "VSSTRESN": 93.1,
    "VSSTRESU": "beats/min",
    "VSBLFL": "",
    "VISITNUM": 7,
    "VISIT": "WEEK 16",
    "VISITDY": 113,
    "VSDTC": "2014-03-16",
    "VSDY": 113
  },
  {
    "STUDYID": "CDISCPILOT01",
    "DOMAIN": "VS",
    "USUBJID": "01-701-008",
    "VSSEQ": 49,
    "VSTESTCD": "RESP",
    "VSTEST": "Respiratory Rate",
    "VSORRES": 16.7,
    "VSORRESU": "breaths/min",
    "VSSTRESN": 16.7,
    "VSSTRESU": "breaths/min",
    "VSBLFL": "",
    "VISITNUM": 7,
    "VISIT": "WEEK 16",
    "VISITDY": 113,
    "VSDTC": "2014-03-15",
    "VSDY": 113
  },
  {
    "STUDYID": "CDISCPILOT01",
    "DOMAIN": "VS",
    "USUBJID": "01-701-008",
    "VSSEQ": 50,
    "VSTESTCD": "WEIGHT",
    "VSTEST": "Weight",
    "VSORRES": 78.6,
    "VSORRESU": "kg",
    "VSSTRESN": 78.6,
    "VSSTRESU": "kg",
    "VSBLFL": "",
    "VISITNUM": 8,
    "VISIT": "WEEK 20",
    "VISITDY": 141,
    "VSDTC": "2014-04-12",
    "VSDY": 141
  },
  {
    "STUDYID": "CDISCPILOT01",
    "DOMAIN": "VS",
    "USUBJID": "01-701-008",
    "VSSEQ": 51,
    "VSTESTCD": "HEIGHT",
    "VSTEST": "Height",
    "VSORRES": 168,
    "VSORRESU": "cm",
    "VSSTRESN": 168,
    "VSSTRESU": "cm",
    "VSBLFL": "",
    "VISITNUM": 8,
    "VISIT": "WEEK 20",
    "VISITDY": 141,
    "VSDTC": "2014-04-13",
    "VSDY": 141
  },
  {
    "STUDYID": "CDISCPILOT01",
    "DOMAIN": "VS",
    "USUBJID": "01-701-008",
    "VSSEQ": 52,
    "VSTESTCD": "TEMP",
    "VSTEST": "Temperature",
    "VSORRES": 36.3,
    "VSORRESU": "C",
    "VSSTRESN": 36.3,
    "VSSTRESU": "C",
    "VSBLFL": "",
    "VISITNUM": 8,
    "VISIT": "WEEK 20",
    "VISITDY": 141,
    "VSDTC": "2014-04-13",
    "VSDY": 141
  },
  {
    "STUDYID": "CDISCPILOT01",
    "DOMAIN": "VS",
    "USUBJID": "01-701-008",
    "VSSEQ": 53,
    "VSTESTCD": "SYSBP",
    "VSTEST": "Systolic Blood Pressure",
    "VSORRES": 168,
    "VSORRESU": "mmHg",
    "VSSTRESN": 168,
    "VSSTRESU": "mmHg",
    "VSBLFL": "",
    "VISITNUM": 8,
    "VISIT": "WEEK 20",
    "VISITDY": 141,
    "VSDTC": "2014-04-14",
    "VSDY": 141
  },
  {
    "STUDYID": "CDISCPILOT01",
    "DOMAIN": "VS",
    "USUBJID": "01-701-008",
    "VSSEQ": 54,
    "VSTESTCD": "DIABP",
    "VSTEST": "Diastolic Blood Pressure",
    "VSORRES": 88.7,
    "VSORRESU": "mmHg",
    "VSSTRESN": 88.7,
    "VSSTRESU": "mmHg",
    "VSBLFL": "",
    "VISITNUM": 8,
    "VISIT": "WEEK 20",
    "VISITDY": 141,
    "VSDTC": "2014-04-13",
    "VSDY": 141
  },
  {
    "STUDYID": "CDISCPILOT01",
    "DOMAIN": "VS",
    "USUBJID": "01-701-008",
    "VSSEQ": 55,
    "VSTESTCD": "PULSE",
    "VSTEST": "Pulse Rate",
    "VSORRES": 96.6,
    "VSORRESU": "beats/min",
    "VSSTRESN": 96.6,
    "VSSTRESU": "beats/min",
    "VSBLFL": "",
    "VISITNUM": 8,
    "VISIT": "WEEK 20",
    "VISITDY": 141,
    "VSDTC": "2014-04-13",
    "VSDY": 141
  },
  {
    "STUDYID": "CDISCPILOT01",
    "DOMAIN": "VS",
    "USUBJID": "01-701-008",
    "VSSEQ": 56,
    "VSTESTCD": "RESP",
    "VSTEST": "Respiratory Rate",
    "VSORRES": 16.5,
    "VSORRESU": "breaths/min",
    "VSSTRESN": 16.5,
    "VSSTRESU": "breaths/min",
    "VSBLFL": "",
    "VISITNUM": 8,
    "VISIT": "WEEK 20",
    "VISITDY": 141,
    "VSDTC": "2014-04-12",
    "VSDY": 141
  },
  {
    "STUDYID": "CDISCPILOT01",
    "DOMAIN": "VS",
    "USUBJID": "01-701-008",
    "VSSEQ": 57,
    "VSTESTCD": "WEIGHT",
    "VSTEST": "Weight",
    "VSORRES": 78.9,
    "VSORRESU": "kg",
    "VSSTRESN": 78.9,
    "VSSTRESU": "kg",
    "VSBLFL": "",
    "VISITNUM": 9,
    "VISIT": "WEEK 24",
    "VISITDY": 169,
    "VSDTC": "2014-05-10",
    "VSDY": 169
  },
  {
    "STUDYID": "CDISCPILOT01",
    "DOMAIN": "VS",
    "USUBJID": "01-701-008",
    "VSSEQ": 58,
    "VSTESTCD": "HEIGHT",
    "VSTEST": "Height",
    "VSORRES": 168,
    "VSORRESU": "cm",
    "VSSTRESN": 168,
    "VSSTRESU": "cm",
    "VSBLFL": "",
    "VISITNUM": 9,
    "VISIT": "WEEK 24",
    "VISITDY": 169,
    "VSDTC": "2014-05-10",
    "VSDY": 169
  },
  {
    "STUDYID": "CDISCPILOT01",
    "DOMAIN": "VS",
    "USUBJID": "01-701-008",
    "VSSEQ": 59,
    "VSTESTCD": "TEMP",
    "VSTEST": "Temperature",
    "VSORRES": 36.3,
    "VSORRESU": "C",
    "VSSTRESN": 36.3,
    "VSSTRESU": "C",
    "VSBLFL": "",
    "VISITNUM": 9,
    "VISIT": "WEEK 24",
    "VISITDY": 169,
    "VSDTC": "2014-05-11",
    "VSDY": 169
  },
  {
    "STUDYID": "CDISCPILOT01",
    "DOMAIN": "VS",
    "USUBJID": "01-701-008",
    "VSSEQ": 60,
    "VSTESTCD": "SYSBP",
    "VSTEST": "Systolic Blood Pressure",
    "VSORRES": 168,
    "VSORRESU": "mmHg",
    "VSSTRESN": 168,
    "VSSTRESU": "mmHg",
    "VSBLFL": "",
    "VISITNUM": 9,
    "VISIT": "WEEK 24",
    "VISITDY": 169,
    "VSDTC": "2014-05-12",
    "VSDY": 169
  },
  {
    "STUDYID": "CDISCPILOT01",
    "DOMAIN": "VS",
    "USUBJID": "01-701-008",
    "VSSEQ": 61,
    "VSTESTCD": "DIABP",
    "VSTEST": "Diastolic Blood Pressure",
    "VSORRES": 85.8,
    "VSORRESU": "mmHg",
    "VSSTRESN": 85.8,
    "VSSTRESU": "mmHg",
    "VSBLFL": "",
    "VISITNUM": 9,
    "VISIT": "WEEK 24",
    "VISITDY": 169,
    "VSDTC": "2014-05-10",
    "VSDY": 169
  },
  {
    "STUDYID": "CDISCPILOT01",
    "DOMAIN": "VS",
    "USUBJID": "01-701-008",
    "VSSEQ": 62,
    "VSTESTCD": "PULSE",
    "VSTEST": "Pulse Rate",
    "VSORRES": 99.6,
    "VSORRESU": "beats/min",
    "VSSTRESN": 99.6,
    "VSSTRESU": "beats/min",
    "VSBLFL": "",
    "VISITNUM": 9,
    "VISIT": "WEEK 24",
    "VISITDY": 169,
    "VSDTC": "2014-05-10",
    "VSDY": 169
  },
  {
    "STUDYID": "CDISCPILOT01",
    "DOMAIN": "VS",
    "USUBJID": "01-701-008",
    "VSSEQ": 63,
    "VSTESTCD": "RESP",
    "VSTEST": "Respiratory Rate",
    "VSORRES": 16.6,
    "VSORRESU": "breaths/min",
    "VSSTRESN": 16.6,
    "VSSTRESU": "breaths/min",
    "VSBLFL": "",
    "VISITNUM": 9,
    "VISIT": "WEEK 24",
    "VISITDY": 169,
    "VSDTC": "2014-05-12",
    "VSDY": 169
  },
  {
    "STUDYID": "CDISCPILOT01",
    "DOMAIN": "VS",
    "USUBJID": "01-701-009",
    "VSSEQ": 1,
    "VSTESTCD": "WEIGHT",
    "VSTEST": "Weight",
    "VSORRES": 45.1,
    "VSORRESU": "kg",
    "VSSTRESN": 45.1,
    "VSSTRESU": "kg",
    "VSBLFL": "Y",
    "VISITNUM": 1,
    "VISIT": "SCREENING",
    "VISITDY": -7,
    "VSDTC": "2013-06-02",
    "VSDY": -7
  },
  {
    "STUDYID": "CDISCPILOT01",
    "DOMAIN": "VS",
    "USUBJID": "01-701-009",
    "VSSEQ": 2,
    "VSTESTCD": "HEIGHT",
    "VSTEST": "Height",
    "VSORRES": 158.8,
    "VSORRESU": "cm",
    "VSSTRESN": 158.8,
    "VSSTRESU": "cm",
    "VSBLFL": "Y",
    "VISITNUM": 1,
    "VISIT": "SCREENING",
    "VISITDY": -7,
    "VSDTC": "2013-05-31",
    "VSDY": -7
  },
  {
    "STUDYID": "CDISCPILOT01",
    "DOMAIN": "VS",
    "USUBJID": "01-701-009",
    "VSSEQ": 3,
    "VSTESTCD": "TEMP",
    "VSTEST": "Temperature",
    "VSORRES": 36.7,
    "VSORRESU": "C",
    "VSSTRESN": 36.7,
    "VSSTRESU": "C",
    "VSBLFL": "Y",
    "VISITNUM": 1,
    "VISIT": "SCREENING",
    "VISITDY": -7,
    "VSDTC": "2013-06-02",
    "VSDY": -7
  },
  {
    "STUDYID": "CDISCPILOT01",
    "DOMAIN": "VS",
    "USUBJID": "01-701-009",
    "VSSEQ": 4,
    "VSTESTCD": "SYSBP",
    "VSTEST": "Systolic Blood Pressure",
    "VSORRES": 154.7,
    "VSORRESU": "mmHg",
    "VSSTRESN": 154.7,
    "VSSTRESU": "mmHg",
    "VSBLFL": "Y",
    "VISITNUM": 1,
    "VISIT": "SCREENING",
    "VISITDY": -7,
    "VSDTC": "2013-06-02",
    "VSDY": -7
  },
  {
    "STUDYID": "CDISCPILOT01",
    "DOMAIN": "VS",
    "USUBJID": "01-701-009",
    "VSSEQ": 5,
    "VSTESTCD": "DIABP",
    "VSTEST": "Diastolic Blood Pressure",
    "VSORRES": 69.6,
    "VSORRESU": "mmHg",
    "VSSTRESN": 69.6,
    "VSSTRESU": "mmHg",
    "VSBLFL": "Y",
    "VISITNUM": 1,
    "VISIT": "SCREENING",
    "VISITDY": -7,
    "VSDTC": "2013-06-02",
    "VSDY": -7
  },
  {
    "STUDYID": "CDISCPILOT01",
    "DOMAIN": "VS",
    "USUBJID": "01-701-009",
    "VSSEQ": 6,
    "VSTESTCD": "PULSE",
    "VSTEST": "Pulse Rate",
    "VSORRES": 76.8,
    "VSORRESU": "beats/min",
    "VSSTRESN": 76.8,
    "VSSTRESU": "beats/min",
    "VSBLFL": "Y",
    "VISITNUM": 1,
    "VISIT": "SCREENING",
    "VISITDY": -7,
    "VSDTC": "2013-06-01",
    "VSDY": -7
  },
  {
    "STUDYID": "CDISCPILOT01",
    "DOMAIN": "VS",
    "USUBJID": "01-701-009",
    "VSSEQ": 7,
    "VSTESTCD": "RESP",
    "VSTEST": "Respiratory Rate",
    "VSORRES": 16,
    "VSORRESU": "breaths/min",
    "VSSTRESN": 16,
    "VSSTRESU": "breaths/min",
    "VSBLFL": "Y",
    "VISITNUM": 1,
    "VISIT": "SCREENING",
    "VISITDY": -7,
    "VSDTC": "2013-06-01",
    "VSDY": -7
  },
  {
    "STUDYID": "CDISCPILOT01",
    "DOMAIN": "VS",
    "USUBJID": "01-701-009",
    "VSSEQ": 8,
    "VSTESTCD": "WEIGHT",
    "VSTEST": "Weight",
    "VSORRES": 45.2,
    "VSORRESU": "kg",
    "VSSTRESN": 45.2,
    "VSSTRESU": "kg",
    "VSBLFL": "",
    "VISITNUM": 2,
    "VISIT": "BASELINE",
    "VISITDY": 1,
    "VSDTC": "2013-06-09",
    "VSDY": 1
  },
  {
    "STUDYID": "CDISCPILOT01",
    "DOMAIN": "VS",
    "USUBJID": "01-701-009",
    "VSSEQ": 9,
    "VSTESTCD": "HEIGHT",
    "VSTEST": "Height",
    "VSORRES": 158.8,
    "VSORRESU": "cm",
    "VSSTRESN": 158.8,
    "VSSTRESU": "cm",
    "VSBLFL": "",
    "VISITNUM": 2,
    "VISIT": "BASELINE",
    "VISITDY": 1,
    "VSDTC": "2013-06-08",
    "VSDY": 1
  },
  {
    "STUDYID": "CDISCPILOT01",
    "DOMAIN": "VS",
    "USUBJID": "01-701-009",
    "VSSEQ": 10,
    "VSTESTCD": "TEMP",
    "VSTEST": "Temperature",
    "VSORRES": 36.6,
    "VSORRESU": "C",
    "VSSTRESN": 36.6,
    "VSSTRESU": "C",
    "VSBLFL": "",
    "VISITNUM": 2,
    "VISIT": "BASELINE",
    "VISITDY": 1,
    "VSDTC": "2013-06-08",
    "VSDY": 1
  },
  {
    "STUDYID": "CDISCPILOT01",
    "DOMAIN": "VS",
    "USUBJID": "01-701-009",
    "VSSEQ": 11,
    "VSTESTCD": "SYSBP",
    "VSTEST": "Systolic Blood Pressure",
    "VSORRES": 156.4,
    "VSORRESU": "mmHg",
    "VSSTRESN": 156.4,
    "VSSTRESU": "mmHg",
    "VSBLFL": "",
    "VISITNUM": 2,
    "VISIT": "BASELINE",
    "VISITDY": 1,
    "VSDTC": "2013-06-09",
    "VSDY": 1
  },
  {
    "STUDYID": "CDISCPILOT01",
    "DOMAIN": "VS",
    "USUBJID": "01-701-009",
    "VSSEQ": 12,
    "VSTESTCD": "DIABP",
    "VSTEST": "Diastolic Blood Pressure",
    "VSORRES": 67.8,
    "VSORRESU": "mmHg",
    "VSSTRESN": 67.8,
    "VSSTRESU": "mmHg",
    "VSBLFL": "",
    "VISITNUM": 2,
    "VISIT": "BASELINE",
    "VISITDY": 1,
    "VSDTC": "2013-06-09",
    "VSDY": 1
  },
  {
    "STUDYID": "CDISCPILOT01",
    "DOMAIN": "VS",
    "USUBJID": "01-701-009",
    "VSSEQ": 13,
    "VSTESTCD": "PULSE",
    "VSTEST": "Pulse Rate",
    "VSORRES": 76.5,
    "VSORRESU": "beats/min",
    "VSSTRESN": 76.5,
    "VSSTRESU": "beats/min",
    "VSBLFL": "",
    "VISITNUM": 2,
    "VISIT": "BASELINE",
    "VISITDY": 1,
    "VSDTC": "2013-06-09",
    "VSDY": 1
  },
  {
    "STUDYID": "CDISCPILOT01",
    "DOMAIN": "VS",
    "USUBJID": "01-701-009",
    "VSSEQ": 14,
    "VSTESTCD": "RESP",
    "VSTEST": "Respiratory Rate",
    "VSORRES": 15.9,
    "VSORRESU": "breaths/min",
    "VSSTRESN": 15.9,
    "VSSTRESU": "breaths/min",
    "VSBLFL": "",
    "VISITNUM": 2,
    "VISIT": "BASELINE",
    "VISITDY": 1,
    "VSDTC": "2013-06-09",
    "VSDY": 1
  },
  {
    "STUDYID": "CDISCPILOT01",
    "DOMAIN": "VS",
    "USUBJID": "01-701-009",
    "VSSEQ": 15,
    "VSTESTCD": "WEIGHT",
    "VSTEST": "Weight",
    "VSORRES": 45.3,
    "VSORRESU": "kg",
    "VSSTRESN": 45.3,
    "VSSTRESU": "kg",
    "VSBLFL": "",
    "VISITNUM": 3,
    "VISIT": "WEEK 2",
    "VISITDY": 15,
    "VSDTC": "2013-06-23",
    "VSDY": 15
  },
  {
    "STUDYID": "CDISCPILOT01",
    "DOMAIN": "VS",
    "USUBJID": "01-701-009",
    "VSSEQ": 16,
    "VSTESTCD": "HEIGHT",
    "VSTEST": "Height",
    "VSORRES": 158.8,
    "VSORRESU": "cm",
    "VSSTRESN": 158.8,
    "VSSTRESU": "cm",
    "VSBLFL": "",
    "VISITNUM": 3,
    "VISIT": "WEEK 2",
    "VISITDY": 15,
    "VSDTC": "2013-06-22",
    "VSDY": 15
  },
  {
    "STUDYID": "CDISCPILOT01",
    "DOMAIN": "VS",
    "USUBJID": "01-701-009",
    "VSSEQ": 17,
    "VSTESTCD": "TEMP",
    "VSTEST": "Temperature",
    "VSORRES": 36.6,
    "VSORRESU": "C",
    "VSSTRESN": 36.6,
    "VSSTRESU": "C",
    "VSBLFL": "",
    "VISITNUM": 3,
    "VISIT": "WEEK 2",
    "VISITDY": 15,
    "VSDTC": "2013-06-22",
    "VSDY": 15
  },
  {
    "STUDYID": "CDISCPILOT01",
    "DOMAIN": "VS",
    "USUBJID": "01-701-009",
    "VSSEQ": 18,
    "VSTESTCD": "SYSBP",
    "VSTEST": "Systolic Blood Pressure",
    "VSORRES": 150,
    "VSORRESU": "mmHg",
    "VSSTRESN": 150,
    "VSSTRESU": "mmHg",
    "VSBLFL": "",
    "VISITNUM": 3,
    "VISIT": "WEEK 2",
    "VISITDY": 15,
    "VSDTC": "2013-06-24",
    "VSDY": 15
  },
  {
    "STUDYID": "CDISCPILOT01",
    "DOMAIN": "VS",
    "USUBJID": "01-701-009",
    "VSSEQ": 19,
    "VSTESTCD": "DIABP",
    "VSTEST": "Diastolic Blood Pressure",
    "VSORRES": 70.6,
    "VSORRESU": "mmHg",
    "VSSTRESN": 70.6,
    "VSSTRESU": "mmHg",
    "VSBLFL": "",
    "VISITNUM": 3,
    "VISIT": "WEEK 2",
    "VISITDY": 15,
    "VSDTC": "2013-06-24",
    "VSDY": 15
  },
  {
    "STUDYID": "CDISCPILOT01",
    "DOMAIN": "VS",
    "USUBJID": "01-701-009",
    "VSSEQ": 20,
    "VSTESTCD": "PULSE",
    "VSTEST": "Pulse Rate",
    "VSORRES": 79.8,
    "VSORRESU": "beats/min",
    "VSSTRESN": 79.8,
    "VSSTRESU": "beats/min",
    "VSBLFL": "",
    "VISITNUM": 3,
    "VISIT": "WEEK 2",
    "VISITDY": 15,
    "VSDTC": "2013-06-23",
    "VSDY": 15
  },
  {
    "STUDYID": "CDISCPILOT01",
    "DOMAIN": "VS",
    "USUBJID": "01-701-009",
    "VSSEQ": 21,
    "VSTESTCD": "RESP",
    "VSTEST": "Respiratory Rate",
    "VSORRES": 15.8,
    "VSORRESU": "breaths/min",
    "VSSTRESN": 15.8,
    "VSSTRESU": "breaths/min",
    "VSBLFL": "",
    "VISITNUM": 3,
    "VISIT": "WEEK 2",
    "VISITDY": 15,
    "VSDTC": "2013-06-22",
    "VSDY": 15
  },
  {
    "STUDYID": "CDISCPILOT01",
    "DOMAIN": "VS",
    "USUBJID": "01-701-009",
    "VSSEQ": 22,
    "VSTESTCD": "WEIGHT",
    "VSTEST": "Weight",
    "VSORRES": 45.3,
    "VSORRESU": "kg",
    "VSSTRESN": 45.3,
    "VSSTRESU": "kg",
    "VSBLFL": "",
    "VISITNUM": 4,
    "VISIT": "WEEK 4",
    "VISITDY": 29,
    "VSDTC": "2013-07-08",
    "VSDY": 29
  },
  {
    "STUDYID": "CDISCPILOT01",
    "DOMAIN": "VS",
    "USUBJID": "01-701-009",
    "VSSEQ": 23,
    "VSTESTCD": "HEIGHT",
    "VSTEST": "Height",
    "VSORRES": 158.8,
    "VSORRESU": "cm",
    "VSSTRESN": 158.8,
    "VSSTRESU": "cm",
    "VSBLFL": "",
    "VISITNUM": 4,
    "VISIT": "WEEK 4",
    "VISITDY": 29,
    "VSDTC": "2013-07-08",
    "VSDY": 29
  },
  {
    "STUDYID": "CDISCPILOT01",
    "DOMAIN": "VS",
    "USUBJID": "01-701-009",
    "VSSEQ": 24,
    "VSTESTCD": "TEMP",
    "VSTEST": "Temperature",
    "VSORRES": 36.6,
    "VSORRESU": "C",
    "VSSTRESN": 36.6,
    "VSSTRESU": "C",
    "VSBLFL": "",
    "VISITNUM": 4,
    "VISIT": "WEEK 4",
    "VISITDY": 29,
    "VSDTC": "2013-07-06",
    "VSDY": 29
  },
  {
    "STUDYID": "CDISCPILOT01",
    "DOMAIN": "VS",
    "USUBJID": "01-701-009",
    "VSSEQ": 25,
    "VSTESTCD": "SYSBP",
    "VSTEST": "Systolic Blood Pressure",
    "VSORRES": 155.4,
    "VSORRESU": "mmHg",
    "VSSTRESN": 155.4,
    "VSSTRESU": "mmHg",
    "VSBLFL": "",
    "VISITNUM": 4,
    "VISIT": "WEEK 4",
    "VISITDY": 29,
    "VSDTC": "2013-07-08",
    "VSDY": 29
  },
  {
    "STUDYID": "CDISCPILOT01",
    "DOMAIN": "VS",
    "USUBJID": "01-701-009",
    "VSSEQ": 26,
    "VSTESTCD": "DIABP",
    "VSTEST": "Diastolic Blood Pressure",
    "VSORRES": 69.7,
    "VSORRESU": "mmHg",
    "VSSTRESN": 69.7,
    "VSSTRESU": "mmHg",
    "VSBLFL": "",
    "VISITNUM": 4,
    "VISIT": "WEEK 4",
    "VISITDY": 29,
    "VSDTC": "2013-07-08",
    "VSDY": 29
  },
  {
    "STUDYID": "CDISCPILOT01",
    "DOMAIN": "VS",
    "USUBJID": "01-701-009",
    "VSSEQ": 27,
    "VSTESTCD": "PULSE",
    "VSTEST": "Pulse Rate",
    "VSORRES": 72.4,
    "VSORRESU": "beats/min",
    "VSSTRESN": 72.4,
    "VSSTRESU": "beats/min",
    "VSBLFL": "",
    "VISITNUM": 4,
    "VISIT": "WEEK 4",
    "VISITDY": 29,
    "VSDTC": "2013-07-07",
    "VSDY": 29
  },
  {
    "STUDYID": "CDISCPILOT01",
    "DOMAIN": "VS",
    "USUBJID": "01-701-009",
    "VSSEQ": 28,
    "VSTESTCD": "RESP",
    "VSTEST": "Respiratory Rate",
    "VSORRES": 16.2,
    "VSORRESU": "breaths/min",
    "VSSTRESN": 16.2,
    "VSSTRESU": "breaths/min",
    "VSBLFL": "",
    "VISITNUM": 4,
    "VISIT": "WEEK 4",
    "VISITDY": 29,
    "VSDTC": "2013-07-06",
    "VSDY": 29
  },
  {
    "STUDYID": "CDISCPILOT01",
    "DOMAIN": "VS",
    "USUBJID": "01-701-010",
    "VSSEQ": 1,
    "VSTESTCD": "WEIGHT",
    "VSTEST": "Weight",
    "VSORRES": 91.5,
    "VSORRESU": "kg",
    "VSSTRESN": 91.5,
    "VSSTRESU": "kg",
    "VSBLFL": "Y",
    "VISITNUM": 1,
    "VISIT": "SCREENING",
    "VISITDY": -7,
    "VSDTC": "2013-11-26",
    "VSDY": -7
  },
  {
    "STUDYID": "CDISCPILOT01",
    "DOMAIN": "VS",
    "USUBJID": "01-701-010",
    "VSSEQ": 2,
    "VSTESTCD": "HEIGHT",
    "VSTEST": "Height",
    "VSORRES": 146.9,
    "VSORRESU": "cm",
    "VSSTRESN": 146.9,
    "VSSTRESU": "cm",
    "VSBLFL": "Y",
    "VISITNUM": 1,
    "VISIT": "SCREENING",
    "VISITDY": -7,
    "VSDTC": "2013-11-27",
    "VSDY": -7
  },
  {
    "STUDYID": "CDISCPILOT01",
    "DOMAIN": "VS",
    "USUBJID": "01-701-010",
    "VSSEQ": 3,
    "VSTESTCD": "TEMP",
    "VSTEST": "Temperature",
    "VSORRES": 36.4,
    "VSORRESU": "C",
    "VSSTRESN": 36.4,
    "VSSTRESU": "C",
    "VSBLFL": "Y",
    "VISITNUM": 1,
    "VISIT": "SCREENING",
    "VISITDY": -7,
    "VSDTC": "2013-11-26",
    "VSDY": -7
  },
  {
    "STUDYID": "CDISCPILOT01",
    "DOMAIN": "VS",
    "USUBJID": "01-701-010",
    "VSSEQ": 4,
    "VSTESTCD": "SYSBP",
    "VSTEST": "Systolic Blood Pressure",
    "VSORRES": 123.2,
    "VSORRESU": "mmHg",
    "VSSTRESN": 123.2,
    "VSSTRESU": "mmHg",
    "VSBLFL": "Y",
    "VISITNUM": 1,
    "VISIT": "SCREENING",
    "VISITDY": -7,
    "VSDTC": "2013-11-26",
    "VSDY": -7
  },
  {
    "STUDYID": "CDISCPILOT01",
    "DOMAIN": "VS",
    "USUBJID": "01-701-010",
    "VSSEQ": 5,
    "VSTESTCD": "DIABP",
    "VSTEST": "Diastolic Blood Pressure",
    "VSORRES": 78.7,
    "VSORRESU": "mmHg",
    "VSSTRESN": 78.7,
    "VSSTRESU": "mmHg",
    "VSBLFL": "Y",
    "VISITNUM": 1,
    "VISIT": "SCREENING",
    "VISITDY": -7,
    "VSDTC": "2013-11-26",
    "VSDY": -7
  },
  {
    "STUDYID": "CDISCPILOT01",
    "DOMAIN": "VS",
    "USUBJID": "01-701-010",
    "VSSEQ": 6,
    "VSTESTCD": "PULSE",
    "VSTEST": "Pulse Rate",
    "VSORRES": 91,
    "VSORRESU": "beats/min",
    "VSSTRESN": 91,
    "VSSTRESU": "beats/min",
    "VSBLFL": "Y",
    "VISITNUM": 1,
    "VISIT": "SCREENING",
    "VISITDY": -7,
    "VSDTC": "2013-11-26",
    "VSDY": -7
  },
  {
    "STUDYID": "CDISCPILOT01",
    "DOMAIN": "VS",
    "USUBJID": "01-701-010",
    "VSSEQ": 7,
    "VSTESTCD": "RESP",
    "VSTEST": "Respiratory Rate",
    "VSORRES": 15,
    "VSORRESU": "breaths/min",
    "VSSTRESN": 15,
    "VSSTRESU": "breaths/min",
    "VSBLFL": "Y",
    "VISITNUM": 1,
    "VISIT": "SCREENING",
    "VISITDY": -7,
    "VSDTC": "2013-11-27",
    "VSDY": -7
  },
  {
    "STUDYID": "CDISCPILOT01",
    "DOMAIN": "VS",
    "USUBJID": "01-701-010",
    "VSSEQ": 8,
    "VSTESTCD": "WEIGHT",
    "VSTEST": "Weight",
    "VSORRES": 91.9,
    "VSORRESU": "kg",
    "VSSTRESN": 91.9,
    "VSSTRESU": "kg",
    "VSBLFL": "",
    "VISITNUM": 2,
    "VISIT": "BASELINE",
    "VISITDY": 1,
    "VSDTC": "2013-12-05",
    "VSDY": 1
  },
  {
    "STUDYID": "CDISCPILOT01",
    "DOMAIN": "VS",
    "USUBJID": "01-701-010",
    "VSSEQ": 9,
    "VSTESTCD": "HEIGHT",
    "VSTEST": "Height",
    "VSORRES": 146.9,
    "VSORRESU": "cm",
    "VSSTRESN": 146.9,
    "VSSTRESU": "cm",
    "VSBLFL": "",
    "VISITNUM": 2,
    "VISIT": "BASELINE",
    "VISITDY": 1,
    "VSDTC": "2013-12-03",
    "VSDY": 1
  },
  {
    "STUDYID": "CDISCPILOT01",
    "DOMAIN": "VS",
    "USUBJID": "01-701-010",
    "VSSEQ": 10,
    "VSTESTCD": "TEMP",
    "VSTEST": "Temperature",
    "VSORRES": 36.4,
    "VSORRESU": "C",
    "VSSTRESN": 36.4,
    "VSSTRESU": "C",
    "VSBLFL": "",
    "VISITNUM": 2,
    "VISIT": "BASELINE",
    "VISITDY": 1,
    "VSDTC": "2013-12-04",
    "VSDY": 1
  },
  {
    "STUDYID": "CDISCPILOT01",
    "DOMAIN": "VS",
    "USUBJID": "01-701-010",
    "VSSEQ": 11,
    "VSTESTCD": "SYSBP",
    "VSTEST": "Systolic Blood Pressure",
    "VSORRES": 121.3,
    "VSORRESU": "mmHg",
    "VSSTRESN": 121.3,
    "VSSTRESU": "mmHg",
    "VSBLFL": "",
    "VISITNUM": 2,
    "VISIT": "BASELINE",
    "VISITDY": 1,
    "VSDTC": "2013-12-05",
    "VSDY": 1
  },
  {
    "STUDYID": "CDISCPILOT01",
    "DOMAIN": "VS",
    "USUBJID": "01-701-010",
    "VSSEQ": 12,
    "VSTESTCD": "DIABP",
    "VSTEST": "Diastolic Blood Pressure",
    "VSORRES": 79.3,
    "VSORRESU": "mmHg",
    "VSSTRESN": 79.3,
    "VSSTRESU": "mmHg",
    "VSBLFL": "",
    "VISITNUM": 2,
    "VISIT": "BASELINE",
    "VISITDY": 1,
    "VSDTC": "2013-12-03",
    "VSDY": 1
  },
  {
    "STUDYID": "CDISCPILOT01",
    "DOMAIN": "VS",
    "USUBJID": "01-701-010",
    "VSSEQ": 13,
    "VSTESTCD": "PULSE",
    "VSTEST": "Pulse Rate",
    "VSORRES": 88.4,
    "VSORRESU": "beats/min",
    "VSSTRESN": 88.4,
    "VSSTRESU": "beats/min",
    "VSBLFL": "",
    "VISITNUM": 2,
    "VISIT": "BASELINE",
    "VISITDY": 1,
    "VSDTC": "2013-12-04",
    "VSDY": 1
  },
  {
    "STUDYID": "CDISCPILOT01",
    "DOMAIN": "VS",
    "USUBJID": "01-701-010",
    "VSSEQ": 14,
    "VSTESTCD": "RESP",
    "VSTEST": "Respiratory Rate",
    "VSORRES": 15.2,
    "VSORRESU": "breaths/min",
    "VSSTRESN": 15.2,
    "VSSTRESU": "breaths/min",
    "VSBLFL": "",
    "VISITNUM": 2,
    "VISIT": "BASELINE",
    "VISITDY": 1,
    "VSDTC": "2013-12-03",
    "VSDY": 1
  },
  {
    "STUDYID": "CDISCPILOT01",
    "DOMAIN": "VS",
    "USUBJID": "01-701-010",
    "VSSEQ": 15,
    "VSTESTCD": "WEIGHT",
    "VSTEST": "Weight",
    "VSORRES": 91.2,
    "VSORRESU": "kg",
    "VSSTRESN": 91.2,
    "VSSTRESU": "kg",
    "VSBLFL": "",
    "VISITNUM": 3,
    "VISIT": "WEEK 2",
    "VISITDY": 15,
    "VSDTC": "2013-12-19",
    "VSDY": 15
  },
  {
    "STUDYID": "CDISCPILOT01",
    "DOMAIN": "VS",
    "USUBJID": "01-701-010",
    "VSSEQ": 16,
    "VSTESTCD": "HEIGHT",
    "VSTEST": "Height",
    "VSORRES": 146.9,
    "VSORRESU": "cm",
    "VSSTRESN": 146.9,
    "VSSTRESU": "cm",
    "VSBLFL": "",
    "VISITNUM": 3,
    "VISIT": "WEEK 2",
    "VISITDY": 15,
    "VSDTC": "2013-12-17",
    "VSDY": 15
  },
  {
    "STUDYID": "CDISCPILOT01",
    "DOMAIN": "VS",
    "USUBJID": "01-701-010",
    "VSSEQ": 17,
    "VSTESTCD": "TEMP",
    "VSTEST": "Temperature",
    "VSORRES": 36.4,
    "VSORRESU": "C",
    "VSSTRESN": 36.4,
    "VSSTRESU": "C",
    "VSBLFL": "",
    "VISITNUM": 3,
    "VISIT": "WEEK 2",
    "VISITDY": 15,
    "VSDTC": "2013-12-18",
    "VSDY": 15
  },
  {
    "STUDYID": "CDISCPILOT01",
    "DOMAIN": "VS",
    "USUBJID": "01-701-010",
    "VSSEQ": 18,
    "VSTESTCD": "SYSBP",
    "VSTEST": "Systolic Blood Pressure",
    "VSORRES": 121.6,
    "VSORRESU": "mmHg",
    "VSSTRESN": 121.6,
    "VSSTRESU": "mmHg",
    "VSBLFL": "",
    "VISITNUM": 3,
    "VISIT": "WEEK 2",
    "VISITDY": 15,
    "VSDTC": "2013-12-19",
    "VSDY": 15
  },
  {
    "STUDYID": "CDISCPILOT01",
    "DOMAIN": "VS",
    "USUBJID": "01-701-010",
    "VSSEQ": 19,
    "VSTESTCD": "DIABP",
    "VSTEST": "Diastolic Blood Pressure",
    "VSORRES": 77.9,
    "VSORRESU": "mmHg",
    "VSSTRESN": 77.9,
    "VSSTRESU": "mmHg",
    "VSBLFL": "",
    "VISITNUM": 3,
