<?xml version="1.0" encoding="UTF-8"?>
<ODM xmlns="http://www.cdisc.org/ns/odm/v1.3" xmlns:def="http://www.cdisc.org/ns/def/v2.0" xmlns:xlink="http://www.w3.org/1999/xlink" xmlns:xsi="http://www.w3.org/2001/XMLSchema-instance" ODMVersion="1.3.2" FileType="Snapshot" FileOID="2020-001407-17-00.define" CreationDateTime="2026-06-30T00:00:00" def:Context="Submission">
  <Study OID="2020-001407-17-00">
    <GlobalVariables>
      <StudyName>2020-001407-17-00</StudyName>
      <StudyDescription>EIDD-2801-1001-UK Single-Dose PK Study of Molnupiravir (2020-001407-17-00)</StudyDescription>
      <ProtocolName>2020-001407-17-00</ProtocolName>
    </GlobalVariables>
    <MetaDataVersion OID="MDV.1" Name="SDTMIG 3.4" def:DefineVersion="2.0.0" def:StandardName="SDTMIG" def:StandardVersion="3.4">
      <ItemGroupDef OID="IG.DM" Name="DM" Domain="DM" Repeating="No" IsReferenceData="No" SASDatasetName="DM" Purpose="Tabulation" def:Structure="SPECIAL PURPOSE" def:Class="SPECIAL PURPOSE" def:ArchiveLocationID="LF.DM">
        <Description><TranslatedText xml:lang="en">DM</TranslatedText></Description>
        <ItemRef ItemOID="IT.DM.STUDYID" Mandatory="Yes" OrderNumber="1" KeySequence="1" Role="Identifier"/>
        <ItemRef ItemOID="IT.DM.DOMAIN" Mandatory="Yes" OrderNumber="2" Role="Identifier"/>
        <ItemRef ItemOID="IT.DM.USUBJID" Mandatory="Yes" OrderNumber="3" KeySequence="1" Role="Identifier"/>
        <ItemRef ItemOID="IT.DM.SUBJID" Mandatory="Yes" OrderNumber="4" Role="Topic"/>
        <ItemRef ItemOID="IT.DM.RFSTDTC" Mandatory="No" OrderNumber="5" Role="Record Qualifier"/>
        <ItemRef ItemOID="IT.DM.RFENDTC" Mandatory="No" OrderNumber="6" Role="Record Qualifier"/>
        <ItemRef ItemOID="IT.DM.RFXSTDTC" Mandatory="No" OrderNumber="7" Role="Record Qualifier"/>
        <ItemRef ItemOID="IT.DM.RFXENDTC" Mandatory="No" OrderNumber="8" Role="Record Qualifier"/>
        <ItemRef ItemOID="IT.DM.RFICDTC" Mandatory="No" OrderNumber="9" Role="Record Qualifier"/>
        <ItemRef ItemOID="IT.DM.RFPENDTC" Mandatory="No" OrderNumber="10" Role="Record Qualifier"/>
        <ItemRef ItemOID="IT.DM.DTHDTC" Mandatory="No" OrderNumber="11" Role="Record Qualifier"/>
        <ItemRef ItemOID="IT.DM.DTHFL" Mandatory="No" OrderNumber="12" Role="Record Qualifier"/>
        <ItemRef ItemOID="IT.DM.SITEID" Mandatory="Yes" OrderNumber="13" Role="Record Qualifier"/>
        <ItemRef ItemOID="IT.DM.AGE" Mandatory="No" OrderNumber="14" Role="Record Qualifier"/>
        <ItemRef ItemOID="IT.DM.AGEU" Mandatory="No" OrderNumber="15" Role="Variable Qualifier"/>
        <ItemRef ItemOID="IT.DM.SEX" Mandatory="Yes" OrderNumber="16" Role="Record Qualifier"/>
        <ItemRef ItemOID="IT.DM.RACE" Mandatory="No" OrderNumber="17" Role="Record Qualifier"/>
        <ItemRef ItemOID="IT.DM.ETHNIC" Mandatory="No" OrderNumber="18" Role="Record Qualifier"/>
        <ItemRef ItemOID="IT.DM.ARMCD" Mandatory="No" OrderNumber="19" Role="Record Qualifier"/>
        <ItemRef ItemOID="IT.DM.ARM" Mandatory="No" OrderNumber="20" Role="Synonym Qualifier"/>
        <ItemRef ItemOID="IT.DM.ACTARMCD" Mandatory="No" OrderNumber="21" Role="Record Qualifier"/>
        <ItemRef ItemOID="IT.DM.ACTARM" Mandatory="No" OrderNumber="22" Role="Synonym Qualifier"/>
        <ItemRef ItemOID="IT.DM.ARMNRS" Mandatory="No" OrderNumber="23" Role="Record Qualifier"/>
        <ItemRef ItemOID="IT.DM.ACTARMUD" Mandatory="No" OrderNumber="24" Role="Record Qualifier"/>
        <ItemRef ItemOID="IT.DM.COUNTRY" Mandatory="Yes" OrderNumber="25" Role="Record Qualifier"/>
        <def:leaf ID="LF.DM" xlink:href="dm.xpt"><def:title>dm.xpt</def:title></def:leaf>
      </ItemGroupDef>
      <ItemGroupDef OID="IG.EG" Name="EG" Domain="EG" Repeating="Yes" IsReferenceData="No" SASDatasetName="EG" Purpose="Tabulation" def:Structure="FINDINGS" def:Class="FINDINGS" def:ArchiveLocationID="LF.EG">
        <Description><TranslatedText xml:lang="en">EG</TranslatedText></Description>
        <ItemRef ItemOID="IT.EG.STUDYID" Mandatory="Yes" OrderNumber="1" KeySequence="1" Role="Identifier"/>
        <ItemRef ItemOID="IT.EG.DOMAIN" Mandatory="Yes" OrderNumber="2" Role="Identifier"/>
        <ItemRef ItemOID="IT.EG.USUBJID" Mandatory="Yes" OrderNumber="3" KeySequence="1" Role="Identifier"/>
        <ItemRef ItemOID="IT.EG.EGSEQ" Mandatory="Yes" OrderNumber="4" Role="Identifier"/>
        <ItemRef ItemOID="IT.EG.EGTESTCD" Mandatory="Yes" OrderNumber="5" Role="Topic"/>
        <ItemRef ItemOID="IT.EG.EGTEST" Mandatory="Yes" OrderNumber="6" Role="Synonym Qualifier"/>
        <ItemRef ItemOID="IT.EG.EGPOS" Mandatory="No" OrderNumber="7" Role="Record Qualifier"/>
        <ItemRef ItemOID="IT.EG.EGORRES" Mandatory="No" OrderNumber="8" Role="Result Qualifier"/>
        <ItemRef ItemOID="IT.EG.EGORRESU" Mandatory="No" OrderNumber="9" Role="Variable Qualifier"/>
        <ItemRef ItemOID="IT.EG.EGSTRESC" Mandatory="No" OrderNumber="10" Role="Result Qualifier"/>
        <ItemRef ItemOID="IT.EG.EGSTRESN" Mandatory="No" OrderNumber="11" Role="Result Qualifier"/>
        <ItemRef ItemOID="IT.EG.EGSTRESU" Mandatory="No" OrderNumber="12" Role="Variable Qualifier"/>
        <ItemRef ItemOID="IT.EG.EGLOBXFL" Mandatory="No" OrderNumber="13" Role="Record Qualifier"/>
        <ItemRef ItemOID="IT.EG.VISITNUM" Mandatory="No" OrderNumber="14" Role="Timing"/>
        <ItemRef ItemOID="IT.EG.VISIT" Mandatory="No" OrderNumber="15" Role="Timing"/>
        <ItemRef ItemOID="IT.EG.EPOCH" Mandatory="No" OrderNumber="16" Role="Timing"/>
        <ItemRef ItemOID="IT.EG.EGDTC" Mandatory="No" OrderNumber="17" Role="Timing"/>
        <ItemRef ItemOID="IT.EG.EGDY" Mandatory="No" OrderNumber="18" Role="Timing"/>
        <def:leaf ID="LF.EG" xlink:href="eg.xpt"><def:title>eg.xpt</def:title></def:leaf>
      </ItemGroupDef>
      <ItemGroupDef OID="IG.EX" Name="EX" Domain="EX" Repeating="Yes" IsReferenceData="No" SASDatasetName="EX" Purpose="Tabulation" def:Structure="INTERVENTIONS" def:Class="INTERVENTIONS" def:ArchiveLocationID="LF.EX">
        <Description><TranslatedText xml:lang="en">EX</TranslatedText></Description>
        <ItemRef ItemOID="IT.EX.STUDYID" Mandatory="Yes" OrderNumber="1" KeySequence="1" Role="Identifier"/>
        <ItemRef ItemOID="IT.EX.DOMAIN" Mandatory="Yes" OrderNumber="2" Role="Identifier"/>
        <ItemRef ItemOID="IT.EX.USUBJID" Mandatory="Yes" OrderNumber="3" KeySequence="1" Role="Identifier"/>
        <ItemRef ItemOID="IT.EX.EXSEQ" Mandatory="Yes" OrderNumber="4" Role="Identifier"/>
        <ItemRef ItemOID="IT.EX.EXTRT" Mandatory="Yes" OrderNumber="5" Role="Topic"/>
        <ItemRef ItemOID="IT.EX.EXDOSE" Mandatory="No" OrderNumber="6" Role="Record Qualifier"/>
        <ItemRef ItemOID="IT.EX.EXDOSU" Mandatory="No" OrderNumber="7" Role="Variable Qualifier"/>
        <ItemRef ItemOID="IT.EX.EXDOSFRM" Mandatory="No" OrderNumber="8" Role="Variable Qualifier"/>
        <ItemRef ItemOID="IT.EX.EXROUTE" Mandatory="No" OrderNumber="9" Role="Variable Qualifier"/>
        <ItemRef ItemOID="IT.EX.VISITNUM" Mandatory="No" OrderNumber="10" Role="Timing"/>
        <ItemRef ItemOID="IT.EX.VISIT" Mandatory="No" OrderNumber="11" Role="Timing"/>
        <ItemRef ItemOID="IT.EX.EPOCH" Mandatory="No" OrderNumber="12" Role="Timing"/>
        <ItemRef ItemOID="IT.EX.EXSTDTC" Mandatory="No" OrderNumber="13" Role="Timing"/>
        <ItemRef ItemOID="IT.EX.EXENDTC" Mandatory="No" OrderNumber="14" Role="Timing"/>
        <ItemRef ItemOID="IT.EX.EXSTDY" Mandatory="No" OrderNumber="15" Role="Timing"/>
        <ItemRef ItemOID="IT.EX.EXOCCUR" Mandatory="No" OrderNumber="16"/>
        <def:leaf ID="LF.EX" xlink:href="ex.xpt"><def:title>ex.xpt</def:title></def:leaf>
      </ItemGroupDef>
      <ItemGroupDef OID="IG.LB" Name="LB" Domain="LB" Repeating="Yes" IsReferenceData="No" SASDatasetName="LB" Purpose="Tabulation" def:Structure="FINDINGS" def:Class="FINDINGS" def:ArchiveLocationID="LF.LB">
        <Description><TranslatedText xml:lang="en">LB</TranslatedText></Description>
        <ItemRef ItemOID="IT.LB.STUDYID" Mandatory="Yes" OrderNumber="1" KeySequence="1" Role="Identifier"/>
        <ItemRef ItemOID="IT.LB.DOMAIN" Mandatory="Yes" OrderNumber="2" Role="Identifier"/>
        <ItemRef ItemOID="IT.LB.USUBJID" Mandatory="Yes" OrderNumber="3" KeySequence="1" Role="Identifier"/>
        <ItemRef ItemOID="IT.LB.LBSEQ" Mandatory="Yes" OrderNumber="4" Role="Identifier"/>
        <ItemRef ItemOID="IT.LB.LBTESTCD" Mandatory="Yes" OrderNumber="5" Role="Topic"/>
        <ItemRef ItemOID="IT.LB.LBTEST" Mandatory="Yes" OrderNumber="6" Role="Synonym Qualifier"/>
        <ItemRef ItemOID="IT.LB.LBCAT" Mandatory="No" OrderNumber="7" Role="Grouping Qualifier"/>
        <ItemRef ItemOID="IT.LB.LBORRES" Mandatory="No" OrderNumber="8" Role="Result Qualifier"/>
        <ItemRef ItemOID="IT.LB.LBORRESU" Mandatory="No" OrderNumber="9" Role="Variable Qualifier"/>
        <ItemRef ItemOID="IT.LB.LBORNRLO" Mandatory="No" OrderNumber="10" Role="Variable Qualifier"/>
        <ItemRef ItemOID="IT.LB.LBORNRHI" Mandatory="No" OrderNumber="11" Role="Variable Qualifier"/>
        <ItemRef ItemOID="IT.LB.LBSTRESC" Mandatory="No" OrderNumber="12" Role="Result Qualifier"/>
        <ItemRef ItemOID="IT.LB.LBSTRESN" Mandatory="No" OrderNumber="13" Role="Result Qualifier"/>
        <ItemRef ItemOID="IT.LB.LBSTRESU" Mandatory="No" OrderNumber="14" Role="Variable Qualifier"/>
        <ItemRef ItemOID="IT.LB.LBSTNRLO" Mandatory="No" OrderNumber="15" Role="Variable Qualifier"/>
        <ItemRef ItemOID="IT.LB.LBSTNRHI" Mandatory="No" OrderNumber="16" Role="Variable Qualifier"/>
        <ItemRef ItemOID="IT.LB.LBNRIND" Mandatory="No" OrderNumber="17" Role="Variable Qualifier"/>
        <ItemRef ItemOID="IT.LB.LBSPEC" Mandatory="No" OrderNumber="18" Role="Record Qualifier"/>
        <ItemRef ItemOID="IT.LB.LBLOBXFL" Mandatory="No" OrderNumber="19" Role="Record Qualifier"/>
        <ItemRef ItemOID="IT.LB.VISITNUM" Mandatory="No" OrderNumber="20" Role="Timing"/>
        <ItemRef ItemOID="IT.LB.VISIT" Mandatory="No" OrderNumber="21" Role="Timing"/>
        <ItemRef ItemOID="IT.LB.EPOCH" Mandatory="No" OrderNumber="22" Role="Timing"/>
        <ItemRef ItemOID="IT.LB.LBDTC" Mandatory="No" OrderNumber="23" Role="Timing"/>
        <ItemRef ItemOID="IT.LB.LBDY" Mandatory="No" OrderNumber="24" Role="Timing"/>
        <ItemRef ItemOID="IT.LB.LBTPT" Mandatory="No" OrderNumber="25" Role="Timing"/>
        <def:leaf ID="LF.LB" xlink:href="lb.xpt"><def:title>lb.xpt</def:title></def:leaf>
      </ItemGroupDef>
      <ItemGroupDef OID="IG.ML" Name="ML" Domain="ML" Repeating="Yes" IsReferenceData="No" SASDatasetName="ML" Purpose="Tabulation" def:Structure="FINDINGS" def:Class="FINDINGS" def:ArchiveLocationID="LF.ML">
        <Description><TranslatedText xml:lang="en">ML</TranslatedText></Description>
        <ItemRef ItemOID="IT.ML.STUDYID" Mandatory="Yes" OrderNumber="1" KeySequence="1" Role="Identifier"/>
        <ItemRef ItemOID="IT.ML.DOMAIN" Mandatory="Yes" OrderNumber="2" Role="Identifier"/>
        <ItemRef ItemOID="IT.ML.USUBJID" Mandatory="Yes" OrderNumber="3" KeySequence="1" Role="Identifier"/>
        <ItemRef ItemOID="IT.ML.MLSEQ" Mandatory="Yes" OrderNumber="4" Role="Identifier"/>
        <ItemRef ItemOID="IT.ML.MLTRT" Mandatory="Yes" OrderNumber="5" Role="Topic"/>
        <ItemRef ItemOID="IT.ML.MLPRESP" Mandatory="No" OrderNumber="6" Role="Variable Qualifier"/>
        <ItemRef ItemOID="IT.ML.MLOCCUR" Mandatory="No" OrderNumber="7" Role="Record Qualifier"/>
        <ItemRef ItemOID="IT.ML.VISITNUM" Mandatory="No" OrderNumber="8" Role="Timing"/>
        <ItemRef ItemOID="IT.ML.VISIT" Mandatory="No" OrderNumber="9" Role="Timing"/>
        <ItemRef ItemOID="IT.ML.EPOCH" Mandatory="No" OrderNumber="10" Role="Timing"/>
        <ItemRef ItemOID="IT.ML.MLSTDTC" Mandatory="No" OrderNumber="11" Role="Timing"/>
        <ItemRef ItemOID="IT.ML.MLENDTC" Mandatory="No" OrderNumber="12" Role="Timing"/>
        <ItemRef ItemOID="IT.ML.MLSTDY" Mandatory="No" OrderNumber="13" Role="Timing"/>
        <def:leaf ID="LF.ML" xlink:href="ml.xpt"><def:title>ml.xpt</def:title></def:leaf>
      </ItemGroupDef>
      <ItemGroupDef OID="IG.PC" Name="PC" Domain="PC" Repeating="Yes" IsReferenceData="No" SASDatasetName="PC" Purpose="Tabulation" def:Structure="FINDINGS" def:Class="FINDINGS" def:ArchiveLocationID="LF.PC">
        <Description><TranslatedText xml:lang="en">PC</TranslatedText></Description>
        <ItemRef ItemOID="IT.PC.STUDYID" Mandatory="Yes" OrderNumber="1" KeySequence="1" Role="Identifier"/>
        <ItemRef ItemOID="IT.PC.DOMAIN" Mandatory="Yes" OrderNumber="2" Role="Identifier"/>
        <ItemRef ItemOID="IT.PC.USUBJID" Mandatory="Yes" OrderNumber="3" KeySequence="1" Role="Identifier"/>
        <ItemRef ItemOID="IT.PC.PCSEQ" Mandatory="Yes" OrderNumber="4" Role="Identifier"/>
        <ItemRef ItemOID="IT.PC.PCTESTCD" Mandatory="Yes" OrderNumber="5" Role="Topic"/>
        <ItemRef ItemOID="IT.PC.PCTEST" Mandatory="Yes" OrderNumber="6" Role="Synonym Qualifier"/>
        <ItemRef ItemOID="IT.PC.PCORRES" Mandatory="No" OrderNumber="7" Role="Result Qualifier"/>
        <ItemRef ItemOID="IT.PC.PCORRESU" Mandatory="No" OrderNumber="8" Role="Variable Qualifier"/>
        <ItemRef ItemOID="IT.PC.PCSTRESC" Mandatory="No" OrderNumber="9" Role="Result Qualifier"/>
        <ItemRef ItemOID="IT.PC.PCSTRESN" Mandatory="No" OrderNumber="10" Role="Result Qualifier"/>
        <ItemRef ItemOID="IT.PC.PCSTRESU" Mandatory="No" OrderNumber="11" Role="Variable Qualifier"/>
        <ItemRef ItemOID="IT.PC.PCNAM" Mandatory="No" OrderNumber="12" Role="Record Qualifier"/>
        <ItemRef ItemOID="IT.PC.PCSPEC" Mandatory="No" OrderNumber="13" Role="Record Qualifier"/>
        <ItemRef ItemOID="IT.PC.PCLLOQ" Mandatory="No" OrderNumber="14" Role="Variable Qualifier"/>
        <ItemRef ItemOID="IT.PC.VISITNUM" Mandatory="No" OrderNumber="15" Role="Timing"/>
        <ItemRef ItemOID="IT.PC.VISIT" Mandatory="No" OrderNumber="16" Role="Timing"/>
        <ItemRef ItemOID="IT.PC.EPOCH" Mandatory="No" OrderNumber="17" Role="Timing"/>
        <ItemRef ItemOID="IT.PC.PCDTC" Mandatory="No" OrderNumber="18" Role="Timing"/>
        <ItemRef ItemOID="IT.PC.PCDY" Mandatory="No" OrderNumber="19" Role="Timing"/>
        <ItemRef ItemOID="IT.PC.PCTPT" Mandatory="No" OrderNumber="20" Role="Timing"/>
        <def:leaf ID="LF.PC" xlink:href="pc.xpt"><def:title>pc.xpt</def:title></def:leaf>
      </ItemGroupDef>
      <ItemGroupDef OID="IG.PE" Name="PE" Domain="PE" Repeating="Yes" IsReferenceData="No" SASDatasetName="PE" Purpose="Tabulation" def:Structure="FINDINGS" def:Class="FINDINGS" def:ArchiveLocationID="LF.PE">
        <Description><TranslatedText xml:lang="en">PE</TranslatedText></Description>
        <ItemRef ItemOID="IT.PE.STUDYID" Mandatory="Yes" OrderNumber="1" KeySequence="1" Role="Identifier"/>
        <ItemRef ItemOID="IT.PE.DOMAIN" Mandatory="Yes" OrderNumber="2" Role="Identifier"/>
        <ItemRef ItemOID="IT.PE.USUBJID" Mandatory="Yes" OrderNumber="3" KeySequence="1" Role="Identifier"/>
        <ItemRef ItemOID="IT.PE.PESEQ" Mandatory="Yes" OrderNumber="4" Role="Identifier"/>
        <ItemRef ItemOID="IT.PE.PETESTCD" Mandatory="Yes" OrderNumber="5" Role="Topic"/>
        <ItemRef ItemOID="IT.PE.PETEST" Mandatory="Yes" OrderNumber="6" Role="Synonym Qualifier"/>
        <ItemRef ItemOID="IT.PE.PEORRES" Mandatory="No" OrderNumber="7" Role="Result Qualifier"/>
        <ItemRef ItemOID="IT.PE.PESTRESC" Mandatory="No" OrderNumber="8" Role="Result Qualifier"/>
        <ItemRef ItemOID="IT.PE.PESTAT" Mandatory="No" OrderNumber="9" Role="Record Qualifier"/>
        <ItemRef ItemOID="IT.PE.PEREASND" Mandatory="No" OrderNumber="10" Role="Record Qualifier"/>
        <ItemRef ItemOID="IT.PE.VISITNUM" Mandatory="No" OrderNumber="11" Role="Timing"/>
        <ItemRef ItemOID="IT.PE.VISIT" Mandatory="No" OrderNumber="12" Role="Timing"/>
        <ItemRef ItemOID="IT.PE.EPOCH" Mandatory="No" OrderNumber="13" Role="Timing"/>
        <ItemRef ItemOID="IT.PE.PEDTC" Mandatory="No" OrderNumber="14" Role="Timing"/>
        <ItemRef ItemOID="IT.PE.PEDY" Mandatory="No" OrderNumber="15" Role="Timing"/>
        <def:leaf ID="LF.PE" xlink:href="pe.xpt"><def:title>pe.xpt</def:title></def:leaf>
      </ItemGroupDef>
      <ItemGroupDef OID="IG.SV" Name="SV" Domain="SV" Repeating="Yes" IsReferenceData="No" SASDatasetName="SV" Purpose="Tabulation" def:Structure="FINDINGS" def:Class="FINDINGS" def:ArchiveLocationID="LF.SV">
        <Description><TranslatedText xml:lang="en">SV</TranslatedText></Description>
        <ItemRef ItemOID="IT.SV.STUDYID" Mandatory="Yes" OrderNumber="1" KeySequence="1" Role="Identifier"/>
        <ItemRef ItemOID="IT.SV.DOMAIN" Mandatory="Yes" OrderNumber="2" Role="Identifier"/>
        <ItemRef ItemOID="IT.SV.USUBJID" Mandatory="Yes" OrderNumber="3" KeySequence="1" Role="Identifier"/>
        <ItemRef ItemOID="IT.SV.VISITNUM" Mandatory="Yes" OrderNumber="4" Role="Topic"/>
        <ItemRef ItemOID="IT.SV.VISIT" Mandatory="No" OrderNumber="5" Role="Synonym Qualifier"/>
        <ItemRef ItemOID="IT.SV.SVPRESP" Mandatory="No" OrderNumber="6" Role="Variable Qualifier"/>
        <ItemRef ItemOID="IT.SV.SVOCCUR" Mandatory="No" OrderNumber="7" Role="Record Qualifier"/>
        <ItemRef ItemOID="IT.SV.EPOCH" Mandatory="No" OrderNumber="8" Role="Timing"/>
        <ItemRef ItemOID="IT.SV.SVSTDTC" Mandatory="No" OrderNumber="9" Role="Timing"/>
        <ItemRef ItemOID="IT.SV.SVENDTC" Mandatory="No" OrderNumber="10" Role="Timing"/>
        <ItemRef ItemOID="IT.SV.SVSTDY" Mandatory="No" OrderNumber="11" Role="Timing"/>
        <ItemRef ItemOID="IT.SV.SVSEQ" Mandatory="No" OrderNumber="12" Role="Identifier"/>
        <def:leaf ID="LF.SV" xlink:href="sv.xpt"><def:title>sv.xpt</def:title></def:leaf>
      </ItemGroupDef>
      <ItemGroupDef OID="IG.VS" Name="VS" Domain="VS" Repeating="Yes" IsReferenceData="No" SASDatasetName="VS" Purpose="Tabulation" def:Structure="FINDINGS" def:Class="FINDINGS" def:ArchiveLocationID="LF.VS">
        <Description><TranslatedText xml:lang="en">VS</TranslatedText></Description>
        <ItemRef ItemOID="IT.VS.STUDYID" Mandatory="Yes" OrderNumber="1" KeySequence="1" Role="Identifier"/>
        <ItemRef ItemOID="IT.VS.DOMAIN" Mandatory="Yes" OrderNumber="2" Role="Identifier"/>
        <ItemRef ItemOID="IT.VS.USUBJID" Mandatory="Yes" OrderNumber="3" KeySequence="1" Role="Identifier"/>
        <ItemRef ItemOID="IT.VS.VSSEQ" Mandatory="Yes" OrderNumber="4" Role="Identifier"/>
        <ItemRef ItemOID="IT.VS.VSTESTCD" Mandatory="Yes" OrderNumber="5" Role="Topic"/>
        <ItemRef ItemOID="IT.VS.VSTEST" Mandatory="Yes" OrderNumber="6" Role="Synonym Qualifier"/>
        <ItemRef ItemOID="IT.VS.VSPOS" Mandatory="No" OrderNumber="7" Role="Record Qualifier"/>
        <ItemRef ItemOID="IT.VS.VSORRES" Mandatory="No" OrderNumber="8" Role="Result Qualifier"/>
        <ItemRef ItemOID="IT.VS.VSORRESU" Mandatory="No" OrderNumber="9" Role="Variable Qualifier"/>
        <ItemRef ItemOID="IT.VS.VSSTRESC" Mandatory="No" OrderNumber="10" Role="Result Qualifier"/>
        <ItemRef ItemOID="IT.VS.VSSTRESN" Mandatory="No" OrderNumber="11" Role="Result Qualifier"/>
        <ItemRef ItemOID="IT.VS.VSSTRESU" Mandatory="No" OrderNumber="12" Role="Variable Qualifier"/>
        <ItemRef ItemOID="IT.VS.VSLOC" Mandatory="No" OrderNumber="13" Role="Record Qualifier"/>
        <ItemRef ItemOID="IT.VS.VSLOBXFL" Mandatory="No" OrderNumber="14" Role="Record Qualifier"/>
        <ItemRef ItemOID="IT.VS.VISITNUM" Mandatory="No" OrderNumber="15" Role="Timing"/>
        <ItemRef ItemOID="IT.VS.VISIT" Mandatory="No" OrderNumber="16" Role="Timing"/>
        <ItemRef ItemOID="IT.VS.EPOCH" Mandatory="No" OrderNumber="17" Role="Timing"/>
        <ItemRef ItemOID="IT.VS.VSDTC" Mandatory="No" OrderNumber="18" Role="Timing"/>
        <ItemRef ItemOID="IT.VS.VSDY" Mandatory="No" OrderNumber="19" Role="Timing"/>
        <ItemRef ItemOID="IT.VS.VSTPT" Mandatory="No" OrderNumber="20" Role="Timing"/>
        <def:leaf ID="LF.VS" xlink:href="vs.xpt"><def:title>vs.xpt</def:title></def:leaf>
      </ItemGroupDef>
      <ItemDef OID="IT.DM.STUDYID" Name="STUDYID" DataType="text" Length="17" SASFieldName="STUDYID">
        <Description><TranslatedText xml:lang="en">Study Identifier</TranslatedText></Description>
      </ItemDef>
      <ItemDef OID="IT.DM.DOMAIN" Name="DOMAIN" DataType="text" Length="2" SASFieldName="DOMAIN">
        <Description><TranslatedText xml:lang="en">Domain Abbreviation</TranslatedText></Description>
      </ItemDef>
      <ItemDef OID="IT.DM.USUBJID" Name="USUBJID" DataType="text" Length="22" SASFieldName="USUBJID">
        <Description><TranslatedText xml:lang="en">Unique Subject Identifier</TranslatedText></Description>
      </ItemDef>
      <ItemDef OID="IT.DM.SUBJID" Name="SUBJID" DataType="text" Length="3" SASFieldName="SUBJID">
        <Description><TranslatedText xml:lang="en">Subject Identifier for the Study</TranslatedText></Description>
      </ItemDef>
      <ItemDef OID="IT.DM.RFSTDTC" Name="RFSTDTC" DataType="text" Length="16" SASFieldName="RFSTDTC">
        <Description><TranslatedText xml:lang="en">Subject Reference Start Date/Time</TranslatedText></Description>
      </ItemDef>
      <ItemDef OID="IT.DM.RFENDTC" Name="RFENDTC" DataType="text" Length="10" SASFieldName="RFENDTC">
        <Description><TranslatedText xml:lang="en">Subject Reference End Date/Time</TranslatedText></Description>
      </ItemDef>
      <ItemDef OID="IT.DM.RFXSTDTC" Name="RFXSTDTC" DataType="text" Length="16" SASFieldName="RFXSTDTC">
        <Description><TranslatedText xml:lang="en">Date/Time of First Study Treatment</TranslatedText></Description>
      </ItemDef>
      <ItemDef OID="IT.DM.RFXENDTC" Name="RFXENDTC" DataType="text" Length="16" SASFieldName="RFXENDTC">
        <Description><TranslatedText xml:lang="en">Date/Time of Last Study Treatment</TranslatedText></Description>
      </ItemDef>
      <ItemDef OID="IT.DM.RFICDTC" Name="RFICDTC" DataType="text" Length="1" SASFieldName="RFICDTC">
        <Description><TranslatedText xml:lang="en">Date/Time of Informed Consent</TranslatedText></Description>
      </ItemDef>
      <ItemDef OID="IT.DM.RFPENDTC" Name="RFPENDTC" DataType="text" Length="1" SASFieldName="RFPENDTC">
        <Description><TranslatedText xml:lang="en">Date/Time of End of Participation</TranslatedText></Description>
      </ItemDef>
      <ItemDef OID="IT.DM.DTHDTC" Name="DTHDTC" DataType="text" Length="1" SASFieldName="DTHDTC">
        <Description><TranslatedText xml:lang="en">Date/Time of Death</TranslatedText></Description>
      </ItemDef>
      <ItemDef OID="IT.DM.DTHFL" Name="DTHFL" DataType="text" Length="1" SASFieldName="DTHFL">
        <Description><TranslatedText xml:lang="en">Subject Death Flag</TranslatedText></Description>
      </ItemDef>
      <ItemDef OID="IT.DM.SITEID" Name="SITEID" DataType="text" Length="2" SASFieldName="SITEID">
        <Description><TranslatedText xml:lang="en">Study Site Identifier</TranslatedText></Description>
      </ItemDef>
      <ItemDef OID="IT.DM.AGE" Name="AGE" DataType="integer" Length="8" SASFieldName="AGE">
        <Description><TranslatedText xml:lang="en">Age</TranslatedText></Description>
      </ItemDef>
      <ItemDef OID="IT.DM.AGEU" Name="AGEU" DataType="text" Length="5" SASFieldName="AGEU">
        <Description><TranslatedText xml:lang="en">Age Units</TranslatedText></Description>
      </ItemDef>
      <ItemDef OID="IT.DM.SEX" Name="SEX" DataType="text" Length="1" SASFieldName="SEX">
        <Description><TranslatedText xml:lang="en">Sex</TranslatedText></Description>
      </ItemDef>
      <ItemDef OID="IT.DM.RACE" Name="RACE" DataType="text" Length="32" SASFieldName="RACE">
        <Description><TranslatedText xml:lang="en">Race</TranslatedText></Description>
      </ItemDef>
      <ItemDef OID="IT.DM.ETHNIC" Name="ETHNIC" DataType="text" Length="22" SASFieldName="ETHNIC">
        <Description><TranslatedText xml:lang="en">Ethnicity</TranslatedText></Description>
      </ItemDef>
      <ItemDef OID="IT.DM.ARMCD" Name="ARMCD" DataType="text" Length="8" SASFieldName="ARMCD">
        <Description><TranslatedText xml:lang="en">Planned Arm Code</TranslatedText></Description>
      </ItemDef>
      <ItemDef OID="IT.DM.ARM" Name="ARM" DataType="text" Length="24" SASFieldName="ARM">
        <Description><TranslatedText xml:lang="en">Description of Planned Arm</TranslatedText></Description>
      </ItemDef>
      <ItemDef OID="IT.DM.ACTARMCD" Name="ACTARMCD" DataType="text" Length="8" SASFieldName="ACTARMCD">
        <Description><TranslatedText xml:lang="en">Actual Arm Code</TranslatedText></Description>
      </ItemDef>
      <ItemDef OID="IT.DM.ACTARM" Name="ACTARM" DataType="text" Length="24" SASFieldName="ACTARM">
        <Description><TranslatedText xml:lang="en">Description of Actual Arm</TranslatedText></Description>
      </ItemDef>
      <ItemDef OID="IT.DM.ARMNRS" Name="ARMNRS" DataType="text" Length="1" SASFieldName="ARMNRS">
        <Description><TranslatedText xml:lang="en">Reason Arm and/or Actual Arm is Null</TranslatedText></Description>
      </ItemDef>
      <ItemDef OID="IT.DM.ACTARMUD" Name="ACTARMUD" DataType="text" Length="1" SASFieldName="ACTARMUD">
        <Description><TranslatedText xml:lang="en">Description of Unplanned Actual Arm</TranslatedText></Description>
      </ItemDef>
      <ItemDef OID="IT.DM.COUNTRY" Name="COUNTRY" DataType="text" Length="3" SASFieldName="COUNTRY">
        <Description><TranslatedText xml:lang="en">Country</TranslatedText></Description>
      </ItemDef>
      <ItemDef OID="IT.EG.STUDYID" Name="STUDYID" DataType="text" Length="17" SASFieldName="STUDYID">
        <Description><TranslatedText xml:lang="en">Study Identifier</TranslatedText></Description>
      </ItemDef>
      <ItemDef OID="IT.EG.DOMAIN" Name="DOMAIN" DataType="text" Length="2" SASFieldName="DOMAIN">
        <Description><TranslatedText xml:lang="en">Domain Abbreviation</TranslatedText></Description>
      </ItemDef>
      <ItemDef OID="IT.EG.USUBJID" Name="USUBJID" DataType="text" Length="22" SASFieldName="USUBJID">
        <Description><TranslatedText xml:lang="en">Unique Subject Identifier</TranslatedText></Description>
      </ItemDef>
      <ItemDef OID="IT.EG.EGSEQ" Name="EGSEQ" DataType="integer" Length="8" SASFieldName="EGSEQ">
        <Description><TranslatedText xml:lang="en">Sequence Number</TranslatedText></Description>
      </ItemDef>
      <ItemDef OID="IT.EG.EGTESTCD" Name="EGTESTCD" DataType="text" Length="4" SASFieldName="EGTESTCD">
        <Description><TranslatedText xml:lang="en">ECG Test or Examination Short Name</TranslatedText></Description>
      </ItemDef>
      <ItemDef OID="IT.EG.EGTEST" Name="EGTEST" DataType="text" Length="14" SASFieldName="EGTEST">
        <Description><TranslatedText xml:lang="en">ECG Test or Examination Name</TranslatedText></Description>
      </ItemDef>
      <ItemDef OID="IT.EG.EGPOS" Name="EGPOS" DataType="text" Length="14" SASFieldName="EGPOS">
        <Description><TranslatedText xml:lang="en">ECG Position of Subject</TranslatedText></Description>
      </ItemDef>
      <ItemDef OID="IT.EG.EGORRES" Name="EGORRES" DataType="text" Length="36" SASFieldName="EGORRES">
        <Description><TranslatedText xml:lang="en">Result or Finding in Original Units</TranslatedText></Description>
      </ItemDef>
      <ItemDef OID="IT.EG.EGORRESU" Name="EGORRESU" DataType="text" Length="9" SASFieldName="EGORRESU">
        <Description><TranslatedText xml:lang="en">Original Units</TranslatedText></Description>
      </ItemDef>
      <ItemDef OID="IT.EG.EGSTRESC" Name="EGSTRESC" DataType="text" Length="36" SASFieldName="EGSTRESC">
        <Description><TranslatedText xml:lang="en">Character Result/Finding in Std Format</TranslatedText></Description>
      </ItemDef>
      <ItemDef OID="IT.EG.EGSTRESN" Name="EGSTRESN" DataType="integer" Length="8" SASFieldName="EGSTRESN">
        <Description><TranslatedText xml:lang="en">Numeric Result/Finding in Standard Units</TranslatedText></Description>
      </ItemDef>
      <ItemDef OID="IT.EG.EGSTRESU" Name="EGSTRESU" DataType="text" Length="9" SASFieldName="EGSTRESU">
        <Description><TranslatedText xml:lang="en">Standard Units</TranslatedText></Description>
      </ItemDef>
      <ItemDef OID="IT.EG.EGLOBXFL" Name="EGLOBXFL" DataType="text" Length="1" SASFieldName="EGLOBXFL">
        <Description><TranslatedText xml:lang="en">Last Observation Before Exposure Flag</TranslatedText></Description>
      </ItemDef>
      <ItemDef OID="IT.EG.VISITNUM" Name="VISITNUM" DataType="integer" Length="8" SASFieldName="VISITNUM">
        <Description><TranslatedText xml:lang="en">Visit Number</TranslatedText></Description>
      </ItemDef>
      <ItemDef OID="IT.EG.VISIT" Name="VISIT" DataType="text" Length="10" SASFieldName="VISIT">
        <Description><TranslatedText xml:lang="en">Visit Name</TranslatedText></Description>
      </ItemDef>
      <ItemDef OID="IT.EG.EPOCH" Name="EPOCH" DataType="text" Length="9" SASFieldName="EPOCH">
        <Description><TranslatedText xml:lang="en">Epoch</TranslatedText></Description>
      </ItemDef>
      <ItemDef OID="IT.EG.EGDTC" Name="EGDTC" DataType="text" Length="16" SASFieldName="EGDTC">
        <Description><TranslatedText xml:lang="en">Date/Time of ECG</TranslatedText></Description>
      </ItemDef>
      <ItemDef OID="IT.EG.EGDY" Name="EGDY" DataType="integer" Length="8" SASFieldName="EGDY">
        <Description><TranslatedText xml:lang="en">Study Day of ECG</TranslatedText></Description>
      </ItemDef>
      <ItemDef OID="IT.EX.STUDYID" Name="STUDYID" DataType="text" Length="17" SASFieldName="STUDYID">
        <Description><TranslatedText xml:lang="en">Study Identifier</TranslatedText></Description>
      </ItemDef>
      <ItemDef OID="IT.EX.DOMAIN" Name="DOMAIN" DataType="text" Length="2" SASFieldName="DOMAIN">
        <Description><TranslatedText xml:lang="en">Domain Abbreviation</TranslatedText></Description>
      </ItemDef>
      <ItemDef OID="IT.EX.USUBJID" Name="USUBJID" DataType="text" Length="22" SASFieldName="USUBJID">
        <Description><TranslatedText xml:lang="en">Unique Subject Identifier</TranslatedText></Description>
      </ItemDef>
      <ItemDef OID="IT.EX.EXSEQ" Name="EXSEQ" DataType="integer" Length="8" SASFieldName="EXSEQ">
        <Description><TranslatedText xml:lang="en">Sequence Number</TranslatedText></Description>
      </ItemDef>
      <ItemDef OID="IT.EX.EXTRT" Name="EXTRT" DataType="text" Length="9" SASFieldName="EXTRT">
        <Description><TranslatedText xml:lang="en">Name of Treatment</TranslatedText></Description>
      </ItemDef>
      <ItemDef OID="IT.EX.EXDOSE" Name="EXDOSE" DataType="integer" Length="8" SASFieldName="EXDOSE">
        <Description><TranslatedText xml:lang="en">Dose</TranslatedText></Description>
      </ItemDef>
      <ItemDef OID="IT.EX.EXDOSU" Name="EXDOSU" DataType="text" Length="2" SASFieldName="EXDOSU">
        <Description><TranslatedText xml:lang="en">Dose Units</TranslatedText></Description>
      </ItemDef>
      <ItemDef OID="IT.EX.EXDOSFRM" Name="EXDOSFRM" DataType="text" Length="8" SASFieldName="EXDOSFRM">
        <Description><TranslatedText xml:lang="en">Dose Form</TranslatedText></Description>
      </ItemDef>
      <ItemDef OID="IT.EX.EXROUTE" Name="EXROUTE" DataType="text" Length="4" SASFieldName="EXROUTE">
        <Description><TranslatedText xml:lang="en">Route of Administration</TranslatedText></Description>
      </ItemDef>
      <ItemDef OID="IT.EX.VISITNUM" Name="VISITNUM" DataType="integer" Length="8" SASFieldName="VISITNUM">
        <Description><TranslatedText xml:lang="en">VISITNUM</TranslatedText></Description>
      </ItemDef>
      <ItemDef OID="IT.EX.VISIT" Name="VISIT" DataType="text" Length="5" SASFieldName="VISIT">
        <Description><TranslatedText xml:lang="en">VISIT</TranslatedText></Description>
      </ItemDef>
      <ItemDef OID="IT.EX.EPOCH" Name="EPOCH" DataType="text" Length="9" SASFieldName="EPOCH">
        <Description><TranslatedText xml:lang="en">Epoch</TranslatedText></Description>
      </ItemDef>
      <ItemDef OID="IT.EX.EXSTDTC" Name="EXSTDTC" DataType="text" Length="16" SASFieldName="EXSTDTC">
        <Description><TranslatedText xml:lang="en">Start Date/Time of Treatment</TranslatedText></Description>
      </ItemDef>
      <ItemDef OID="IT.EX.EXENDTC" Name="EXENDTC" DataType="text" Length="16" SASFieldName="EXENDTC">
        <Description><TranslatedText xml:lang="en">End Date/Time of Treatment</TranslatedText></Description>
      </ItemDef>
      <ItemDef OID="IT.EX.EXSTDY" Name="EXSTDY" DataType="integer" Length="8" SASFieldName="EXSTDY">
        <Description><TranslatedText xml:lang="en">Study Day of Start of Treatment</TranslatedText></Description>
      </ItemDef>
      <ItemDef OID="IT.EX.EXOCCUR" Name="EXOCCUR" DataType="text" Length="1" SASFieldName="EXOCCUR">
        <Description><TranslatedText xml:lang="en">EXOCCUR</TranslatedText></Description>
      </ItemDef>
      <ItemDef OID="IT.LB.STUDYID" Name="STUDYID" DataType="text" Length="17" SASFieldName="STUDYID">
        <Description><TranslatedText xml:lang="en">Study Identifier</TranslatedText></Description>
      </ItemDef>
      <ItemDef OID="IT.LB.DOMAIN" Name="DOMAIN" DataType="text" Length="2" SASFieldName="DOMAIN">
        <Description><TranslatedText xml:lang="en">Domain Abbreviation</TranslatedText></Description>
      </ItemDef>
      <ItemDef OID="IT.LB.USUBJID" Name="USUBJID" DataType="text" Length="22" SASFieldName="USUBJID">
        <Description><TranslatedText xml:lang="en">Unique Subject Identifier</TranslatedText></Description>
      </ItemDef>
      <ItemDef OID="IT.LB.LBSEQ" Name="LBSEQ" DataType="integer" Length="8" SASFieldName="LBSEQ">
        <Description><TranslatedText xml:lang="en">Sequence Number</TranslatedText></Description>
      </ItemDef>
      <ItemDef OID="IT.LB.LBTESTCD" Name="LBTESTCD" DataType="text" Length="8" SASFieldName="LBTESTCD">
        <Description><TranslatedText xml:lang="en">Lab Test or Examination Short Name</TranslatedText></Description>
      </ItemDef>
      <ItemDef OID="IT.LB.LBTEST" Name="LBTEST" DataType="text" Length="39" SASFieldName="LBTEST">
        <Description><TranslatedText xml:lang="en">Lab Test or Examination Name</TranslatedText></Description>
      </ItemDef>
      <ItemDef OID="IT.LB.LBCAT" Name="LBCAT" DataType="text" Length="17" SASFieldName="LBCAT">
        <Description><TranslatedText xml:lang="en">Category for Lab Test</TranslatedText></Description>
      </ItemDef>
      <ItemDef OID="IT.LB.LBORRES" Name="LBORRES" DataType="text" Length="15" SASFieldName="LBORRES">
        <Description><TranslatedText xml:lang="en">Result or Finding in Original Units</TranslatedText></Description>
      </ItemDef>
      <ItemDef OID="IT.LB.LBORRESU" Name="LBORRESU" DataType="text" Length="1" SASFieldName="LBORRESU">
        <Description><TranslatedText xml:lang="en">Original Units</TranslatedText></Description>
      </ItemDef>
      <ItemDef OID="IT.LB.LBORNRLO" Name="LBORNRLO" DataType="text" Length="1" SASFieldName="LBORNRLO">
        <Description><TranslatedText xml:lang="en">Reference Range Lower Limit in Orig Unit</TranslatedText></Description>
      </ItemDef>
      <ItemDef OID="IT.LB.LBORNRHI" Name="LBORNRHI" DataType="text" Length="1" SASFieldName="LBORNRHI">
        <Description><TranslatedText xml:lang="en">Reference Range Upper Limit in Orig Unit</TranslatedText></Description>
      </ItemDef>
      <ItemDef OID="IT.LB.LBSTRESC" Name="LBSTRESC" DataType="text" Length="15" SASFieldName="LBSTRESC">
        <Description><TranslatedText xml:lang="en">Character Result/Finding in Std Format</TranslatedText></Description>
      </ItemDef>
      <ItemDef OID="IT.LB.LBSTRESN" Name="LBSTRESN" DataType="float" Length="8" SASFieldName="LBSTRESN">
        <Description><TranslatedText xml:lang="en">Numeric Result/Finding in Standard Units</TranslatedText></Description>
      </ItemDef>
      <ItemDef OID="IT.LB.LBSTRESU" Name="LBSTRESU" DataType="text" Length="1" SASFieldName="LBSTRESU">
        <Description><TranslatedText xml:lang="en">Standard Units</TranslatedText></Description>
      </ItemDef>
      <ItemDef OID="IT.LB.LBSTNRLO" Name="LBSTNRLO" DataType="float" Length="8" SASFieldName="LBSTNRLO">
        <Description><TranslatedText xml:lang="en">Reference Range Lower Limit-Std Units</TranslatedText></Description>
      </ItemDef>
      <ItemDef OID="IT.LB.LBSTNRHI" Name="LBSTNRHI" DataType="float" Length="8" SASFieldName="LBSTNRHI">
        <Description><TranslatedText xml:lang="en">Reference Range Upper Limit-Std Units</TranslatedText></Description>
      </ItemDef>
      <ItemDef OID="IT.LB.LBNRIND" Name="LBNRIND" DataType="text" Length="1" SASFieldName="LBNRIND">
        <Description><TranslatedText xml:lang="en">Reference Range Indicator</TranslatedText></Description>
      </ItemDef>
      <ItemDef OID="IT.LB.LBSPEC" Name="LBSPEC" DataType="text" Length="6" SASFieldName="LBSPEC">
        <Description><TranslatedText xml:lang="en">Specimen Type</TranslatedText></Description>
      </ItemDef>
      <ItemDef OID="IT.LB.LBLOBXFL" Name="LBLOBXFL" DataType="text" Length="1" SASFieldName="LBLOBXFL">
        <Description><TranslatedText xml:lang="en">Last Observation Before Exposure Flag</TranslatedText></Description>
      </ItemDef>
      <ItemDef OID="IT.LB.VISITNUM" Name="VISITNUM" DataType="integer" Length="8" SASFieldName="VISITNUM">
        <Description><TranslatedText xml:lang="en">Visit Number</TranslatedText></Description>
      </ItemDef>
      <ItemDef OID="IT.LB.VISIT" Name="VISIT" DataType="text" Length="10" SASFieldName="VISIT">
        <Description><TranslatedText xml:lang="en">Visit Name</TranslatedText></Description>
      </ItemDef>
      <ItemDef OID="IT.LB.EPOCH" Name="EPOCH" DataType="text" Length="9" SASFieldName="EPOCH">
        <Description><TranslatedText xml:lang="en">Epoch</TranslatedText></Description>
      </ItemDef>
      <ItemDef OID="IT.LB.LBDTC" Name="LBDTC" DataType="text" Length="16" SASFieldName="LBDTC">
        <Description><TranslatedText xml:lang="en">Date/Time of Specimen Collection</TranslatedText></Description>
      </ItemDef>
      <ItemDef OID="IT.LB.LBDY" Name="LBDY" DataType="integer" Length="8" SASFieldName="LBDY">
        <Description><TranslatedText xml:lang="en">Study Day of Specimen Collection</TranslatedText></Description>
      </ItemDef>
      <ItemDef OID="IT.LB.LBTPT" Name="LBTPT" DataType="text" Length="15" SASFieldName="LBTPT">
        <Description><TranslatedText xml:lang="en">Planned Time Point Name</TranslatedText></Description>
      </ItemDef>
      <ItemDef OID="IT.ML.STUDYID" Name="STUDYID" DataType="text" Length="17" SASFieldName="STUDYID">
        <Description><TranslatedText xml:lang="en">Study Identifier</TranslatedText></Description>
      </ItemDef>
      <ItemDef OID="IT.ML.DOMAIN" Name="DOMAIN" DataType="text" Length="2" SASFieldName="DOMAIN">
        <Description><TranslatedText xml:lang="en">Domain Abbreviation</TranslatedText></Description>
      </ItemDef>
      <ItemDef OID="IT.ML.USUBJID" Name="USUBJID" DataType="text" Length="22" SASFieldName="USUBJID">
        <Description><TranslatedText xml:lang="en">Unique Subject Identifier</TranslatedText></Description>
      </ItemDef>
      <ItemDef OID="IT.ML.MLSEQ" Name="MLSEQ" DataType="integer" Length="8" SASFieldName="MLSEQ">
        <Description><TranslatedText xml:lang="en">Sequence Number</TranslatedText></Description>
      </ItemDef>
      <ItemDef OID="IT.ML.MLTRT" Name="MLTRT" DataType="text" Length="12" SASFieldName="MLTRT">
        <Description><TranslatedText xml:lang="en">Name of Meal</TranslatedText></Description>
      </ItemDef>
      <ItemDef OID="IT.ML.MLPRESP" Name="MLPRESP" DataType="text" Length="1" SASFieldName="MLPRESP">
        <Description><TranslatedText xml:lang="en">ML Pre-specified</TranslatedText></Description>
      </ItemDef>
      <ItemDef OID="IT.ML.MLOCCUR" Name="MLOCCUR" DataType="text" Length="1" SASFieldName="MLOCCUR">
        <Description><TranslatedText xml:lang="en">ML Occurrence</TranslatedText></Description>
      </ItemDef>
      <ItemDef OID="IT.ML.VISITNUM" Name="VISITNUM" DataType="integer" Length="8" SASFieldName="VISITNUM">
        <Description><TranslatedText xml:lang="en">Visit Number</TranslatedText></Description>
      </ItemDef>
      <ItemDef OID="IT.ML.VISIT" Name="VISIT" DataType="text" Length="5" SASFieldName="VISIT">
        <Description><TranslatedText xml:lang="en">Visit Name</TranslatedText></Description>
      </ItemDef>
      <ItemDef OID="IT.ML.EPOCH" Name="EPOCH" DataType="text" Length="9" SASFieldName="EPOCH">
        <Description><TranslatedText xml:lang="en">Epoch</TranslatedText></Description>
      </ItemDef>
      <ItemDef OID="IT.ML.MLSTDTC" Name="MLSTDTC" DataType="text" Length="16" SASFieldName="MLSTDTC">
        <Description><TranslatedText xml:lang="en">Start Date/Time of Meal</TranslatedText></Description>
      </ItemDef>
      <ItemDef OID="IT.ML.MLENDTC" Name="MLENDTC" DataType="text" Length="16" SASFieldName="MLENDTC">
        <Description><TranslatedText xml:lang="en">End Date/Time of Meal</TranslatedText></Description>
      </ItemDef>
      <ItemDef OID="IT.ML.MLSTDY" Name="MLSTDY" DataType="integer" Length="8" SASFieldName="MLSTDY">
        <Description><TranslatedText xml:lang="en">Study Day of Start of Meal</TranslatedText></Description>
      </ItemDef>
      <ItemDef OID="IT.PC.STUDYID" Name="STUDYID" DataType="text" Length="17" SASFieldName="STUDYID">
        <Description><TranslatedText xml:lang="en">Study Identifier</TranslatedText></Description>
      </ItemDef>
      <ItemDef OID="IT.PC.DOMAIN" Name="DOMAIN" DataType="text" Length="2" SASFieldName="DOMAIN">
        <Description><TranslatedText xml:lang="en">Domain Abbreviation</TranslatedText></Description>
      </ItemDef>
      <ItemDef OID="IT.PC.USUBJID" Name="USUBJID" DataType="text" Length="22" SASFieldName="USUBJID">
        <Description><TranslatedText xml:lang="en">Unique Subject Identifier</TranslatedText></Description>
      </ItemDef>
      <ItemDef OID="IT.PC.PCSEQ" Name="PCSEQ" DataType="integer" Length="8" SASFieldName="PCSEQ">
        <Description><TranslatedText xml:lang="en">Sequence Number</TranslatedText></Description>
      </ItemDef>
      <ItemDef OID="IT.PC.PCTESTCD" Name="PCTESTCD" DataType="text" Length="8" SASFieldName="PCTESTCD">
        <Description><TranslatedText xml:lang="en">Pharmacokinetic Test Short Name</TranslatedText></Description>
      </ItemDef>
      <ItemDef OID="IT.PC.PCTEST" Name="PCTEST" DataType="text" Length="9" SASFieldName="PCTEST">
        <Description><TranslatedText xml:lang="en">Pharmacokinetic Test Name</TranslatedText></Description>
      </ItemDef>
      <ItemDef OID="IT.PC.PCORRES" Name="PCORRES" DataType="text" Length="1" SASFieldName="PCORRES">
        <Description><TranslatedText xml:lang="en">Result or Finding in Original Units</TranslatedText></Description>
      </ItemDef>
      <ItemDef OID="IT.PC.PCORRESU" Name="PCORRESU" DataType="text" Length="1" SASFieldName="PCORRESU">
        <Description><TranslatedText xml:lang="en">Original Units</TranslatedText></Description>
      </ItemDef>
      <ItemDef OID="IT.PC.PCSTRESC" Name="PCSTRESC" DataType="text" Length="1" SASFieldName="PCSTRESC">
        <Description><TranslatedText xml:lang="en">Character Result/Finding in Std Format</TranslatedText></Description>
      </ItemDef>
      <ItemDef OID="IT.PC.PCSTRESN" Name="PCSTRESN" DataType="float" Length="8" SASFieldName="PCSTRESN">
        <Description><TranslatedText xml:lang="en">Numeric Result/Finding in Standard Units</TranslatedText></Description>
      </ItemDef>
      <ItemDef OID="IT.PC.PCSTRESU" Name="PCSTRESU" DataType="text" Length="1" SASFieldName="PCSTRESU">
        <Description><TranslatedText xml:lang="en">Standard Units</TranslatedText></Description>
      </ItemDef>
      <ItemDef OID="IT.PC.PCNAM" Name="PCNAM" DataType="text" Length="1" SASFieldName="PCNAM">
        <Description><TranslatedText xml:lang="en">Vendor Name</TranslatedText></Description>
      </ItemDef>
      <ItemDef OID="IT.PC.PCSPEC" Name="PCSPEC" DataType="text" Length="5" SASFieldName="PCSPEC">
        <Description><TranslatedText xml:lang="en">Specimen Material Type</TranslatedText></Description>
      </ItemDef>
      <ItemDef OID="IT.PC.PCLLOQ" Name="PCLLOQ" DataType="float" Length="8" SASFieldName="PCLLOQ">
        <Description><TranslatedText xml:lang="en">Lower Limit of Quantitation</TranslatedText></Description>
      </ItemDef>
      <ItemDef OID="IT.PC.VISITNUM" Name="VISITNUM" DataType="integer" Length="8" SASFieldName="VISITNUM">
        <Description><TranslatedText xml:lang="en">Visit Number</TranslatedText></Description>
      </ItemDef>
      <ItemDef OID="IT.PC.VISIT" Name="VISIT" DataType="text" Length="5" SASFieldName="VISIT">
        <Description><TranslatedText xml:lang="en">Visit Name</TranslatedText></Description>
      </ItemDef>
      <ItemDef OID="IT.PC.EPOCH" Name="EPOCH" DataType="text" Length="9" SASFieldName="EPOCH">
        <Description><TranslatedText xml:lang="en">Epoch</TranslatedText></Description>
      </ItemDef>
      <ItemDef OID="IT.PC.PCDTC" Name="PCDTC" DataType="text" Length="16" SASFieldName="PCDTC">
        <Description><TranslatedText xml:lang="en">Date/Time of Specimen Collection</TranslatedText></Description>
      </ItemDef>
      <ItemDef OID="IT.PC.PCDY" Name="PCDY" DataType="integer" Length="8" SASFieldName="PCDY">
        <Description><TranslatedText xml:lang="en">Actual Study Day of Specimen Collection</TranslatedText></Description>
      </ItemDef>
      <ItemDef OID="IT.PC.PCTPT" Name="PCTPT" DataType="text" Length="18" SASFieldName="PCTPT">
        <Description><TranslatedText xml:lang="en">Planned Time Point Name</TranslatedText></Description>
      </ItemDef>
      <ItemDef OID="IT.PE.STUDYID" Name="STUDYID" DataType="text" Length="17" SASFieldName="STUDYID">
        <Description><TranslatedText xml:lang="en">Study Identifier</TranslatedText></Description>
      </ItemDef>
      <ItemDef OID="IT.PE.DOMAIN" Name="DOMAIN" DataType="text" Length="2" SASFieldName="DOMAIN">
        <Description><TranslatedText xml:lang="en">Domain Abbreviation</TranslatedText></Description>
      </ItemDef>
      <ItemDef OID="IT.PE.USUBJID" Name="USUBJID" DataType="text" Length="22" SASFieldName="USUBJID">
        <Description><TranslatedText xml:lang="en">Unique Subject Identifier</TranslatedText></Description>
      </ItemDef>
      <ItemDef OID="IT.PE.PESEQ" Name="PESEQ" DataType="integer" Length="8" SASFieldName="PESEQ">
        <Description><TranslatedText xml:lang="en">Sequence Number</TranslatedText></Description>
      </ItemDef>
      <ItemDef OID="IT.PE.PETESTCD" Name="PETESTCD" DataType="text" Length="7" SASFieldName="PETESTCD">
        <Description><TranslatedText xml:lang="en">Body System Examined Short Name</TranslatedText></Description>
      </ItemDef>
      <ItemDef OID="IT.PE.PETEST" Name="PETEST" DataType="text" Length="20" SASFieldName="PETEST">
        <Description><TranslatedText xml:lang="en">Body System Examined</TranslatedText></Description>
      </ItemDef>
      <ItemDef OID="IT.PE.PEORRES" Name="PEORRES" DataType="text" Length="8" SASFieldName="PEORRES">
        <Description><TranslatedText xml:lang="en">Verbatim Examination Finding</TranslatedText></Description>
      </ItemDef>
      <ItemDef OID="IT.PE.PESTRESC" Name="PESTRESC" DataType="text" Length="1" SASFieldName="PESTRESC">
        <Description><TranslatedText xml:lang="en">Character Result/Finding in Std Format</TranslatedText></Description>
      </ItemDef>
      <ItemDef OID="IT.PE.PESTAT" Name="PESTAT" DataType="text" Length="8" SASFieldName="PESTAT">
        <Description><TranslatedText xml:lang="en">Completion Status</TranslatedText></Description>
      </ItemDef>
      <ItemDef OID="IT.PE.PEREASND" Name="PEREASND" DataType="text" Length="26" SASFieldName="PEREASND">
        <Description><TranslatedText xml:lang="en">Reason Not Examined</TranslatedText></Description>
      </ItemDef>
      <ItemDef OID="IT.PE.VISITNUM" Name="VISITNUM" DataType="integer" Length="8" SASFieldName="VISITNUM">
        <Description><TranslatedText xml:lang="en">Visit Number</TranslatedText></Description>
      </ItemDef>
      <ItemDef OID="IT.PE.VISIT" Name="VISIT" DataType="text" Length="10" SASFieldName="VISIT">
        <Description><TranslatedText xml:lang="en">Visit Name</TranslatedText></Description>
      </ItemDef>
      <ItemDef OID="IT.PE.EPOCH" Name="EPOCH" DataType="text" Length="9" SASFieldName="EPOCH">
        <Description><TranslatedText xml:lang="en">Epoch</TranslatedText></Description>
      </ItemDef>
      <ItemDef OID="IT.PE.PEDTC" Name="PEDTC" DataType="text" Length="16" SASFieldName="PEDTC">
        <Description><TranslatedText xml:lang="en">Date/Time of Examination</TranslatedText></Description>
      </ItemDef>
      <ItemDef OID="IT.PE.PEDY" Name="PEDY" DataType="integer" Length="8" SASFieldName="PEDY">
        <Description><TranslatedText xml:lang="en">Study Day of Examination</TranslatedText></Description>
      </ItemDef>
      <ItemDef OID="IT.SV.STUDYID" Name="STUDYID" DataType="text" Length="17" SASFieldName="STUDYID">
        <Description><TranslatedText xml:lang="en">Study Identifier</TranslatedText></Description>
      </ItemDef>
      <ItemDef OID="IT.SV.DOMAIN" Name="DOMAIN" DataType="text" Length="2" SASFieldName="DOMAIN">
        <Description><TranslatedText xml:lang="en">Domain Abbreviation</TranslatedText></Description>
      </ItemDef>
      <ItemDef OID="IT.SV.USUBJID" Name="USUBJID" DataType="text" Length="22" SASFieldName="USUBJID">
        <Description><TranslatedText xml:lang="en">Unique Subject Identifier</TranslatedText></Description>
      </ItemDef>
      <ItemDef OID="IT.SV.VISITNUM" Name="VISITNUM" DataType="integer" Length="8" SASFieldName="VISITNUM">
        <Description><TranslatedText xml:lang="en">Visit Number</TranslatedText></Description>
      </ItemDef>
      <ItemDef OID="IT.SV.VISIT" Name="VISIT" DataType="text" Length="10" SASFieldName="VISIT">
        <Description><TranslatedText xml:lang="en">Visit Name</TranslatedText></Description>
      </ItemDef>
      <ItemDef OID="IT.SV.SVPRESP" Name="SVPRESP" DataType="text" Length="1" SASFieldName="SVPRESP">
        <Description><TranslatedText xml:lang="en">Pre-specified</TranslatedText></Description>
      </ItemDef>
      <ItemDef OID="IT.SV.SVOCCUR" Name="SVOCCUR" DataType="text" Length="1" SASFieldName="SVOCCUR">
        <Description><TranslatedText xml:lang="en">Occurrence</TranslatedText></Description>
      </ItemDef>
      <ItemDef OID="IT.SV.EPOCH" Name="EPOCH" DataType="text" Length="9" SASFieldName="EPOCH">
        <Description><TranslatedText xml:lang="en">EPOCH</TranslatedText></Description>
      </ItemDef>
      <ItemDef OID="IT.SV.SVSTDTC" Name="SVSTDTC" DataType="text" Length="10" SASFieldName="SVSTDTC">
        <Description><TranslatedText xml:lang="en">Start Date/Time of Observation</TranslatedText></Description>
      </ItemDef>
      <ItemDef OID="IT.SV.SVENDTC" Name="SVENDTC" DataType="text" Length="1" SASFieldName="SVENDTC">
        <Description><TranslatedText xml:lang="en">End Date/Time of Observation</TranslatedText></Description>
      </ItemDef>
      <ItemDef OID="IT.SV.SVSTDY" Name="SVSTDY" DataType="integer" Length="8" SASFieldName="SVSTDY">
        <Description><TranslatedText xml:lang="en">Study Day of Start of Observation</TranslatedText></Description>
      </ItemDef>
      <ItemDef OID="IT.SV.SVSEQ" Name="SVSEQ" DataType="integer" Length="8" SASFieldName="SVSEQ">
        <Description><TranslatedText xml:lang="en">SVSEQ</TranslatedText></Description>
      </ItemDef>
      <ItemDef OID="IT.VS.STUDYID" Name="STUDYID" DataType="text" Length="17" SASFieldName="STUDYID">
        <Description><TranslatedText xml:lang="en">Study Identifier</TranslatedText></Description>
      </ItemDef>
      <ItemDef OID="IT.VS.DOMAIN" Name="DOMAIN" DataType="text" Length="2" SASFieldName="DOMAIN">
        <Description><TranslatedText xml:lang="en">Domain Abbreviation</TranslatedText></Description>
      </ItemDef>
      <ItemDef OID="IT.VS.USUBJID" Name="USUBJID" DataType="text" Length="22" SASFieldName="USUBJID">
        <Description><TranslatedText xml:lang="en">Unique Subject Identifier</TranslatedText></Description>
      </ItemDef>
      <ItemDef OID="IT.VS.VSSEQ" Name="VSSEQ" DataType="integer" Length="8" SASFieldName="VSSEQ">
        <Description><TranslatedText xml:lang="en">Sequence Number</TranslatedText></Description>
      </ItemDef>
      <ItemDef OID="IT.VS.VSTESTCD" Name="VSTESTCD" DataType="text" Length="5" SASFieldName="VSTESTCD">
        <Description><TranslatedText xml:lang="en">Vital Signs Test Short Name</TranslatedText></Description>
      </ItemDef>
      <ItemDef OID="IT.VS.VSTEST" Name="VSTEST" DataType="text" Length="24" SASFieldName="VSTEST">
        <Description><TranslatedText xml:lang="en">Vital Signs Test Name</TranslatedText></Description>
      </ItemDef>
      <ItemDef OID="IT.VS.VSPOS" Name="VSPOS" DataType="text" Length="6" SASFieldName="VSPOS">
        <Description><TranslatedText xml:lang="en">Vital Signs Position of Subject</TranslatedText></Description>
      </ItemDef>
      <ItemDef OID="IT.VS.VSORRES" Name="VSORRES" DataType="text" Length="4" SASFieldName="VSORRES">
        <Description><TranslatedText xml:lang="en">Result or Finding in Original Units</TranslatedText></Description>
      </ItemDef>
      <ItemDef OID="IT.VS.VSORRESU" Name="VSORRESU" DataType="text" Length="11" SASFieldName="VSORRESU">
        <Description><TranslatedText xml:lang="en">Original Units</TranslatedText></Description>
      </ItemDef>
      <ItemDef OID="IT.VS.VSSTRESC" Name="VSSTRESC" DataType="text" Length="1" SASFieldName="VSSTRESC">
        <Description><TranslatedText xml:lang="en">Character Result/Finding in Std Format</TranslatedText></Description>
      </ItemDef>
      <ItemDef OID="IT.VS.VSSTRESN" Name="VSSTRESN" DataType="float" Length="8" SASFieldName="VSSTRESN">
        <Description><TranslatedText xml:lang="en">Numeric Result/Finding in Standard Units</TranslatedText></Description>
      </ItemDef>
      <ItemDef OID="IT.VS.VSSTRESU" Name="VSSTRESU" DataType="text" Length="11" SASFieldName="VSSTRESU">
        <Description><TranslatedText xml:lang="en">Standard Units</TranslatedText></Description>
      </ItemDef>
      <ItemDef OID="IT.VS.VSLOC" Name="VSLOC" DataType="text" Length="11" SASFieldName="VSLOC">
        <Description><TranslatedText xml:lang="en">Location of Vital Signs Measurement</TranslatedText></Description>
      </ItemDef>
      <ItemDef OID="IT.VS.VSLOBXFL" Name="VSLOBXFL" DataType="text" Length="1" SASFieldName="VSLOBXFL">
        <Description><TranslatedText xml:lang="en">Last Observation Before Exposure Flag</TranslatedText></Description>
      </ItemDef>
      <ItemDef OID="IT.VS.VISITNUM" Name="VISITNUM" DataType="integer" Length="8" SASFieldName="VISITNUM">
        <Description><TranslatedText xml:lang="en">Visit Number</TranslatedText></Description>
      </ItemDef>
      <ItemDef OID="IT.VS.VISIT" Name="VISIT" DataType="text" Length="10" SASFieldName="VISIT">
        <Description><TranslatedText xml:lang="en">Visit Name</TranslatedText></Description>
      </ItemDef>
      <ItemDef OID="IT.VS.EPOCH" Name="EPOCH" DataType="text" Length="9" SASFieldName="EPOCH">
        <Description><TranslatedText xml:lang="en">Epoch</TranslatedText></Description>
      </ItemDef>
      <ItemDef OID="IT.VS.VSDTC" Name="VSDTC" DataType="text" Length="16" SASFieldName="VSDTC">
        <Description><TranslatedText xml:lang="en">Date/Time of Measurements</TranslatedText></Description>
      </ItemDef>
      <ItemDef OID="IT.VS.VSDY" Name="VSDY" DataType="integer" Length="8" SASFieldName="VSDY">
        <Description><TranslatedText xml:lang="en">Study Day of Vital Signs</TranslatedText></Description>
      </ItemDef>
      <ItemDef OID="IT.VS.VSTPT" Name="VSTPT" DataType="text" Length="12" SASFieldName="VSTPT">
        <Description><TranslatedText xml:lang="en">Planned Time Point Name</TranslatedText></Description>
      </ItemDef>
    </MetaDataVersion>
  </Study>
</ODM>
