domain: DM
label: Demographics
class: Special-Purpose
structure: One record per subject
purpose: Tabulation
keys: [STUDYID, USUBJID]
ig_anchor: "DM+Specification"

sources:
  - form: "1. Demographics and History"
    item_groups: [RACE, group1, group2]
  - form: "Eligibility"
    item_groups: [INCA]
  - form: "3. Randomize"
    item_groups: [rand1]
  - form: "Disposition"
    item_groups: [PD]
  - form: "Adverse Event"
    item_groups: [AE]   # for AESDTH / DTHDAT — drives DTHFL and DTHDTC

variables:
  STUDYID:
    label: Study Identifier
    type: Char
    length: 12
    role: Identifier
    core: Req
    origin: Sponsor Defined
    derivation: Study constant; assigned at study setup ("CART-T-PILOT").

  DOMAIN:
    label: Domain Abbreviation
    type: Char
    length: 2
    role: Identifier
    core: Req
    origin: Assigned
    derivation: Constant value "DM".

  USUBJID:
    label: Unique Subject Identifier
    type: Char
    length: 30
    role: Identifier
    core: Req
    origin: Derived
    derivation: paste(STUDYID, SITEID, SUBJID, sep="-")

  SUBJID:
    label: Subject Identifier for the Study
    type: Char
    length: 10
    role: Topic
    core: Req
    origin: CRF
    raw_column: studysubjectid
    derivation: Copied from ODM studysubjectid.

  RFSTDTC:
    label: Subject Reference Start Date/Time
    type: Char
    length: 19
    role: Record Qualifier
    core: Exp
    origin: Derived
    derivation: |
      RFICDTC when available; otherwise the minimum event startdate across all
      OpenClinica events for the subject (flat.rds startdate column, first 10
      characters). RFICDTC is sparsely populated (Disposition.CONSENTEDDT present
      for only 1 subject), so the startdate fallback is the primary source.

  RFENDTC:
    label: Subject Reference End Date/Time
    type: Char
    length: 19
    role: Record Qualifier
    core: Exp
    origin: Derived
    derivation: |
      Disposition.EARLYTERMINATIONDATE when present; otherwise the maximum event
      startdate across all OpenClinica events for the subject (last recorded
      study activity).

  RFXSTDTC:
    label: Date/Time of First Study Treatment
    type: Char
    length: 19
    role: Record Qualifier
    core: Perm
    origin: Derived
    derivation: Earliest EX.EXSTDTC for the subject.

  RFXENDTC:
    label: Date/Time of Last Study Treatment
    type: Char
    length: 19
    role: Record Qualifier
    core: Perm
    origin: Derived
    derivation: Latest EX.EXENDTC (or EXSTDTC when no end is recorded) for the subject.

  RFICDTC:
    label: Date/Time of Informed Consent
    type: Char
    length: 10
    role: Record Qualifier
    core: Exp
    origin: CRF
    raw_item: CONSENTEDDT
    source_form: "Disposition"
    source_item_group: PD
    derivation: |
      Disposition.PD.CONSENTEDDT when available; otherwise the minimum
      startdate of the Eligibility form (SE_ENROLLMENT event) for the subject,
      used as a proxy for the informed consent encounter. CONSENTEDDT is
      present for only 1 subject; the eligibility startdate proxy covers 580
      subjects. The remaining ~230 subjects retain RFICDTC = null (no
      Eligibility form startdate in the export).

  RFPENDTC:
    label: Date/Time of End of Participation
    type: Char
    length: 10
    role: Record Qualifier
    core: Exp
    origin: Derived
    raw_item: EARLYTERMINATIONDATE
    source_form: "Disposition"
    derivation: |
      Disposition.EARLYTERMINATIONDATE when present; otherwise the maximum event
      startdate across all OpenClinica events for the subject.

  DTHDTC:
    label: Date/Time of Death
    type: Char
    length: 10
    role: Record Qualifier
    core: Perm
    origin: Predecessor
    raw_item: DTHDAT
    source_form: "Adverse Event"
    derivation: |
      Earliest non-empty AE.DTHDAT for the subject, normalized to ISO 8601.
      Null when no DTHDAT was recorded even though AE.AESDTH = "Y" (4
      subjects in this export have AESDTH = "Y" without a recorded death
      date — known data limitation).

  DTHFL:
    label: Subject Death Flag
    type: Char
    length: 1
    role: Record Qualifier
    core: Perm
    origin: Derived
    codelist: NY
    derivation: |
      "Y" when any AE row for the subject has AESDTH = "Y" (P21 rule SD1255
      requires DTHFL = "Y" whenever AE.AESDTH = "Y"). Null otherwise — the
      pilot does not invent death information when AESDTH was not flagged.

  SITEID:
    label: Study Site Identifier
    type: Char
    length: 8
    role: Record Qualifier
    core: Req
    origin: CRF
    derivation: From subject's enrolling site (ODM site OID).

  BRTHDTC:
    label: Date/Time of Birth
    type: Char
    length: 10
    role: Record Qualifier
    core: Perm
    origin: CRF
    raw_item: BDAY
    source_form: "Eligibility"
    source_item_group: INCA
    derivation: Copied from Eligibility.INCA.BDAY. When only PTBYEAR is available, set BRTHDTC = paste0(PTBYEAR, "-01-01") and record imputation in SUPPDM.

  AGE:
    label: Age
    type: Num
    length: 8
    role: Record Qualifier
    core: Exp
    origin: Derived
    raw_item: PTAGE
    source_form: "Eligibility"
    source_item_group: INCA
    derivation: Integer years between BRTHDTC and RFICDTC; if BRTHDTC missing, use PTAGE as-collected.

  AGEU:
    label: Age Units
    type: Char
    length: 10
    role: Variable Qualifier
    core: Exp
    origin: Assigned
    derivation: Constant value "YEARS".

  SEX:
    label: Sex
    type: Char
    length: 1
    role: Record Qualifier
    core: Req
    origin: CRF
    codelist: SEX
    raw_item: PTSEX
    source_form: "1. Demographics and History"
    source_item_group: RACE
    code_map: {M: M, F: F, U: U}
    derivation: Map PTSEX -> SEX via code_map; if missing, set "U".

  RACE:
    label: Race
    type: Char
    length: 40
    role: Record Qualifier
    core: Exp
    origin: CRF
    codelist: RACE
    raw_item: PTRACE
    source_form: "1. Demographics and History"
    source_item_group: RACE
    code_map:
      "1": AMERICAN INDIAN OR ALASKA NATIVE
      "2": ASIAN
      "3": BLACK OR AFRICAN AMERICAN
      "4": NATIVE HAWAIIAN OR OTHER PACIFIC ISLANDER
      "5": WHITE
      "6": OTHER
    derivation: |
      Map PTRACE OpenClinica multi-select codes (MSL_62) to CDISC RACE
      extensible CT (C74457). When multiple codes are comma-separated
      (subject checked more than one box), RACE = "MULTIPLE" per SDTMIG
      guidance. Code 6 ("Other") maps to RACE = "OTHER"; the free-text
      OTHERRACE value is a candidate for SUPPDM.QVAL when present.

  ETHNIC:
    label: Ethnicity
    type: Char
    length: 40
    role: Record Qualifier
    core: Perm
    origin: CRF
    codelist: ETHNIC
    raw_item: HISP
    source_form: "1. Demographics and History"
    source_item_group: RACE
    code_map: {Y: HISPANIC OR LATINO, N: NOT HISPANIC OR LATINO}
    derivation: Map HISP via code_map; blank -> null.

  ARMCD:
    label: Planned Arm Code
    type: Char
    length: 20
    role: Record Qualifier
    core: Req
    origin: Derived
    raw_item: PROFILE
    source_form: "3. Randomize"
    source_item_group: rand1
    derivation: |
      "TREATMENT" when subject was randomized (PROFILE populated); "SCRNFAIL"
      otherwise. This study captures a single observational treatment group;
      the demographic phenotype from PROFILE is a stratification cohort, not
      a treatment arm, and is carried into ADSL.STRAT1/STRAT1L instead.

  ARM:
    label: Description of Planned Arm
    type: Char
    length: 40
    role: Synonym Qualifier
    core: Req
    origin: Derived
    raw_item: PROFILE
    source_form: "3. Randomize"
    derivation: |
      "Study Treatment" for ARMCD = "TREATMENT"; "Screen Failure" for
      ARMCD = "SCRNFAIL".

  ACTARMCD:
    label: Actual Arm Code
    type: Char
    length: 20
    role: Record Qualifier
    core: Req
    origin: Derived
    derivation: |
      RECEIVEDINTERVENTION = No for all subjects in this export, so no subject
      actually received study treatment. Randomized subjects (ARMCD =
      "TREATMENT") are coded ACTARMCD = "NOTTRT" per SDTMIG guidance for
      subjects assigned to but not receiving treatment. Screen failure subjects
      retain ACTARMCD = "SCRNFAIL".

  ACTARM:
    label: Description of Actual Arm
    type: Char
    length: 40
    role: Synonym Qualifier
    core: Req
    origin: Derived
    derivation: |
      "Not treated" for ACTARMCD = "NOTTRT"; "Screen Failure" for
      ACTARMCD = "SCRNFAIL".

  COUNTRY:
    label: Country
    type: Char
    length: 3
    role: Record Qualifier
    core: Req
    origin: Assigned
    derivation: Constant "USA" for this single-country pilot.
