domain: LB
label: Laboratory Test Results
class: Findings
structure: One record per lab test per timepoint per subject
purpose: Tabulation
keys: [STUDYID, USUBJID, LBTESTCD, VISITNUM, LBDTC]
ig_anchor: "LB+Specification"

sources:
  - form: "2. Baseline Labs and Imaging"
    item_groups: [CHEMPANEL, NEPH]
    notes: Baseline labs (LBBLFL = "Y").
  - form: "Lab Results"
    item_groups: [labs]
    notes: Post-baseline lab panel.

test_map:
  CHEMPANEL:
    AMYLASE:    {LBTESTCD: AMYLASE,  LBTEST: "Amylase",                LBCAT: CHEMISTRY,    LBORRESU: "U/L"}
    BUN:        {LBTESTCD: BUN,      LBTEST: "Blood Urea Nitrogen",    LBCAT: CHEMISTRY,    LBORRESU: "mg/dL"}
    CHLORIDE:   {LBTESTCD: CL,       LBTEST: "Chloride",               LBCAT: CHEMISTRY,    LBORRESU: "mmol/L"}
    HOMOC:      {LBTESTCD: HCYS,     LBTEST: "Homocysteine",           LBCAT: CHEMISTRY,    LBORRESU: "umol/L"}
  NEPH:
    CREAT:      {LBTESTCD: CREAT,    LBTEST: "Creatinine",             LBCAT: CHEMISTRY,    LBORRESU: "mg/dL"}
    CREATR:     {LBTESTCD: CREATSI,  LBTEST: "Creatinine (SI)",        LBCAT: CHEMISTRY,    LBORRESU: "umol/L"}
    EGFR:       {LBTESTCD: EGFR,     LBTEST: "Estimated GFR",          LBCAT: CHEMISTRY,    LBORRESU: "mL/min/1.73m2"}
  labs:
    CHOLES:     {LBTESTCD: CHOL,     LBTEST: "Cholesterol",            LBCAT: CHEMISTRY,    LBORRESU: "mg/dL"}
    TRIG:       {LBTESTCD: TRIG,     LBTEST: "Triglycerides",          LBCAT: CHEMISTRY,    LBORRESU: "mg/dL"}
    HEMA:       {LBTESTCD: HCT,      LBTEST: "Hematocrit",             LBCAT: HEMATOLOGY,   LBORRESU: "%"}
    HEMO:       {LBTESTCD: HGB,      LBTEST: "Hemoglobin",             LBCAT: HEMATOLOGY,   LBORRESU: "g/dL"}
    RBC:        {LBTESTCD: RBC,      LBTEST: "Erythrocytes (RBC)",     LBCAT: HEMATOLOGY,   LBORRESU: "10^6/uL"}
    WBC:        {LBTESTCD: WBC,      LBTEST: "Leukocytes (WBC)",       LBCAT: HEMATOLOGY,   LBORRESU: "10^3/uL"}

variables:
  STUDYID:
    label: Study Identifier
    type: Char
    length: 12
    role: Identifier
    core: Req
    origin: Sponsor Defined
    derivation: Study constant ("CART-T-PILOT").

  DOMAIN:
    label: Domain Abbreviation
    type: Char
    length: 2
    role: Identifier
    core: Req
    origin: Assigned
    derivation: Constant value "LB".

  USUBJID:
    label: Unique Subject Identifier
    type: Char
    length: 30
    role: Identifier
    core: Req
    origin: Derived
    derivation: Joined from DM via subjectkey.

  LBSEQ:
    label: Sequence Number
    type: Num
    length: 8
    role: Identifier
    core: Req
    origin: Derived
    derivation: row_number() within USUBJID, ordered by LBDTC, LBTESTCD.

  LBTESTCD:
    label: Lab Test or Examination Short Name
    type: Char
    length: 8
    role: Topic
    core: Req
    origin: Assigned
    codelist: LBTESTCD
    derivation: Looked up from `test_map[itemgroupname][itemname].LBTESTCD`.

  LBTEST:
    label: Lab Test or Examination Name
    type: Char
    length: 40
    role: Synonym Qualifier
    core: Req
    origin: Assigned
    codelist: LBTEST
    derivation: Looked up from `test_map[itemgroupname][itemname].LBTEST`.

  LBCAT:
    label: Category for Lab Test
    type: Char
    length: 40
    role: Grouping Qualifier
    core: Exp
    origin: Assigned
    derivation: Looked up from `test_map[itemgroupname][itemname].LBCAT`.

  LBORRES:
    label: Result or Finding in Original Units
    type: Char
    length: 200
    role: Result Qualifier
    core: Exp
    origin: CRF
    derivation: as.character(value) from flat tibble for the row's itemname.

  LBORRESU:
    label: Original Units
    type: Char
    length: 40
    role: Variable Qualifier
    core: Exp
    origin: Assigned
    codelist: UNIT
    derivation: Looked up from `test_map[itemgroupname][itemname].LBORRESU`.

  LBSTRESC:
    label: Character Result/Finding in Std Format
    type: Char
    length: 200
    role: Result Qualifier
    core: Req
    origin: Derived
    derivation: as.character(LBSTRESN) when numeric; else equal to LBORRES.

  LBSTRESN:
    label: Numeric Result/Finding in Standard Units
    type: Num
    length: 8
    role: Result Qualifier
    core: Exp
    origin: Derived
    derivation: suppressWarnings(as.numeric(LBORRES)). NA when LBORRES is non-numeric.

  LBSTRESU:
    label: Standard Units
    type: Char
    length: 40
    role: Variable Qualifier
    core: Exp
    origin: Assigned
    codelist: UNIT
    derivation: Equals LBORRESU (no unit conversion in this pilot).

  LBNRIND:
    label: Reference Range Indicator
    type: Char
    length: 10
    role: Variable Qualifier
    core: Perm
    origin: Derived
    codelist: NRIND
    derivation: |
      Compare LBSTRESN against LBSTNRLO/LBSTNRHI when available:
        LBSTRESN <  LBSTNRLO -> "LOW"
        LBSTRESN >  LBSTNRHI -> "HIGH"
        else                  -> "NORMAL". Null when ranges unavailable.

  LBBLFL:
    label: Baseline Flag
    type: Char
    length: 1
    role: Record Qualifier
    core: Perm
    origin: Derived
    codelist: NY
    derivation: "Y" when source form is "2. Baseline Labs and Imaging"; else null.

  VISITNUM:
    label: Visit Number
    type: Num
    length: 8
    role: Timing
    core: Req
    origin: CRF
    derivation: From OpenClinica event (studyeventoid) of the contributing form.

  VISIT:
    label: Visit Name
    type: Char
    length: 40
    role: Timing
    core: Perm
    origin: CRF
    derivation: From OpenClinica eventname.

  LBDTC:
    label: Date/Time of Specimen Collection
    type: Char
    length: 19
    role: Timing
    core: Exp
    origin: CRF
    derivation: |
      Baseline -> SCAN.date_of_blood_draw or LABS.DRAWDATE.
      Lab Results -> labs.LABDATE.
      Use the event startdate when no item-level date is captured.

  LBDY:
    label: Study Day of Specimen Collection
    type: Num
    length: 8
    role: Timing
    core: Perm
    origin: Derived
    derivation: as.integer(as.Date(LBDTC) - as.Date(DM.RFSTDTC)) + ifelse(LBDTC >= RFSTDTC, 1L, 0L). Skip day 0.
