STUDYID,USUBJID,AETERM,ASTDY,AENDY,ATOXGR,AESEVN,AESER,AREL,AEACN,AECAT,AEOUT,TRTEMFL,CQ01NAM,TRT01A
KN564,KN564-0005,NAUSEA,282,300,2,2,0,POSSIBLY RELATED,DISCONTINUED,GENERAL,RESOLVED,Y,,PEMBROLIZUMAB
KN564,KN564-0005,FATIGUE,301,335,1,1,0,POSSIBLY RELATED,NONE,GENERAL,RESOLVED,Y,,PEMBROLIZUMAB
KN564,KN564-0005,ARTHRALGIA,296,316,2,2,0,NOT RELATED,NONE,GENERAL,RESOLVED,Y,,PEMBROLIZUMAB
KN564,KN564-0005,NAUSEA,307,348,2,2,0,POSSIBLY RELATED,NONE,GENERAL,RESOLVED,Y,,PEMBROLIZUMAB
KN564,KN564-0006,FATIGUE,234,269,1,1,0,NOT RELATED,NONE,GENERAL,RESOLVED,Y,,PEMBROLIZUMAB
KN564,KN564-0007,DIARRHEA,172,191,2,2,0,NOT RELATED,NONE,IMMUNE_MEDIATED,RESOLVED,Y,IMMUNE-MEDIATED AES,PLACEBO
KN564,KN564-0008,HYPOTHYROIDISM,69,90,1,1,0,RELATED,NONE,THYROID,ONGOING,Y,IMMUNE-MEDIATED AES,PEMBROLIZUMAB
KN564,KN564-0009,ARTHRALGIA,15,43,2,2,0,RELATED,NONE,GENERAL,RESOLVED,Y,,PEMBROLIZUMAB
KN564,KN564-0009,DIARRHEA,277,286,3,3,1,RELATED,DOSE_HELD,IMMUNE_MEDIATED,RESOLVED,Y,IMMUNE-MEDIATED AES,PEMBROLIZUMAB
KN564,KN564-0010,DIARRHEA,298,308,2,2,0,NOT RELATED,NONE,IMMUNE_MEDIATED,RESOLVED,Y,IMMUNE-MEDIATED AES,PLACEBO
KN564,KN564-0011,FATIGUE,151,169,2,2,0,NOT RELATED,DISCONTINUED,GENERAL,RESOLVED,Y,,PEMBROLIZUMAB
KN564,KN564-0011,DIARRHEA,200,214,1,1,0,RELATED,NONE,IMMUNE_MEDIATED,RESOLVED,Y,IMMUNE-MEDIATED AES,PEMBROLIZUMAB
KN564,KN564-0012,NAUSEA,28,63,1,1,0,RELATED,NONE,GENERAL,RESOLVED,Y,,PEMBROLIZUMAB
KN564,KN564-0012,HYPOTHYROIDISM,112,139,2,2,0,RELATED,NONE,THYROID,ONGOING,Y,IMMUNE-MEDIATED AES,PEMBROLIZUMAB
KN564,KN564-0012,PRURITUS,118,153,2,2,0,POSSIBLY RELATED,NONE,SKIN,RESOLVED,Y,,PEMBROLIZUMAB
KN564,KN564-0012,NAUSEA,118,144,2,2,0,POSSIBLY RELATED,NONE,GENERAL,RESOLVED,Y,,PEMBROLIZUMAB
KN564,KN564-0012,NAUSEA,303,343,2,2,0,POSSIBLY RELATED,NONE,GENERAL,RESOLVED,Y,,PEMBROLIZUMAB
KN564,KN564-0013,NAUSEA,87,108,1,1,0,RELATED,DISCONTINUED,GENERAL,RESOLVED,Y,,PEMBROLIZUMAB
KN564,KN564-0013,ARTHRALGIA,326,334,2,2,0,NOT RELATED,NONE,GENERAL,RESOLVED,Y,,PEMBROLIZUMAB
KN564,KN564-0017,NAUSEA,341,380,2,2,0,RELATED,NONE,GENERAL,RESOLVED,Y,,PEMBROLIZUMAB
KN564,KN564-0018,NAUSEA,285,293,2,2,0,NOT RELATED,NONE,GENERAL,RESOLVED,Y,,PEMBROLIZUMAB
KN564,KN564-0020,HYPERTHYROIDISM,342,384,1,1,0,RELATED,NONE,THYROID,RESOLVED,Y,IMMUNE-MEDIATED AES,PEMBROLIZUMAB
KN564,KN564-0022,FATIGUE,299,332,2,2,0,POSSIBLY RELATED,NONE,GENERAL,RESOLVED,Y,,PLACEBO
KN564,KN564-0024,ARTHRALGIA,76,108,2,2,0,NOT RELATED,NONE,GENERAL,RESOLVED,Y,,PEMBROLIZUMAB
KN564,KN564-0024,FATIGUE,119,151,1,1,0,POSSIBLY RELATED,NONE,GENERAL,RESOLVED,Y,,PEMBROLIZUMAB
KN564,KN564-0024,DIARRHEA,129,151,2,2,0,POSSIBLY RELATED,NONE,IMMUNE_MEDIATED,RESOLVED,Y,IMMUNE-MEDIATED AES,PEMBROLIZUMAB
KN564,KN564-0024,NAUSEA,131,173,1,1,0,POSSIBLY RELATED,NONE,GENERAL,RESOLVED,Y,,PEMBROLIZUMAB
KN564,KN564-0024,FATIGUE,267,295,1,1,0,POSSIBLY RELATED,NONE,GENERAL,RESOLVED,Y,,PEMBROLIZUMAB
KN564,KN564-0024,FATIGUE,329,364,2,2,0,RELATED,NONE,GENERAL,RESOLVED,Y,,PEMBROLIZUMAB
KN564,KN564-0025,DIARRHEA,7,26,1,1,0,POSSIBLY RELATED,NONE,IMMUNE_MEDIATED,RESOLVED,Y,IMMUNE-MEDIATED AES,PLACEBO
KN564,KN564-0025,DIARRHEA,296,325,1,1,0,POSSIBLY RELATED,NONE,IMMUNE_MEDIATED,RESOLVED,Y,IMMUNE-MEDIATED AES,PLACEBO
KN564,KN564-0029,FATIGUE,30,43,2,2,0,NOT RELATED,NONE,GENERAL,RESOLVED,Y,,PLACEBO
KN564,KN564-0029,ARTHRALGIA,221,248,2,2,0,POSSIBLY RELATED,NONE,GENERAL,RESOLVED,Y,,PLACEBO
KN564,KN564-0029,FATIGUE,296,313,1,1,0,POSSIBLY RELATED,NONE,GENERAL,RESOLVED,Y,,PLACEBO
KN564,KN564-0029,FATIGUE,330,344,1,1,0,NOT RELATED,NONE,GENERAL,RESOLVED,Y,,PLACEBO
KN564,KN564-0030,FATIGUE,7,29,2,2,0,RELATED,NONE,GENERAL,RESOLVED,Y,,PEMBROLIZUMAB
KN564,KN564-0030,FATIGUE,35,67,1,1,0,RELATED,NONE,GENERAL,RESOLVED,Y,,PEMBROLIZUMAB
KN564,KN564-0030,ARTHRALGIA,73,85,2,2,0,RELATED,NONE,GENERAL,RESOLVED,Y,,PEMBROLIZUMAB
KN564,KN564-0030,FATIGUE,110,139,2,2,0,NOT RELATED,NONE,GENERAL,RESOLVED,Y,,PEMBROLIZUMAB
KN564,KN564-0030,FATIGUE,194,230,3,3,1,NOT RELATED,DOSE_HELD,GENERAL,RESOLVED,Y,,PEMBROLIZUMAB
KN564,KN564-0030,FATIGUE,262,297,1,1,0,POSSIBLY RELATED,NONE,GENERAL,RESOLVED,Y,,PEMBROLIZUMAB
KN564,KN564-0030,FATIGUE,329,365,1,1,0,POSSIBLY RELATED,NONE,GENERAL,RESOLVED,Y,,PEMBROLIZUMAB
KN564,KN564-0031,ARTHRALGIA,276,289,1,1,0,RELATED,NONE,GENERAL,RESOLVED,Y,,PEMBROLIZUMAB
KN564,KN564-0032,DIARRHEA,52,91,2,2,0,RELATED,NONE,IMMUNE_MEDIATED,RESOLVED,Y,IMMUNE-MEDIATED AES,PEMBROLIZUMAB
KN564,KN564-0033,PRURITUS,116,151,1,1,0,POSSIBLY RELATED,NONE,SKIN,RESOLVED,Y,,PLACEBO
KN564,KN564-0036,HYPERTHYROIDISM,195,214,1,1,0,RELATED,NONE,THYROID,RESOLVED,Y,IMMUNE-MEDIATED AES,PEMBROLIZUMAB
KN564,KN564-0036,HYPOTHYROIDISM,237,245,1,1,0,RELATED,NONE,THYROID,ONGOING,Y,IMMUNE-MEDIATED AES,PEMBROLIZUMAB
KN564,KN564-0041,FATIGUE,135,157,2,2,0,RELATED,NONE,GENERAL,RESOLVED,Y,,PLACEBO
KN564,KN564-0042,HYPOTHYROIDISM,300,339,1,1,0,RELATED,NONE,THYROID,ONGOING,Y,IMMUNE-MEDIATED AES,PEMBROLIZUMAB
KN564,KN564-0043,DIARRHEA,4,20,1,1,0,RELATED,NONE,IMMUNE_MEDIATED,RESOLVED,Y,IMMUNE-MEDIATED AES,PEMBROLIZUMAB
KN564,KN564-0043,PRURITUS,135,173,1,1,0,POSSIBLY RELATED,NONE,SKIN,RESOLVED,Y,,PEMBROLIZUMAB
KN564,KN564-0043,FATIGUE,160,190,1,1,0,RELATED,NONE,GENERAL,RESOLVED,Y,,PEMBROLIZUMAB
KN564,KN564-0043,HYPOTHYROIDISM,197,214,2,2,0,RELATED,DISCONTINUED,THYROID,ONGOING,Y,IMMUNE-MEDIATED AES,PEMBROLIZUMAB
KN564,KN564-0043,PRURITUS,287,314,1,1,0,RELATED,NONE,SKIN,RESOLVED,Y,,PEMBROLIZUMAB
KN564,KN564-0043,FATIGUE,283,317,2,2,0,POSSIBLY RELATED,NONE,GENERAL,RESOLVED,Y,,PEMBROLIZUMAB
KN564,KN564-0044,ARTHRALGIA,96,132,1,1,0,POSSIBLY RELATED,NONE,GENERAL,RESOLVED,Y,,PEMBROLIZUMAB
KN564,KN564-0044,RASH,131,163,2,2,0,RELATED,NONE,SKIN,RESOLVED,Y,,PEMBROLIZUMAB
KN564,KN564-0044,RASH,183,194,1,1,0,POSSIBLY RELATED,NONE,SKIN,RESOLVED,Y,,PEMBROLIZUMAB
KN564,KN564-0046,HYPERTHYROIDISM,86,112,2,2,0,RELATED,NONE,THYROID,RESOLVED,Y,IMMUNE-MEDIATED AES,PEMBROLIZUMAB
KN564,KN564-0046,HYPOTHYROIDISM,110,117,2,2,0,RELATED,NONE,THYROID,ONGOING,Y,IMMUNE-MEDIATED AES,PEMBROLIZUMAB
KN564,KN564-0046,DIARRHEA,214,243,2,2,0,POSSIBLY RELATED,NONE,IMMUNE_MEDIATED,RESOLVED,Y,IMMUNE-MEDIATED AES,PEMBROLIZUMAB
KN564,KN564-0047,FATIGUE,148,156,2,2,0,POSSIBLY RELATED,NONE,GENERAL,RESOLVED,Y,,PEMBROLIZUMAB
KN564,KN564-0050,NAUSEA,266,277,1,1,0,NOT RELATED,NONE,GENERAL,RESOLVED,Y,,PLACEBO
KN564,KN564-0053,FATIGUE,220,241,1,1,0,POSSIBLY RELATED,NONE,GENERAL,RESOLVED,Y,,PLACEBO
KN564,KN564-0054,NAUSEA,129,141,1,1,0,POSSIBLY RELATED,NONE,GENERAL,RESOLVED,Y,,PEMBROLIZUMAB
KN564,KN564-0054,HYPERTHYROIDISM,232,272,2,2,0,RELATED,NONE,THYROID,RESOLVED,Y,IMMUNE-MEDIATED AES,PEMBROLIZUMAB
KN564,KN564-0054,HYPOTHYROIDISM,277,285,2,2,0,RELATED,NONE,THYROID,ONGOING,Y,IMMUNE-MEDIATED AES,PEMBROLIZUMAB
KN564,KN564-0055,HYPOTHYROIDISM,109,128,1,1,0,POSSIBLY RELATED,NONE,THYROID,ONGOING,Y,IMMUNE-MEDIATED AES,PLACEBO
KN564,KN564-0055,FATIGUE,203,229,2,2,0,POSSIBLY RELATED,NONE,GENERAL,RESOLVED,Y,,PLACEBO
KN564,KN564-0055,DIARRHEA,259,293,1,1,0,POSSIBLY RELATED,NONE,IMMUNE_MEDIATED,RESOLVED,Y,IMMUNE-MEDIATED AES,PLACEBO
KN564,KN564-0056,DIARRHEA,149,182,1,1,0,POSSIBLY RELATED,NONE,IMMUNE_MEDIATED,RESOLVED,Y,IMMUNE-MEDIATED AES,PEMBROLIZUMAB
KN564,KN564-0056,NAUSEA,329,350,2,2,0,RELATED,NONE,GENERAL,RESOLVED,Y,,PEMBROLIZUMAB
KN564,KN564-0057,RASH,237,262,2,2,0,RELATED,NONE,SKIN,RESOLVED,Y,,PEMBROLIZUMAB
KN564,KN564-0059,HYPERTHYROIDISM,64,75,1,1,0,RELATED,NONE,THYROID,RESOLVED,Y,IMMUNE-MEDIATED AES,PEMBROLIZUMAB
KN564,KN564-0059,HYPOTHYROIDISM,92,117,2,2,0,RELATED,NONE,THYROID,ONGOING,Y,IMMUNE-MEDIATED AES,PEMBROLIZUMAB
KN564,KN564-0063,DIARRHEA,172,183,3,3,0,RELATED,DOSE_HELD,IMMUNE_MEDIATED,RESOLVED,Y,IMMUNE-MEDIATED AES,PEMBROLIZUMAB
KN564,KN564-0065,FATIGUE,274,307,1,1,0,NOT RELATED,NONE,GENERAL,RESOLVED,Y,,PLACEBO
KN564,KN564-0067,FATIGUE,152,180,1,1,0,POSSIBLY RELATED,NONE,GENERAL,RESOLVED,Y,,PLACEBO
KN564,KN564-0069,HYPERTHYROIDISM,297,319,1,1,0,RELATED,NONE,THYROID,RESOLVED,Y,IMMUNE-MEDIATED AES,PEMBROLIZUMAB
KN564,KN564-0069,HYPOTHYROIDISM,320,357,1,1,0,RELATED,NONE,THYROID,ONGOING,Y,IMMUNE-MEDIATED AES,PEMBROLIZUMAB
KN564,KN564-0070,HYPERTHYROIDISM,6,45,2,2,0,RELATED,NONE,THYROID,RESOLVED,Y,IMMUNE-MEDIATED AES,PEMBROLIZUMAB
KN564,KN564-0070,HYPOTHYROIDISM,89,98,1,1,0,RELATED,NONE,THYROID,ONGOING,Y,IMMUNE-MEDIATED AES,PEMBROLIZUMAB
KN564,KN564-0072,NAUSEA,113,128,2,2,0,RELATED,DISCONTINUED,GENERAL,RESOLVED,Y,,PLACEBO
KN564,KN564-0072,DIARRHEA,172,180,3,3,1,POSSIBLY RELATED,DOSE_HELD,IMMUNE_MEDIATED,RESOLVED,Y,IMMUNE-MEDIATED AES,PLACEBO
KN564,KN564-0073,ARTHRALGIA,129,145,1,1,0,RELATED,NONE,GENERAL,RESOLVED,Y,,PEMBROLIZUMAB
KN564,KN564-0073,DIARRHEA,246,256,1,1,0,RELATED,NONE,IMMUNE_MEDIATED,RESOLVED,Y,IMMUNE-MEDIATED AES,PEMBROLIZUMAB
KN564,KN564-0075,FATIGUE,246,286,3,3,1,POSSIBLY RELATED,DOSE_HELD,GENERAL,RESOLVED,Y,,PLACEBO
KN564,KN564-0078,HYPERTHYROIDISM,49,62,2,2,0,RELATED,NONE,THYROID,RESOLVED,Y,IMMUNE-MEDIATED AES,PEMBROLIZUMAB
KN564,KN564-0078,HYPOTHYROIDISM,107,130,1,1,0,RELATED,NONE,THYROID,ONGOING,Y,IMMUNE-MEDIATED AES,PEMBROLIZUMAB
KN564,KN564-0078,ARTHRALGIA,112,154,2,2,0,POSSIBLY RELATED,NONE,GENERAL,RESOLVED,Y,,PEMBROLIZUMAB
KN564,KN564-0080,DIARRHEA,179,211,2,2,0,POSSIBLY RELATED,NONE,IMMUNE_MEDIATED,RESOLVED,Y,IMMUNE-MEDIATED AES,PEMBROLIZUMAB
KN564,KN564-0082,RASH,170,197,1,1,0,RELATED,NONE,SKIN,RESOLVED,Y,,PEMBROLIZUMAB
KN564,KN564-0084,ARTHRALGIA,244,275,2,2,0,POSSIBLY RELATED,NONE,GENERAL,RESOLVED,Y,,PLACEBO
KN564,KN564-0085,NAUSEA,6,23,1,1,0,POSSIBLY RELATED,NONE,GENERAL,RESOLVED,Y,,PEMBROLIZUMAB
KN564,KN564-0085,NAUSEA,53,85,2,2,0,POSSIBLY RELATED,NONE,GENERAL,RESOLVED,Y,,PEMBROLIZUMAB
KN564,KN564-0085,NAUSEA,99,130,1,1,0,POSSIBLY RELATED,NONE,GENERAL,RESOLVED,Y,,PEMBROLIZUMAB
KN564,KN564-0086,PRURITUS,242,259,3,3,0,POSSIBLY RELATED,DOSE_HELD,SKIN,RESOLVED,Y,,PLACEBO
KN564,KN564-0087,FATIGUE,150,164,2,2,0,POSSIBLY RELATED,NONE,GENERAL,RESOLVED,Y,,PLACEBO
KN564,KN564-0088,HYPOTHYROIDISM,2,41,1,1,0,RELATED,NONE,THYROID,ONGOING,Y,IMMUNE-MEDIATED AES,PEMBROLIZUMAB
KN564,KN564-0088,FATIGUE,34,48,2,2,0,NOT RELATED,NONE,GENERAL,RESOLVED,Y,,PEMBROLIZUMAB
KN564,KN564-0088,FATIGUE,45,84,2,2,0,RELATED,NONE,GENERAL,RESOLVED,Y,,PEMBROLIZUMAB
KN564,KN564-0088,FATIGUE,151,158,1,1,0,RELATED,NONE,GENERAL,RESOLVED,Y,,PEMBROLIZUMAB
KN564,KN564-0088,RASH,283,302,2,2,0,RELATED,NONE,SKIN,RESOLVED,Y,,PEMBROLIZUMAB
KN564,KN564-0088,FATIGUE,341,350,1,1,0,POSSIBLY RELATED,NONE,GENERAL,RESOLVED,Y,,PEMBROLIZUMAB
KN564,KN564-0089,ARTHRALGIA,91,123,1,1,0,RELATED,NONE,GENERAL,RESOLVED,Y,,PLACEBO
KN564,KN564-0089,ARTHRALGIA,159,183,2,2,1,POSSIBLY RELATED,NONE,GENERAL,RESOLVED,Y,,PLACEBO
KN564,KN564-0089,FATIGUE,260,268,2,2,0,RELATED,NONE,GENERAL,RESOLVED,Y,,PLACEBO
KN564,KN564-0089,FATIGUE,348,374,1,1,0,POSSIBLY RELATED,NONE,GENERAL,RESOLVED,Y,,PLACEBO
KN564,KN564-0091,FATIGUE,96,116,1,1,0,POSSIBLY RELATED,NONE,GENERAL,RESOLVED,Y,,PEMBROLIZUMAB
KN564,KN564-0091,FATIGUE,109,125,2,2,0,RELATED,NONE,GENERAL,RESOLVED,Y,,PEMBROLIZUMAB
KN564,KN564-0091,HYPERTHYROIDISM,134,142,2,2,0,RELATED,DISCONTINUED,THYROID,RESOLVED,Y,IMMUNE-MEDIATED AES,PEMBROLIZUMAB
KN564,KN564-0091,FATIGUE,129,139,2,2,1,RELATED,NONE,GENERAL,RESOLVED,Y,,PEMBROLIZUMAB
KN564,KN564-0091,FATIGUE,183,213,1,1,0,POSSIBLY RELATED,NONE,GENERAL,RESOLVED,Y,,PEMBROLIZUMAB
KN564,KN564-0091,HYPOTHYROIDISM,195,209,1,1,0,RELATED,NONE,THYROID,ONGOING,Y,IMMUNE-MEDIATED AES,PEMBROLIZUMAB
KN564,KN564-0091,FATIGUE,221,260,3,3,0,NOT RELATED,DOSE_HELD,GENERAL,RESOLVED,Y,,PEMBROLIZUMAB
KN564,KN564-0091,ARTHRALGIA,215,254,2,2,0,POSSIBLY RELATED,NONE,GENERAL,RESOLVED,Y,,PEMBROLIZUMAB
KN564,KN564-0093,DIARRHEA,3,15,2,2,0,RELATED,NONE,IMMUNE_MEDIATED,RESOLVED,Y,IMMUNE-MEDIATED AES,PEMBROLIZUMAB
KN564,KN564-0093,RASH,22,54,2,2,0,RELATED,NONE,SKIN,RESOLVED,Y,,PEMBROLIZUMAB
KN564,KN564-0093,DIARRHEA,295,309,1,1,0,RELATED,NONE,IMMUNE_MEDIATED,RESOLVED,Y,IMMUNE-MEDIATED AES,PEMBROLIZUMAB
KN564,KN564-0094,HYPERTHYROIDISM,175,217,2,2,0,RELATED,NONE,THYROID,RESOLVED,Y,IMMUNE-MEDIATED AES,PEMBROLIZUMAB
KN564,KN564-0094,DIARRHEA,266,290,1,1,0,RELATED,NONE,IMMUNE_MEDIATED,RESOLVED,Y,IMMUNE-MEDIATED AES,PEMBROLIZUMAB
KN564,KN564-0094,HYPOTHYROIDISM,300,333,1,1,0,RELATED,NONE,THYROID,ONGOING,Y,IMMUNE-MEDIATED AES,PEMBROLIZUMAB
KN564,KN564-0097,FATIGUE,154,181,2,2,0,POSSIBLY RELATED,NONE,GENERAL,RESOLVED,Y,,PEMBROLIZUMAB
KN564,KN564-0097,FATIGUE,309,317,2,2,0,NOT RELATED,NONE,GENERAL,RESOLVED,Y,,PEMBROLIZUMAB
KN564,KN564-0099,FATIGUE,46,56,2,2,0,POSSIBLY RELATED,NONE,GENERAL,RESOLVED,Y,,PEMBROLIZUMAB
KN564,KN564-0099,FATIGUE,78,101,1,1,0,RELATED,NONE,GENERAL,RESOLVED,Y,,PEMBROLIZUMAB
KN564,KN564-0099,FATIGUE,93,125,2,2,0,NOT RELATED,NONE,GENERAL,RESOLVED,Y,,PEMBROLIZUMAB
KN564,KN564-0099,ARTHRALGIA,89,126,2,2,0,POSSIBLY RELATED,NONE,GENERAL,RESOLVED,Y,,PEMBROLIZUMAB
KN564,KN564-0099,FATIGUE,154,178,2,2,0,POSSIBLY RELATED,NONE,GENERAL,RESOLVED,Y,,PEMBROLIZUMAB
KN564,KN564-0099,FATIGUE,193,231,1,1,0,POSSIBLY RELATED,NONE,GENERAL,RESOLVED,Y,,PEMBROLIZUMAB
KN564,KN564-0099,ARTHRALGIA,215,235,2,2,0,POSSIBLY RELATED,NONE,GENERAL,RESOLVED,Y,,PEMBROLIZUMAB
KN564,KN564-0099,ARTHRALGIA,236,251,2,2,0,POSSIBLY RELATED,NONE,GENERAL,RESOLVED,Y,,PEMBROLIZUMAB
KN564,KN564-0099,FATIGUE,262,292,2,2,0,POSSIBLY RELATED,NONE,GENERAL,RESOLVED,Y,,PEMBROLIZUMAB
KN564,KN564-0099,FATIGUE,285,293,2,2,0,POSSIBLY RELATED,DISCONTINUED,GENERAL,RESOLVED,Y,,PEMBROLIZUMAB
KN564,KN564-0099,FATIGUE,346,355,2,2,0,POSSIBLY RELATED,NONE,GENERAL,RESOLVED,Y,,PEMBROLIZUMAB
KN564,KN564-0099,ARTHRALGIA,348,384,1,1,0,POSSIBLY RELATED,NONE,GENERAL,RESOLVED,Y,,PEMBROLIZUMAB
KN564,KN564-0100,NAUSEA,32,49,2,2,0,NOT RELATED,NONE,GENERAL,RESOLVED,Y,,PLACEBO
KN564,KN564-0100,RASH,44,67,2,2,0,POSSIBLY RELATED,NONE,SKIN,RESOLVED,Y,,PLACEBO
KN564,KN564-0100,NAUSEA,93,108,2,2,0,NOT RELATED,NONE,GENERAL,RESOLVED,Y,,PLACEBO
KN564,KN564-0100,NAUSEA,182,193,1,1,0,POSSIBLY RELATED,NONE,GENERAL,RESOLVED,Y,,PLACEBO
KN564,KN564-0100,RASH,318,336,1,1,0,POSSIBLY RELATED,NONE,SKIN,RESOLVED,Y,,PLACEBO
KN564,KN564-0103,RASH,67,91,3,3,0,POSSIBLY RELATED,DOSE_HELD,SKIN,RESOLVED,Y,,PLACEBO
KN564,KN564-0103,PRURITUS,133,164,2,2,0,POSSIBLY RELATED,NONE,SKIN,RESOLVED,Y,,PLACEBO
KN564,KN564-0104,FATIGUE,347,354,1,1,0,NOT RELATED,NONE,GENERAL,RESOLVED,Y,,PLACEBO
KN564,KN564-0105,DIARRHEA,276,294,1,1,0,RELATED,NONE,IMMUNE_MEDIATED,RESOLVED,Y,IMMUNE-MEDIATED AES,PEMBROLIZUMAB
KN564,KN564-0107,RASH,6,36,1,1,0,RELATED,NONE,SKIN,RESOLVED,Y,,PEMBROLIZUMAB
KN564,KN564-0108,FATIGUE,34,48,1,1,0,NOT RELATED,NONE,GENERAL,RESOLVED,Y,,PLACEBO
KN564,KN564-0108,FATIGUE,238,267,1,1,0,NOT RELATED,NONE,GENERAL,RESOLVED,Y,,PLACEBO
KN564,KN564-0108,ARTHRALGIA,298,307,1,1,0,RELATED,NONE,GENERAL,RESOLVED,Y,,PLACEBO
KN564,KN564-0110,FATIGUE,91,115,1,1,0,NOT RELATED,NONE,GENERAL,RESOLVED,Y,,PLACEBO
KN564,KN564-0110,PRURITUS,347,389,1,1,0,NOT RELATED,NONE,SKIN,RESOLVED,Y,,PLACEBO
KN564,KN564-0111,HYPOTHYROIDISM,22,36,1,1,0,POSSIBLY RELATED,NONE,THYROID,ONGOING,Y,IMMUNE-MEDIATED AES,PLACEBO
KN564,KN564-0111,DIARRHEA,222,236,2,2,0,POSSIBLY RELATED,NONE,IMMUNE_MEDIATED,RESOLVED,Y,IMMUNE-MEDIATED AES,PLACEBO
KN564,KN564-0111,PRURITUS,242,260,2,2,1,NOT RELATED,NONE,SKIN,RESOLVED,Y,,PLACEBO
KN564,KN564-0112,FATIGUE,11,52,2,2,0,NOT RELATED,NONE,GENERAL,RESOLVED,Y,,PEMBROLIZUMAB
KN564,KN564-0113,HYPERTHYROIDISM,71,85,1,1,0,RELATED,NONE,THYROID,RESOLVED,Y,IMMUNE-MEDIATED AES,PEMBROLIZUMAB
KN564,KN564-0113,HYPOTHYROIDISM,152,165,2,2,0,RELATED,NONE,THYROID,ONGOING,Y,IMMUNE-MEDIATED AES,PEMBROLIZUMAB
KN564,KN564-0113,PRURITUS,341,352,1,1,0,RELATED,NONE,SKIN,RESOLVED,Y,,PEMBROLIZUMAB
KN564,KN564-0114,HYPOTHYROIDISM,152,185,2,2,0,RELATED,NONE,THYROID,ONGOING,Y,IMMUNE-MEDIATED AES,PEMBROLIZUMAB
KN564,KN564-0117,PRURITUS,254,290,2,2,0,POSSIBLY RELATED,NONE,SKIN,RESOLVED,Y,,PLACEBO
KN564,KN564-0118,DIARRHEA,162,176,1,1,0,POSSIBLY RELATED,NONE,IMMUNE_MEDIATED,RESOLVED,Y,IMMUNE-MEDIATED AES,PEMBROLIZUMAB
KN564,KN564-0119,FATIGUE,72,110,1,1,0,NOT RELATED,NONE,GENERAL,RESOLVED,Y,,PEMBROLIZUMAB
KN564,KN564-0119,FATIGUE,117,126,2,2,0,POSSIBLY RELATED,NONE,GENERAL,RESOLVED,Y,,PEMBROLIZUMAB
KN564,KN564-0119,ARTHRALGIA,118,147,2,2,0,RELATED,DISCONTINUED,GENERAL,RESOLVED,Y,,PEMBROLIZUMAB
KN564,KN564-0119,FATIGUE,153,163,1,1,0,RELATED,NONE,GENERAL,RESOLVED,Y,,PEMBROLIZUMAB
KN564,KN564-0119,FATIGUE,278,303,1,1,0,POSSIBLY RELATED,NONE,GENERAL,RESOLVED,Y,,PEMBROLIZUMAB
KN564,KN564-0119,FATIGUE,323,346,1,1,0,POSSIBLY RELATED,NONE,GENERAL,RESOLVED,Y,,PEMBROLIZUMAB
KN564,KN564-0119,FATIGUE,338,373,2,2,0,POSSIBLY RELATED,NONE,GENERAL,RESOLVED,Y,,PEMBROLIZUMAB
KN564,KN564-0120,HYPERTHYROIDISM,44,72,1,1,0,RELATED,NONE,THYROID,RESOLVED,Y,IMMUNE-MEDIATED AES,PEMBROLIZUMAB
KN564,KN564-0120,HYPOTHYROIDISM,148,160,1,1,0,RELATED,NONE,THYROID,ONGOING,Y,IMMUNE-MEDIATED AES,PEMBROLIZUMAB
KN564,KN564-0122,NAUSEA,28,66,2,2,0,NOT RELATED,NONE,GENERAL,RESOLVED,Y,,PLACEBO
KN564,KN564-0122,DIARRHEA,192,206,2,2,0,NOT RELATED,NONE,IMMUNE_MEDIATED,RESOLVED,Y,IMMUNE-MEDIATED AES,PLACEBO
KN564,KN564-0124,FATIGUE,75,107,1,1,0,POSSIBLY RELATED,NONE,GENERAL,RESOLVED,Y,,PLACEBO
KN564,KN564-0125,HYPERTHYROIDISM,89,123,1,1,0,RELATED,NONE,THYROID,RESOLVED,Y,IMMUNE-MEDIATED AES,PEMBROLIZUMAB
KN564,KN564-0125,HYPOTHYROIDISM,127,151,1,1,0,RELATED,NONE,THYROID,ONGOING,Y,IMMUNE-MEDIATED AES,PEMBROLIZUMAB
KN564,KN564-0127,RASH,30,40,3,3,0,RELATED,DOSE_HELD,SKIN,RESOLVED,Y,,PEMBROLIZUMAB
KN564,KN564-0128,FATIGUE,7,27,2,2,0,POSSIBLY RELATED,NONE,GENERAL,RESOLVED,Y,,PEMBROLIZUMAB
KN564,KN564-0128,ARTHRALGIA,51,61,1,1,0,NOT RELATED,NONE,GENERAL,RESOLVED,Y,,PEMBROLIZUMAB
KN564,KN564-0128,FATIGUE,72,102,2,2,0,RELATED,NONE,GENERAL,RESOLVED,Y,,PEMBROLIZUMAB
KN564,KN564-0128,ARTHRALGIA,65,107,1,1,0,POSSIBLY RELATED,NONE,GENERAL,RESOLVED,Y,,PEMBROLIZUMAB
KN564,KN564-0128,FATIGUE,94,130,2,2,0,NOT RELATED,NONE,GENERAL,RESOLVED,Y,,PEMBROLIZUMAB
KN564,KN564-0128,ARTHRALGIA,94,123,3,3,1,POSSIBLY RELATED,DISCONTINUED,GENERAL,RESOLVED,Y,,PEMBROLIZUMAB
KN564,KN564-0128,FATIGUE,119,144,1,1,0,NOT RELATED,NONE,GENERAL,RESOLVED,Y,,PEMBROLIZUMAB
KN564,KN564-0128,FATIGUE,128,153,2,2,0,POSSIBLY RELATED,NONE,GENERAL,RESOLVED,Y,,PEMBROLIZUMAB
KN564,KN564-0130,NAUSEA,98,127,2,2,0,RELATED,NONE,GENERAL,RESOLVED,Y,,PEMBROLIZUMAB
KN564,KN564-0132,PRURITUS,32,72,2,2,0,RELATED,NONE,SKIN,RESOLVED,Y,,PEMBROLIZUMAB
KN564,KN564-0133,FATIGUE,176,207,2,2,0,POSSIBLY RELATED,NONE,GENERAL,RESOLVED,Y,,PLACEBO
KN564,KN564-0133,FATIGUE,211,224,2,2,0,NOT RELATED,NONE,GENERAL,RESOLVED,Y,,PLACEBO
KN564,KN564-0135,HYPERTHYROIDISM,3,43,1,1,0,RELATED,NONE,THYROID,RESOLVED,Y,IMMUNE-MEDIATED AES,PEMBROLIZUMAB
KN564,KN564-0135,PRURITUS,36,56,2,2,0,RELATED,NONE,SKIN,RESOLVED,Y,,PEMBROLIZUMAB
KN564,KN564-0135,HYPOTHYROIDISM,89,111,1,1,0,RELATED,NONE,THYROID,ONGOING,Y,IMMUNE-MEDIATED AES,PEMBROLIZUMAB
KN564,KN564-0135,FATIGUE,176,211,1,1,0,POSSIBLY RELATED,NONE,GENERAL,RESOLVED,Y,,PEMBROLIZUMAB
KN564,KN564-0137,FATIGUE,262,288,1,1,0,NOT RELATED,NONE,GENERAL,RESOLVED,Y,,PLACEBO
KN564,KN564-0138,FATIGUE,67,92,2,2,0,POSSIBLY RELATED,NONE,GENERAL,RESOLVED,Y,,PEMBROLIZUMAB
KN564,KN564-0138,FATIGUE,109,145,1,1,0,POSSIBLY RELATED,NONE,GENERAL,RESOLVED,Y,,PEMBROLIZUMAB
KN564,KN564-0138,ARTHRALGIA,150,189,1,1,0,POSSIBLY RELATED,NONE,GENERAL,RESOLVED,Y,,PEMBROLIZUMAB
KN564,KN564-0138,FATIGUE,266,278,2,2,0,NOT RELATED,NONE,GENERAL,RESOLVED,Y,,PEMBROLIZUMAB
KN564,KN564-0138,FATIGUE,351,361,2,2,0,NOT RELATED,NONE,GENERAL,RESOLVED,Y,,PEMBROLIZUMAB
KN564,KN564-0139,FATIGUE,7,38,2,2,0,POSSIBLY RELATED,NONE,GENERAL,RESOLVED,Y,,PEMBROLIZUMAB
KN564,KN564-0139,NAUSEA,55,70,1,1,0,POSSIBLY RELATED,NONE,GENERAL,RESOLVED,Y,,PEMBROLIZUMAB
KN564,KN564-0139,NAUSEA,68,96,3,3,0,POSSIBLY RELATED,DISCONTINUED,GENERAL,RESOLVED,Y,,PEMBROLIZUMAB
KN564,KN564-0139,RASH,118,159,1,1,0,RELATED,NONE,SKIN,RESOLVED,Y,,PEMBROLIZUMAB
KN564,KN564-0139,NAUSEA,120,146,1,1,0,POSSIBLY RELATED,NONE,GENERAL,RESOLVED,Y,,PEMBROLIZUMAB
KN564,KN564-0139,NAUSEA,222,261,1,1,0,POSSIBLY RELATED,NONE,GENERAL,RESOLVED,Y,,PEMBROLIZUMAB
KN564,KN564-0139,FATIGUE,240,265,1,1,0,NOT RELATED,NONE,GENERAL,RESOLVED,Y,,PEMBROLIZUMAB
KN564,KN564-0139,NAUSEA,243,256,2,2,0,POSSIBLY RELATED,NONE,GENERAL,RESOLVED,Y,,PEMBROLIZUMAB
KN564,KN564-0140,NAUSEA,232,266,2,2,0,POSSIBLY RELATED,NONE,GENERAL,RESOLVED,Y,,PEMBROLIZUMAB
KN564,KN564-0140,RASH,284,324,3,3,0,POSSIBLY RELATED,DOSE_HELD,SKIN,RESOLVED,Y,,PEMBROLIZUMAB
KN564,KN564-0143,PRURITUS,67,93,2,2,0,POSSIBLY RELATED,NONE,SKIN,RESOLVED,Y,,PLACEBO
KN564,KN564-0144,HYPERTHYROIDISM,7,28,2,2,0,RELATED,NONE,THYROID,RESOLVED,Y,IMMUNE-MEDIATED AES,PEMBROLIZUMAB
KN564,KN564-0144,HYPOTHYROIDISM,154,195,2,2,0,RELATED,NONE,THYROID,ONGOING,Y,IMMUNE-MEDIATED AES,PEMBROLIZUMAB
KN564,KN564-0144,DIARRHEA,235,248,1,1,0,RELATED,NONE,IMMUNE_MEDIATED,RESOLVED,Y,IMMUNE-MEDIATED AES,PEMBROLIZUMAB
KN564,KN564-0145,ARTHRALGIA,191,220,1,1,0,NOT RELATED,NONE,GENERAL,RESOLVED,Y,,PLACEBO
KN564,KN564-0146,HYPERTHYROIDISM,87,105,1,1,0,RELATED,DISCONTINUED,THYROID,RESOLVED,Y,IMMUNE-MEDIATED AES,PEMBROLIZUMAB
KN564,KN564-0146,HYPOTHYROIDISM,107,148,1,1,0,RELATED,NONE,THYROID,ONGOING,Y,IMMUNE-MEDIATED AES,PEMBROLIZUMAB
KN564,KN564-0147,ARTHRALGIA,4,32,2,2,0,NOT RELATED,DISCONTINUED,GENERAL,RESOLVED,Y,,PLACEBO
KN564,KN564-0147,ARTHRALGIA,54,67,1,1,0,NOT RELATED,NONE,GENERAL,RESOLVED,Y,,PLACEBO
KN564,KN564-0147,FATIGUE,87,105,1,1,0,POSSIBLY RELATED,NONE,GENERAL,RESOLVED,Y,,PLACEBO
KN564,KN564-0147,ARTHRALGIA,96,113,1,1,0,RELATED,NONE,GENERAL,RESOLVED,Y,,PLACEBO
KN564,KN564-0147,FATIGUE,140,152,1,1,0,POSSIBLY RELATED,NONE,GENERAL,RESOLVED,Y,,PLACEBO
KN564,KN564-0148,ARTHRALGIA,256,286,2,2,1,NOT RELATED,NONE,GENERAL,RESOLVED,Y,,PLACEBO
KN564,KN564-0151,FATIGUE,4,32,2,2,0,RELATED,NONE,GENERAL,RESOLVED,Y,,PEMBROLIZUMAB
KN564,KN564-0151,HYPERTHYROIDISM,45,70,2,2,1,RELATED,NONE,THYROID,RESOLVED,Y,IMMUNE-MEDIATED AES,PEMBROLIZUMAB
KN564,KN564-0151,HYPOTHYROIDISM,196,224,1,1,0,RELATED,NONE,THYROID,ONGOING,Y,IMMUNE-MEDIATED AES,PEMBROLIZUMAB
KN564,KN564-0152,HYPOTHYROIDISM,152,180,2,2,0,RELATED,NONE,THYROID,ONGOING,Y,IMMUNE-MEDIATED AES,PEMBROLIZUMAB
KN564,KN564-0152,FATIGUE,148,173,2,2,0,POSSIBLY RELATED,NONE,GENERAL,RESOLVED,Y,,PEMBROLIZUMAB
KN564,KN564-0153,FATIGUE,12,52,1,1,0,RELATED,NONE,GENERAL,RESOLVED,Y,,PEMBROLIZUMAB
KN564,KN564-0153,FATIGUE,55,88,2,2,0,POSSIBLY RELATED,NONE,GENERAL,RESOLVED,Y,,PEMBROLIZUMAB
KN564,KN564-0153,ARTHRALGIA,69,79,2,2,0,POSSIBLY RELATED,NONE,GENERAL,RESOLVED,Y,,PEMBROLIZUMAB
KN564,KN564-0153,FATIGUE,151,167,2,2,0,POSSIBLY RELATED,NONE,GENERAL,RESOLVED,Y,,PEMBROLIZUMAB
KN564,KN564-0153,FATIGUE,341,357,1,1,0,POSSIBLY RELATED,NONE,GENERAL,RESOLVED,Y,,PEMBROLIZUMAB
KN564,KN564-0159,FATIGUE,152,182,2,2,0,POSSIBLY RELATED,NONE,GENERAL,RESOLVED,Y,,PEMBROLIZUMAB
KN564,KN564-0160,PRURITUS,120,159,3,3,1,POSSIBLY RELATED,DOSE_HELD,SKIN,RESOLVED,Y,,PLACEBO
KN564,KN564-0160,HYPOTHYROIDISM,130,147,1,1,0,POSSIBLY RELATED,NONE,THYROID,ONGOING,Y,IMMUNE-MEDIATED AES,PLACEBO
KN564,KN564-0161,NAUSEA,176,199,2,2,0,RELATED,NONE,GENERAL,RESOLVED,Y,,PLACEBO
KN564,KN564-0162,ARTHRALGIA,296,305,1,1,0,POSSIBLY RELATED,NONE,GENERAL,RESOLVED,Y,,PEMBROLIZUMAB
KN564,KN564-0165,FATIGUE,43,51,2,2,0,NOT RELATED,NONE,GENERAL,RESOLVED,Y,,PEMBROLIZUMAB
KN564,KN564-0166,DIARRHEA,68,86,2,2,0,POSSIBLY RELATED,NONE,IMMUNE_MEDIATED,RESOLVED,Y,IMMUNE-MEDIATED AES,PEMBROLIZUMAB
KN564,KN564-0166,HYPERTHYROIDISM,152,185,2,2,0,RELATED,DISCONTINUED,THYROID,RESOLVED,Y,IMMUNE-MEDIATED AES,PEMBROLIZUMAB
KN564,KN564-0166,HYPOTHYROIDISM,191,208,1,1,0,RELATED,NONE,THYROID,ONGOING,Y,IMMUNE-MEDIATED AES,PEMBROLIZUMAB
KN564,KN564-0166,RASH,277,291,2,2,0,RELATED,NONE,SKIN,RESOLVED,Y,,PEMBROLIZUMAB
KN564,KN564-0168,RASH,225,249,2,2,0,RELATED,NONE,SKIN,RESOLVED,Y,,PEMBROLIZUMAB
KN564,KN564-0169,FATIGUE,36,74,1,1,0,POSSIBLY RELATED,NONE,GENERAL,RESOLVED,Y,,PLACEBO
KN564,KN564-0169,FATIGUE,71,112,1,1,0,NOT RELATED,NONE,GENERAL,RESOLVED,Y,,PLACEBO
KN564,KN564-0171,PRURITUS,99,135,1,1,0,POSSIBLY RELATED,NONE,SKIN,RESOLVED,Y,,PLACEBO
KN564,KN564-0171,DIARRHEA,245,286,1,1,0,NOT RELATED,NONE,IMMUNE_MEDIATED,RESOLVED,Y,IMMUNE-MEDIATED AES,PLACEBO
KN564,KN564-0171,HYPOTHYROIDISM,259,285,1,1,0,POSSIBLY RELATED,NONE,THYROID,ONGOING,Y,IMMUNE-MEDIATED AES,PLACEBO
KN564,KN564-0172,RASH,78,120,2,2,0,RELATED,NONE,SKIN,RESOLVED,Y,,PEMBROLIZUMAB
KN564,KN564-0172,NAUSEA,198,209,1,1,0,POSSIBLY RELATED,NONE,GENERAL,RESOLVED,Y,,PEMBROLIZUMAB
KN564,KN564-0172,HYPOTHYROIDISM,253,270,1,1,0,RELATED,NONE,THYROID,ONGOING,Y,IMMUNE-MEDIATED AES,PEMBROLIZUMAB
KN564,KN564-0175,PRURITUS,175,184,3,3,1,POSSIBLY RELATED,DOSE_HELD,SKIN,RESOLVED,Y,,PEMBROLIZUMAB
KN564,KN564-0175,DIARRHEA,286,306,2,2,0,RELATED,NONE,IMMUNE_MEDIATED,RESOLVED,Y,IMMUNE-MEDIATED AES,PEMBROLIZUMAB
KN564,KN564-0176,RASH,4,31,1,1,0,POSSIBLY RELATED,NONE,SKIN,RESOLVED,Y,,PEMBROLIZUMAB
KN564,KN564-0176,HYPERTHYROIDISM,49,60,2,2,0,RELATED,NONE,THYROID,RESOLVED,Y,IMMUNE-MEDIATED AES,PEMBROLIZUMAB
KN564,KN564-0176,HYPOTHYROIDISM,92,105,1,1,0,RELATED,NONE,THYROID,ONGOING,Y,IMMUNE-MEDIATED AES,PEMBROLIZUMAB
KN564,KN564-0176,DIARRHEA,128,153,1,1,0,RELATED,NONE,IMMUNE_MEDIATED,RESOLVED,Y,IMMUNE-MEDIATED AES,PEMBROLIZUMAB
KN564,KN564-0176,DIARRHEA,215,249,1,1,0,RELATED,NONE,IMMUNE_MEDIATED,RESOLVED,Y,IMMUNE-MEDIATED AES,PEMBROLIZUMAB
KN564,KN564-0181,NAUSEA,31,73,1,1,0,NOT RELATED,NONE,GENERAL,RESOLVED,Y,,PEMBROLIZUMAB
KN564,KN564-0183,ARTHRALGIA,69,92,2,2,0,POSSIBLY RELATED,NONE,GENERAL,RESOLVED,Y,,PEMBROLIZUMAB
KN564,KN564-0183,ARTHRALGIA,195,234,1,1,0,RELATED,NONE,GENERAL,RESOLVED,Y,,PEMBROLIZUMAB
KN564,KN564-0183,FATIGUE,262,277,2,2,0,POSSIBLY RELATED,NONE,GENERAL,RESOLVED,Y,,PEMBROLIZUMAB
KN564,KN564-0183,ARTHRALGIA,301,320,2,2,0,POSSIBLY RELATED,NONE,GENERAL,RESOLVED,Y,,PEMBROLIZUMAB
KN564,KN564-0184,FATIGUE,55,71,2,2,0,RELATED,NONE,GENERAL,RESOLVED,Y,,PEMBROLIZUMAB
KN564,KN564-0185,PRURITUS,296,332,2,2,0,NOT RELATED,NONE,SKIN,RESOLVED,Y,,PLACEBO
KN564,KN564-0191,FATIGUE,127,151,1,1,0,POSSIBLY RELATED,NONE,GENERAL,RESOLVED,Y,,PEMBROLIZUMAB
KN564,KN564-0191,NAUSEA,348,371,1,1,0,POSSIBLY RELATED,NONE,GENERAL,RESOLVED,Y,,PEMBROLIZUMAB
KN564,KN564-0193,ARTHRALGIA,330,368,2,2,0,RELATED,NONE,GENERAL,RESOLVED,Y,,PEMBROLIZUMAB
KN564,KN564-0195,FATIGUE,45,59,2,2,0,NOT RELATED,NONE,GENERAL,RESOLVED,Y,,PLACEBO
KN564,KN564-0195,NAUSEA,78,106,2,2,0,POSSIBLY RELATED,NONE,GENERAL,RESOLVED,Y,,PLACEBO
KN564,KN564-0195,FATIGUE,326,333,2,2,0,POSSIBLY RELATED,NONE,GENERAL,RESOLVED,Y,,PLACEBO
KN564,KN564-0195,FATIGUE,345,358,2,2,0,NOT RELATED,NONE,GENERAL,RESOLVED,Y,,PLACEBO
KN564,KN564-0196,FATIGUE,264,302,1,1,0,NOT RELATED,NONE,GENERAL,RESOLVED,Y,,PLACEBO
KN564,KN564-0196,ARTHRALGIA,282,296,1,1,0,NOT RELATED,NONE,GENERAL,RESOLVED,Y,,PLACEBO
KN564,KN564-0197,NAUSEA,235,276,1,1,0,POSSIBLY RELATED,NONE,GENERAL,RESOLVED,Y,,PLACEBO
KN564,KN564-0198,FATIGUE,117,158,2,2,0,POSSIBLY RELATED,NONE,GENERAL,RESOLVED,Y,,PLACEBO
KN564,KN564-0199,PRURITUS,317,342,1,1,0,POSSIBLY RELATED,NONE,SKIN,RESOLVED,Y,,PEMBROLIZUMAB
KN564,KN564-0202,FATIGUE,178,218,2,2,0,POSSIBLY RELATED,NONE,GENERAL,RESOLVED,Y,,PEMBROLIZUMAB
KN564,KN564-0202,FATIGUE,274,287,2,2,0,RELATED,NONE,GENERAL,RESOLVED,Y,,PEMBROLIZUMAB
KN564,KN564-0203,FATIGUE,305,335,1,1,0,POSSIBLY RELATED,NONE,GENERAL,RESOLVED,Y,,PEMBROLIZUMAB
KN564,KN564-0204,FATIGUE,199,240,1,1,1,POSSIBLY RELATED,NONE,GENERAL,RESOLVED,Y,,PLACEBO
KN564,KN564-0205,NAUSEA,47,64,1,1,0,NOT RELATED,NONE,GENERAL,RESOLVED,Y,,PLACEBO
KN564,KN564-0205,DIARRHEA,309,334,2,2,0,NOT RELATED,NONE,IMMUNE_MEDIATED,RESOLVED,Y,IMMUNE-MEDIATED AES,PLACEBO
KN564,KN564-0205,RASH,342,381,2,2,0,POSSIBLY RELATED,NONE,SKIN,RESOLVED,Y,,PLACEBO
KN564,KN564-0206,HYPOTHYROIDISM,43,73,2,2,0,RELATED,NONE,THYROID,ONGOING,Y,IMMUNE-MEDIATED AES,PEMBROLIZUMAB
KN564,KN564-0206,PRURITUS,66,84,2,2,0,RELATED,NONE,SKIN,RESOLVED,Y,,PEMBROLIZUMAB
KN564,KN564-0206,FATIGUE,183,220,2,2,0,RELATED,NONE,GENERAL,RESOLVED,Y,,PEMBROLIZUMAB
KN564,KN564-0208,HYPERTHYROIDISM,70,84,1,1,0,RELATED,NONE,THYROID,RESOLVED,Y,IMMUNE-MEDIATED AES,PEMBROLIZUMAB
KN564,KN564-0208,NAUSEA,110,130,1,1,0,POSSIBLY RELATED,NONE,GENERAL,RESOLVED,Y,,PEMBROLIZUMAB
KN564,KN564-0208,HYPOTHYROIDISM,148,157,1,1,0,RELATED,NONE,THYROID,ONGOING,Y,IMMUNE-MEDIATED AES,PEMBROLIZUMAB
KN564,KN564-0209,ARTHRALGIA,191,218,1,1,0,POSSIBLY RELATED,NONE,GENERAL,RESOLVED,Y,,PLACEBO
KN564,KN564-0212,RASH,34,64,1,1,0,POSSIBLY RELATED,NONE,SKIN,RESOLVED,Y,,PEMBROLIZUMAB
KN564,KN564-0212,HYPOTHYROIDISM,88,129,1,1,0,RELATED,NONE,THYROID,ONGOING,Y,IMMUNE-MEDIATED AES,PEMBROLIZUMAB
KN564,KN564-0213,HYPERTHYROIDISM,169,184,1,1,0,RELATED,NONE,THYROID,RESOLVED,Y,IMMUNE-MEDIATED AES,PEMBROLIZUMAB
KN564,KN564-0213,HYPOTHYROIDISM,197,214,1,1,0,RELATED,NONE,THYROID,ONGOING,Y,IMMUNE-MEDIATED AES,PEMBROLIZUMAB
KN564,KN564-0214,PRURITUS,31,64,1,1,0,NOT RELATED,NONE,SKIN,RESOLVED,Y,,PLACEBO
KN564,KN564-0214,PRURITUS,328,341,1,1,0,NOT RELATED,NONE,SKIN,RESOLVED,Y,,PLACEBO
KN564,KN564-0216,HYPERTHYROIDISM,295,309,1,1,0,RELATED,NONE,THYROID,RESOLVED,Y,IMMUNE-MEDIATED AES,PEMBROLIZUMAB
KN564,KN564-0216,HYPOTHYROIDISM,341,353,2,2,0,RELATED,NONE,THYROID,ONGOING,Y,IMMUNE-MEDIATED AES,PEMBROLIZUMAB
KN564,KN564-0217,HYPERTHYROIDISM,3,34,1,1,0,RELATED,NONE,THYROID,RESOLVED,Y,IMMUNE-MEDIATED AES,PEMBROLIZUMAB
KN564,KN564-0217,HYPOTHYROIDISM,90,100,1,1,0,RELATED,NONE,THYROID,ONGOING,Y,IMMUNE-MEDIATED AES,PEMBROLIZUMAB
KN564,KN564-0217,PRURITUS,162,181,1,1,0,RELATED,NONE,SKIN,RESOLVED,Y,,PEMBROLIZUMAB
KN564,KN564-0225,ARTHRALGIA,195,221,1,1,0,POSSIBLY RELATED,NONE,GENERAL,RESOLVED,Y,,PEMBROLIZUMAB
KN564,KN564-0227,ARTHRALGIA,34,56,2,2,0,POSSIBLY RELATED,NONE,GENERAL,RESOLVED,Y,,PEMBROLIZUMAB
KN564,KN564-0227,ARTHRALGIA,55,86,2,2,0,POSSIBLY RELATED,DISCONTINUED,GENERAL,RESOLVED,Y,,PEMBROLIZUMAB
KN564,KN564-0227,FATIGUE,159,197,1,1,0,NOT RELATED,NONE,GENERAL,RESOLVED,Y,,PEMBROLIZUMAB
KN564,KN564-0227,ARTHRALGIA,154,181,2,2,0,RELATED,NONE,GENERAL,RESOLVED,Y,,PEMBROLIZUMAB
KN564,KN564-0228,ARTHRALGIA,299,306,1,1,0,POSSIBLY RELATED,NONE,GENERAL,RESOLVED,Y,,PEMBROLIZUMAB
KN564,KN564-0229,ARTHRALGIA,46,73,1,1,0,POSSIBLY RELATED,NONE,GENERAL,RESOLVED,Y,,PEMBROLIZUMAB
KN564,KN564-0229,FATIGUE,89,112,1,1,0,POSSIBLY RELATED,NONE,GENERAL,RESOLVED,Y,,PEMBROLIZUMAB
KN564,KN564-0229,FATIGUE,129,149,1,1,0,POSSIBLY RELATED,NONE,GENERAL,RESOLVED,Y,,PEMBROLIZUMAB
KN564,KN564-0229,FATIGUE,153,161,2,2,0,NOT RELATED,NONE,GENERAL,RESOLVED,Y,,PEMBROLIZUMAB
KN564,KN564-0229,FATIGUE,183,196,2,2,0,RELATED,NONE,GENERAL,RESOLVED,Y,,PEMBROLIZUMAB
KN564,KN564-0230,FATIGUE,47,80,2,2,0,NOT RELATED,NONE,GENERAL,RESOLVED,Y,,PLACEBO
KN564,KN564-0230,ARTHRALGIA,56,81,2,2,0,NOT RELATED,NONE,GENERAL,RESOLVED,Y,,PLACEBO
KN564,KN564-0230,ARTHRALGIA,274,291,3,3,1,RELATED,DOSE_HELD,GENERAL,RESOLVED,Y,,PLACEBO
KN564,KN564-0232,PRURITUS,12,33,3,3,0,POSSIBLY RELATED,DOSE_HELD,SKIN,RESOLVED,Y,,PLACEBO
KN564,KN564-0233,PRURITUS,5,31,2,2,0,POSSIBLY RELATED,NONE,SKIN,RESOLVED,Y,,PEMBROLIZUMAB
KN564,KN564-0233,PRURITUS,254,271,2,2,0,RELATED,NONE,SKIN,RESOLVED,Y,,PEMBROLIZUMAB
KN564,KN564-0234,HYPERTHYROIDISM,318,329,1,1,0,RELATED,NONE,THYROID,RESOLVED,Y,IMMUNE-MEDIATED AES,PEMBROLIZUMAB
KN564,KN564-0234,HYPOTHYROIDISM,342,384,1,1,0,RELATED,NONE,THYROID,ONGOING,Y,IMMUNE-MEDIATED AES,PEMBROLIZUMAB
KN564,KN564-0235,FATIGUE,48,69,3,3,0,RELATED,DOSE_HELD,GENERAL,RESOLVED,Y,,PEMBROLIZUMAB
KN564,KN564-0235,FATIGUE,296,303,2,2,0,RELATED,NONE,GENERAL,RESOLVED,Y,,PEMBROLIZUMAB
KN564,KN564-0236,DIARRHEA,48,60,2,2,0,NOT RELATED,NONE,IMMUNE_MEDIATED,RESOLVED,Y,IMMUNE-MEDIATED AES,PLACEBO
KN564,KN564-0237,FATIGUE,212,241,2,2,0,NOT RELATED,NONE,GENERAL,RESOLVED,Y,,PLACEBO
KN564,KN564-0237,HYPOTHYROIDISM,234,244,2,2,0,POSSIBLY RELATED,NONE,THYROID,ONGOING,Y,IMMUNE-MEDIATED AES,PLACEBO
KN564,KN564-0239,HYPOTHYROIDISM,1,19,1,1,0,RELATED,NONE,THYROID,ONGOING,Y,IMMUNE-MEDIATED AES,PEMBROLIZUMAB
KN564,KN564-0239,PRURITUS,78,88,1,1,0,RELATED,NONE,SKIN,RESOLVED,Y,,PEMBROLIZUMAB
KN564,KN564-0239,PRURITUS,106,142,1,1,0,RELATED,NONE,SKIN,RESOLVED,Y,,PEMBROLIZUMAB
KN564,KN564-0239,ARTHRALGIA,175,210,1,1,0,POSSIBLY RELATED,NONE,GENERAL,RESOLVED,Y,,PEMBROLIZUMAB
KN564,KN564-0239,RASH,351,385,3,3,0,RELATED,DOSE_HELD,SKIN,RESOLVED,Y,,PEMBROLIZUMAB
KN564,KN564-0240,DIARRHEA,214,231,3,3,0,NOT RELATED,DOSE_HELD,IMMUNE_MEDIATED,RESOLVED,Y,IMMUNE-MEDIATED AES,PLACEBO
KN564,KN564-0241,NAUSEA,156,173,2,2,0,POSSIBLY RELATED,NONE,GENERAL,RESOLVED,Y,,PEMBROLIZUMAB
KN564,KN564-0241,DIARRHEA,253,269,2,2,0,RELATED,DISCONTINUED,IMMUNE_MEDIATED,RESOLVED,Y,IMMUNE-MEDIATED AES,PEMBROLIZUMAB
KN564,KN564-0242,NAUSEA,33,61,2,2,0,NOT RELATED,NONE,GENERAL,RESOLVED,Y,,PLACEBO
KN564,KN564-0242,FATIGUE,106,128,2,2,0,RELATED,NONE,GENERAL,RESOLVED,Y,,PLACEBO
KN564,KN564-0242,ARTHRALGIA,109,128,2,2,0,NOT RELATED,NONE,GENERAL,RESOLVED,Y,,PLACEBO
KN564,KN564-0242,DIARRHEA,141,171,2,2,0,POSSIBLY RELATED,NONE,IMMUNE_MEDIATED,RESOLVED,Y,IMMUNE-MEDIATED AES,PLACEBO
KN564,KN564-0243,DIARRHEA,97,127,3,3,1,RELATED,DOSE_HELD,IMMUNE_MEDIATED,RESOLVED,Y,IMMUNE-MEDIATED AES,PEMBROLIZUMAB
KN564,KN564-0243,HYPERTHYROIDISM,236,269,1,1,0,RELATED,NONE,THYROID,RESOLVED,Y,IMMUNE-MEDIATED AES,PEMBROLIZUMAB
KN564,KN564-0243,HYPOTHYROIDISM,297,322,1,1,0,RELATED,NONE,THYROID,ONGOING,Y,IMMUNE-MEDIATED AES,PEMBROLIZUMAB
KN564,KN564-0244,HYPOTHYROIDISM,254,296,1,1,0,RELATED,NONE,THYROID,ONGOING,Y,IMMUNE-MEDIATED AES,PEMBROLIZUMAB
KN564,KN564-0244,FATIGUE,347,359,2,2,0,RELATED,NONE,GENERAL,RESOLVED,Y,,PEMBROLIZUMAB
KN564,KN564-0245,FATIGUE,128,153,2,2,0,NOT RELATED,NONE,GENERAL,RESOLVED,Y,,PLACEBO
KN564,KN564-0245,FATIGUE,158,185,2,2,0,NOT RELATED,NONE,GENERAL,RESOLVED,Y,,PLACEBO
KN564,KN564-0246,NAUSEA,110,117,2,2,0,POSSIBLY RELATED,NONE,GENERAL,RESOLVED,Y,,PLACEBO
KN564,KN564-0250,HYPOTHYROIDISM,235,275,1,1,0,RELATED,NONE,THYROID,ONGOING,Y,IMMUNE-MEDIATED AES,PEMBROLIZUMAB
KN564,KN564-0251,NAUSEA,176,211,1,1,0,NOT RELATED,NONE,GENERAL,RESOLVED,Y,,PLACEBO
KN564,KN564-0251,PRURITUS,219,227,1,1,0,POSSIBLY RELATED,NONE,SKIN,RESOLVED,Y,,PLACEBO
KN564,KN564-0251,NAUSEA,263,304,1,1,0,NOT RELATED,NONE,GENERAL,RESOLVED,Y,,PLACEBO
KN564,KN564-0254,FATIGUE,8,47,3,3,0,POSSIBLY RELATED,DOSE_HELD,GENERAL,RESOLVED,Y,,PEMBROLIZUMAB
KN564,KN564-0254,NAUSEA,199,230,2,2,0,POSSIBLY RELATED,NONE,GENERAL,RESOLVED,Y,,PEMBROLIZUMAB
KN564,KN564-0257,FATIGUE,318,334,2,2,0,NOT RELATED,NONE,GENERAL,RESOLVED,Y,,PEMBROLIZUMAB
KN564,KN564-0258,ARTHRALGIA,120,148,3,3,1,POSSIBLY RELATED,DOSE_HELD,GENERAL,RESOLVED,Y,,PLACEBO
KN564,KN564-0260,HYPERTHYROIDISM,25,33,1,1,0,RELATED,NONE,THYROID,RESOLVED,Y,IMMUNE-MEDIATED AES,PEMBROLIZUMAB
KN564,KN564-0260,ARTHRALGIA,35,51,1,1,0,POSSIBLY RELATED,NONE,GENERAL,RESOLVED,Y,,PEMBROLIZUMAB
KN564,KN564-0260,HYPOTHYROIDISM,92,111,1,1,0,RELATED,NONE,THYROID,ONGOING,Y,IMMUNE-MEDIATED AES,PEMBROLIZUMAB
KN564,KN564-0264,FATIGUE,6,24,2,2,0,NOT RELATED,NONE,GENERAL,RESOLVED,Y,,PLACEBO
KN564,KN564-0264,RASH,51,84,1,1,0,POSSIBLY RELATED,NONE,SKIN,RESOLVED,Y,,PLACEBO
KN564,KN564-0264,PRURITUS,66,82,1,1,0,POSSIBLY RELATED,NONE,SKIN,RESOLVED,Y,,PLACEBO
KN564,KN564-0265,NAUSEA,156,196,2,2,0,POSSIBLY RELATED,NONE,GENERAL,RESOLVED,Y,,PEMBROLIZUMAB
KN564,KN564-0266,FATIGUE,53,94,1,1,0,POSSIBLY RELATED,DISCONTINUED,GENERAL,RESOLVED,Y,,PLACEBO
KN564,KN564-0266,DIARRHEA,203,218,3,3,0,NOT RELATED,DOSE_HELD,IMMUNE_MEDIATED,RESOLVED,Y,IMMUNE-MEDIATED AES,PLACEBO
KN564,KN564-0268,PRURITUS,238,272,2,2,0,RELATED,NONE,SKIN,RESOLVED,Y,,PEMBROLIZUMAB
KN564,KN564-0269,RASH,3,38,1,1,0,POSSIBLY RELATED,NONE,SKIN,RESOLVED,Y,,PEMBROLIZUMAB
KN564,KN564-0269,PRURITUS,154,196,1,1,0,POSSIBLY RELATED,NONE,SKIN,RESOLVED,Y,,PEMBROLIZUMAB
KN564,KN564-0269,RASH,302,311,3,3,0,POSSIBLY RELATED,DOSE_HELD,SKIN,RESOLVED,Y,,PEMBROLIZUMAB
KN564,KN564-0270,PRURITUS,195,225,1,1,0,RELATED,NONE,SKIN,RESOLVED,Y,,PEMBROLIZUMAB
KN564,KN564-0271,DIARRHEA,26,37,1,1,0,POSSIBLY RELATED,NONE,IMMUNE_MEDIATED,RESOLVED,Y,IMMUNE-MEDIATED AES,PLACEBO
KN564,KN564-0271,FATIGUE,112,148,1,1,0,POSSIBLY RELATED,NONE,GENERAL,RESOLVED,Y,,PLACEBO
KN564,KN564-0273,FATIGUE,5,40,2,2,1,POSSIBLY RELATED,NONE,GENERAL,RESOLVED,Y,,PEMBROLIZUMAB
KN564,KN564-0273,ARTHRALGIA,44,62,2,2,0,NOT RELATED,NONE,GENERAL,RESOLVED,Y,,PEMBROLIZUMAB
KN564,KN564-0273,NAUSEA,57,90,2,2,0,RELATED,NONE,GENERAL,RESOLVED,Y,,PEMBROLIZUMAB
KN564,KN564-0273,FATIGUE,75,105,1,1,0,POSSIBLY RELATED,NONE,GENERAL,RESOLVED,Y,,PEMBROLIZUMAB
KN564,KN564-0273,ARTHRALGIA,78,118,2,2,0,POSSIBLY RELATED,NONE,GENERAL,RESOLVED,Y,,PEMBROLIZUMAB
KN564,KN564-0273,FATIGUE,148,188,1,1,0,POSSIBLY RELATED,NONE,GENERAL,RESOLVED,Y,,PEMBROLIZUMAB
KN564,KN564-0273,FATIGUE,194,226,1,1,0,POSSIBLY RELATED,NONE,GENERAL,RESOLVED,Y,,PEMBROLIZUMAB
KN564,KN564-0273,NAUSEA,211,248,1,1,0,POSSIBLY RELATED,NONE,GENERAL,RESOLVED,Y,,PEMBROLIZUMAB
KN564,KN564-0273,PRURITUS,258,273,3,3,0,RELATED,DISCONTINUED,SKIN,RESOLVED,Y,,PEMBROLIZUMAB
KN564,KN564-0273,RASH,278,286,3,3,0,RELATED,DOSE_HELD,SKIN,RESOLVED,Y,,PEMBROLIZUMAB
KN564,KN564-0273,FATIGUE,275,295,2,2,0,POSSIBLY RELATED,NONE,GENERAL,RESOLVED,Y,,PEMBROLIZUMAB
KN564,KN564-0274,NAUSEA,257,286,2,2,0,RELATED,NONE,GENERAL,RESOLVED,Y,,PEMBROLIZUMAB
KN564,KN564-0275,ARTHRALGIA,25,36,1,1,0,NOT RELATED,NONE,GENERAL,RESOLVED,Y,,PLACEBO
KN564,KN564-0275,FATIGUE,52,75,3,3,0,RELATED,DOSE_HELD,GENERAL,RESOLVED,Y,,PLACEBO
KN564,KN564-0275,FATIGUE,193,222,1,1,0,POSSIBLY RELATED,NONE,GENERAL,RESOLVED,Y,,PLACEBO
KN564,KN564-0277,NAUSEA,66,100,1,1,0,POSSIBLY RELATED,NONE,GENERAL,RESOLVED,Y,,PEMBROLIZUMAB
KN564,KN564-0277,FATIGUE,182,214,3,3,0,POSSIBLY RELATED,DOSE_HELD,GENERAL,RESOLVED,Y,,PEMBROLIZUMAB
KN564,KN564-0277,RASH,220,245,1,1,0,RELATED,NONE,SKIN,RESOLVED,Y,,PEMBROLIZUMAB
KN564,KN564-0277,NAUSEA,242,264,2,2,0,POSSIBLY RELATED,NONE,GENERAL,RESOLVED,Y,,PEMBROLIZUMAB
KN564,KN564-0279,ARTHRALGIA,130,167,2,2,0,POSSIBLY RELATED,NONE,GENERAL,RESOLVED,Y,,PLACEBO
KN564,KN564-0280,NAUSEA,4,45,2,2,0,NOT RELATED,NONE,GENERAL,RESOLVED,Y,,PEMBROLIZUMAB
KN564,KN564-0280,HYPOTHYROIDISM,46,62,1,1,0,RELATED,NONE,THYROID,ONGOING,Y,IMMUNE-MEDIATED AES,PEMBROLIZUMAB
KN564,KN564-0280,PRURITUS,217,245,2,2,0,RELATED,NONE,SKIN,RESOLVED,Y,,PEMBROLIZUMAB
KN564,KN564-0280,NAUSEA,286,315,1,1,0,NOT RELATED,NONE,GENERAL,RESOLVED,Y,,PEMBROLIZUMAB
KN564,KN564-0281,NAUSEA,106,131,1,1,0,NOT RELATED,NONE,GENERAL,RESOLVED,Y,,PLACEBO
KN564,KN564-0281,FATIGUE,240,262,2,2,1,NOT RELATED,NONE,GENERAL,RESOLVED,Y,,PLACEBO
KN564,KN564-0281,ARTHRALGIA,240,250,2,2,0,RELATED,NONE,GENERAL,RESOLVED,Y,,PLACEBO
KN564,KN564-0282,ARTHRALGIA,350,384,2,2,0,RELATED,NONE,GENERAL,RESOLVED,Y,,PEMBROLIZUMAB
KN564,KN564-0286,NAUSEA,233,269,1,1,0,NOT RELATED,NONE,GENERAL,RESOLVED,Y,,PLACEBO
KN564,KN564-0286,PRURITUS,265,287,2,2,0,POSSIBLY RELATED,NONE,SKIN,RESOLVED,Y,,PLACEBO
KN564,KN564-0288,RASH,9,44,1,1,0,POSSIBLY RELATED,NONE,SKIN,RESOLVED,Y,,PEMBROLIZUMAB
KN564,KN564-0288,FATIGUE,28,45,2,2,0,RELATED,NONE,GENERAL,RESOLVED,Y,,PEMBROLIZUMAB
KN564,KN564-0288,HYPOTHYROIDISM,85,107,1,1,0,RELATED,NONE,THYROID,ONGOING,Y,IMMUNE-MEDIATED AES,PEMBROLIZUMAB
KN564,KN564-0288,DIARRHEA,111,135,2,2,0,POSSIBLY RELATED,NONE,IMMUNE_MEDIATED,RESOLVED,Y,IMMUNE-MEDIATED AES,PEMBROLIZUMAB
KN564,KN564-0288,RASH,128,170,2,2,0,RELATED,NONE,SKIN,RESOLVED,Y,,PEMBROLIZUMAB
KN564,KN564-0288,DIARRHEA,137,156,2,2,0,POSSIBLY RELATED,NONE,IMMUNE_MEDIATED,RESOLVED,Y,IMMUNE-MEDIATED AES,PEMBROLIZUMAB
KN564,KN564-0288,FATIGUE,204,213,2,2,0,POSSIBLY RELATED,NONE,GENERAL,RESOLVED,Y,,PEMBROLIZUMAB
KN564,KN564-0288,DIARRHEA,325,354,1,1,0,RELATED,NONE,IMMUNE_MEDIATED,RESOLVED,Y,IMMUNE-MEDIATED AES,PEMBROLIZUMAB
KN564,KN564-0290,HYPERTHYROIDISM,48,86,1,1,0,RELATED,NONE,THYROID,RESOLVED,Y,IMMUNE-MEDIATED AES,PEMBROLIZUMAB
KN564,KN564-0290,ARTHRALGIA,56,73,2,2,0,POSSIBLY RELATED,DISCONTINUED,GENERAL,RESOLVED,Y,,PEMBROLIZUMAB
KN564,KN564-0290,ARTHRALGIA,76,86,1,1,0,POSSIBLY RELATED,NONE,GENERAL,RESOLVED,Y,,PEMBROLIZUMAB
KN564,KN564-0290,HYPOTHYROIDISM,89,115,1,1,0,RELATED,NONE,THYROID,ONGOING,Y,IMMUNE-MEDIATED AES,PEMBROLIZUMAB
KN564,KN564-0290,FATIGUE,129,159,3,3,0,RELATED,DOSE_HELD,GENERAL,RESOLVED,Y,,PEMBROLIZUMAB
KN564,KN564-0292,PRURITUS,29,67,2,2,0,RELATED,NONE,SKIN,RESOLVED,Y,,PEMBROLIZUMAB
KN564,KN564-0292,FATIGUE,99,110,2,2,0,POSSIBLY RELATED,NONE,GENERAL,RESOLVED,Y,,PEMBROLIZUMAB
KN564,KN564-0292,FATIGUE,133,150,2,2,0,POSSIBLY RELATED,NONE,GENERAL,RESOLVED,Y,,PEMBROLIZUMAB
KN564,KN564-0292,HYPERTHYROIDISM,344,383,1,1,0,RELATED,NONE,THYROID,RESOLVED,Y,IMMUNE-MEDIATED AES,PEMBROLIZUMAB
KN564,KN564-0292,FATIGUE,337,371,2,2,0,NOT RELATED,NONE,GENERAL,RESOLVED,Y,,PEMBROLIZUMAB
KN564,KN564-0294,ARTHRALGIA,32,51,2,2,0,NOT RELATED,NONE,GENERAL,RESOLVED,Y,,PLACEBO
KN564,KN564-0294,FATIGUE,57,98,1,1,0,POSSIBLY RELATED,NONE,GENERAL,RESOLVED,Y,,PLACEBO
KN564,KN564-0296,DIARRHEA,56,93,1,1,0,RELATED,NONE,IMMUNE_MEDIATED,RESOLVED,Y,IMMUNE-MEDIATED AES,PEMBROLIZUMAB
KN564,KN564-0296,HYPERTHYROIDISM,154,163,1,1,0,RELATED,DISCONTINUED,THYROID,RESOLVED,Y,IMMUNE-MEDIATED AES,PEMBROLIZUMAB
KN564,KN564-0296,HYPOTHYROIDISM,171,192,2,2,0,RELATED,NONE,THYROID,ONGOING,Y,IMMUNE-MEDIATED AES,PEMBROLIZUMAB
KN564,KN564-0298,NAUSEA,90,118,1,1,0,NOT RELATED,NONE,GENERAL,RESOLVED,Y,,PLACEBO
KN564,KN564-0302,DIARRHEA,77,94,1,1,0,RELATED,NONE,IMMUNE_MEDIATED,RESOLVED,Y,IMMUNE-MEDIATED AES,PEMBROLIZUMAB
KN564,KN564-0302,FATIGUE,76,112,2,2,0,POSSIBLY RELATED,NONE,GENERAL,RESOLVED,Y,,PEMBROLIZUMAB
KN564,KN564-0302,FATIGUE,221,240,1,1,0,NOT RELATED,NONE,GENERAL,RESOLVED,Y,,PEMBROLIZUMAB
KN564,KN564-0302,FATIGUE,283,318,2,2,0,POSSIBLY RELATED,NONE,GENERAL,RESOLVED,Y,,PEMBROLIZUMAB
KN564,KN564-0303,HYPERTHYROIDISM,129,164,1,1,0,RELATED,NONE,THYROID,RESOLVED,Y,IMMUNE-MEDIATED AES,PEMBROLIZUMAB
KN564,KN564-0303,HYPOTHYROIDISM,153,188,1,1,0,RELATED,NONE,THYROID,ONGOING,Y,IMMUNE-MEDIATED AES,PEMBROLIZUMAB
KN564,KN564-0304,FATIGUE,53,82,2,2,0,NOT RELATED,NONE,GENERAL,RESOLVED,Y,,PEMBROLIZUMAB
KN564,KN564-0305,NAUSEA,128,147,1,1,0,POSSIBLY RELATED,NONE,GENERAL,RESOLVED,Y,,PEMBROLIZUMAB
KN564,KN564-0305,FATIGUE,183,196,2,2,0,RELATED,NONE,GENERAL,RESOLVED,Y,,PEMBROLIZUMAB
KN564,KN564-0307,ARTHRALGIA,193,222,2,2,0,RELATED,NONE,GENERAL,RESOLVED,Y,,PLACEBO
KN564,KN564-0307,FATIGUE,347,357,1,1,0,RELATED,NONE,GENERAL,RESOLVED,Y,,PLACEBO
KN564,KN564-0308,DIARRHEA,221,244,1,1,0,NOT RELATED,NONE,IMMUNE_MEDIATED,RESOLVED,Y,IMMUNE-MEDIATED AES,PLACEBO
KN564,KN564-0308,DIARRHEA,316,346,3,3,0,POSSIBLY RELATED,DISCONTINUED,IMMUNE_MEDIATED,RESOLVED,Y,IMMUNE-MEDIATED AES,PLACEBO
KN564,KN564-0309,DIARRHEA,68,100,1,1,1,POSSIBLY RELATED,NONE,IMMUNE_MEDIATED,RESOLVED,Y,IMMUNE-MEDIATED AES,PLACEBO
KN564,KN564-0309,HYPOTHYROIDISM,297,318,1,1,0,POSSIBLY RELATED,NONE,THYROID,ONGOING,Y,IMMUNE-MEDIATED AES,PLACEBO
KN564,KN564-0310,HYPOTHYROIDISM,45,52,1,1,0,RELATED,NONE,THYROID,ONGOING,Y,IMMUNE-MEDIATED AES,PEMBROLIZUMAB
KN564,KN564-0313,FATIGUE,94,102,2,2,0,POSSIBLY RELATED,NONE,GENERAL,RESOLVED,Y,,PEMBROLIZUMAB
KN564,KN564-0318,NAUSEA,288,321,1,1,0,RELATED,NONE,GENERAL,RESOLVED,Y,,PEMBROLIZUMAB
KN564,KN564-0318,PRURITUS,328,347,1,1,0,RELATED,NONE,SKIN,RESOLVED,Y,,PEMBROLIZUMAB
KN564,KN564-0320,FATIGUE,350,367,1,1,0,RELATED,NONE,GENERAL,RESOLVED,Y,,PEMBROLIZUMAB
KN564,KN564-0324,RASH,256,288,1,1,0,NOT RELATED,NONE,SKIN,RESOLVED,Y,,PLACEBO
KN564,KN564-0325,HYPOTHYROIDISM,127,156,1,1,0,RELATED,NONE,THYROID,ONGOING,Y,IMMUNE-MEDIATED AES,PEMBROLIZUMAB
KN564,KN564-0325,FATIGUE,284,318,1,1,0,POSSIBLY RELATED,NONE,GENERAL,RESOLVED,Y,,PEMBROLIZUMAB
KN564,KN564-0328,ARTHRALGIA,14,30,2,2,0,POSSIBLY RELATED,NONE,GENERAL,RESOLVED,Y,,PEMBROLIZUMAB
KN564,KN564-0328,FATIGUE,299,322,2,2,0,POSSIBLY RELATED,DISCONTINUED,GENERAL,RESOLVED,Y,,PEMBROLIZUMAB
KN564,KN564-0328,PRURITUS,348,364,4,4,1,POSSIBLY RELATED,DISCONTINUED,SKIN,ONGOING,Y,,PEMBROLIZUMAB
KN564,KN564-0329,ARTHRALGIA,140,177,1,1,0,NOT RELATED,NONE,GENERAL,RESOLVED,Y,,PEMBROLIZUMAB
KN564,KN564-0329,FATIGUE,173,194,3,3,0,RELATED,DISCONTINUED,GENERAL,RESOLVED,Y,,PEMBROLIZUMAB
KN564,KN564-0329,NAUSEA,324,343,2,2,0,POSSIBLY RELATED,NONE,GENERAL,RESOLVED,Y,,PEMBROLIZUMAB
KN564,KN564-0329,PRURITUS,347,371,1,1,0,POSSIBLY RELATED,NONE,SKIN,RESOLVED,Y,,PEMBROLIZUMAB
KN564,KN564-0331,HYPOTHYROIDISM,130,151,1,1,0,RELATED,NONE,THYROID,ONGOING,Y,IMMUNE-MEDIATED AES,PEMBROLIZUMAB
KN564,KN564-0332,FATIGUE,281,308,1,1,0,POSSIBLY RELATED,NONE,GENERAL,RESOLVED,Y,,PEMBROLIZUMAB
KN564,KN564-0333,ARTHRALGIA,308,320,2,2,0,NOT RELATED,NONE,GENERAL,RESOLVED,Y,,PLACEBO
KN564,KN564-0334,HYPOTHYROIDISM,7,37,1,1,0,RELATED,DISCONTINUED,THYROID,ONGOING,Y,IMMUNE-MEDIATED AES,PEMBROLIZUMAB
KN564,KN564-0334,PRURITUS,36,53,1,1,0,RELATED,NONE,SKIN,RESOLVED,Y,,PEMBROLIZUMAB
KN564,KN564-0335,FATIGUE,87,124,1,1,0,POSSIBLY RELATED,NONE,GENERAL,RESOLVED,Y,,PLACEBO
KN564,KN564-0335,FATIGUE,267,309,1,1,0,POSSIBLY RELATED,NONE,GENERAL,RESOLVED,Y,,PLACEBO
KN564,KN564-0335,ARTHRALGIA,304,336,2,2,0,NOT RELATED,NONE,GENERAL,RESOLVED,Y,,PLACEBO
KN564,KN564-0335,FATIGUE,340,352,1,1,0,NOT RELATED,NONE,GENERAL,RESOLVED,Y,,PLACEBO
KN564,KN564-0337,NAUSEA,27,66,2,2,0,POSSIBLY RELATED,NONE,GENERAL,RESOLVED,Y,,PEMBROLIZUMAB
KN564,KN564-0338,RASH,244,266,1,1,0,NOT RELATED,NONE,SKIN,RESOLVED,Y,,PLACEBO
KN564,KN564-0339,ARTHRALGIA,118,129,1,1,0,POSSIBLY RELATED,NONE,GENERAL,RESOLVED,Y,,PLACEBO
KN564,KN564-0339,FATIGUE,140,176,1,1,0,NOT RELATED,NONE,GENERAL,RESOLVED,Y,,PLACEBO
KN564,KN564-0339,FATIGUE,262,284,3,3,0,POSSIBLY RELATED,DOSE_HELD,GENERAL,RESOLVED,Y,,PLACEBO
KN564,KN564-0340,HYPERTHYROIDISM,238,245,2,2,0,RELATED,NONE,THYROID,RESOLVED,Y,IMMUNE-MEDIATED AES,PEMBROLIZUMAB
KN564,KN564-0341,NAUSEA,94,133,1,1,0,NOT RELATED,NONE,GENERAL,RESOLVED,Y,,PLACEBO
KN564,KN564-0342,RASH,327,352,1,1,0,POSSIBLY RELATED,NONE,SKIN,RESOLVED,Y,,PLACEBO
KN564,KN564-0343,RASH,30,38,1,1,0,RELATED,NONE,SKIN,RESOLVED,Y,,PEMBROLIZUMAB
KN564,KN564-0343,HYPERTHYROIDISM,197,212,2,2,0,RELATED,NONE,THYROID,RESOLVED,Y,IMMUNE-MEDIATED AES,PEMBROLIZUMAB
KN564,KN564-0343,NAUSEA,234,259,1,1,0,POSSIBLY RELATED,NONE,GENERAL,RESOLVED,Y,,PEMBROLIZUMAB
KN564,KN564-0343,HYPOTHYROIDISM,319,347,1,1,0,RELATED,NONE,THYROID,ONGOING,Y,IMMUNE-MEDIATED AES,PEMBROLIZUMAB
KN564,KN564-0344,FATIGUE,15,50,2,2,0,POSSIBLY RELATED,NONE,GENERAL,RESOLVED,Y,,PLACEBO
KN564,KN564-0346,HYPOTHYROIDISM,7,33,2,2,0,RELATED,NONE,THYROID,ONGOING,Y,IMMUNE-MEDIATED AES,PEMBROLIZUMAB
KN564,KN564-0347,FATIGUE,15,33,1,1,0,RELATED,NONE,GENERAL,RESOLVED,Y,,PLACEBO
KN564,KN564-0347,FATIGUE,32,74,2,2,0,POSSIBLY RELATED,NONE,GENERAL,RESOLVED,Y,,PLACEBO
KN564,KN564-0347,HYPERTHYROIDISM,50,62,1,1,0,POSSIBLY RELATED,NONE,THYROID,RESOLVED,Y,IMMUNE-MEDIATED AES,PLACEBO
KN564,KN564-0347,HYPOTHYROIDISM,92,101,1,1,0,POSSIBLY RELATED,NONE,THYROID,ONGOING,Y,IMMUNE-MEDIATED AES,PLACEBO
KN564,KN564-0347,ARTHRALGIA,350,365,1,1,0,NOT RELATED,NONE,GENERAL,RESOLVED,Y,,PLACEBO
KN564,KN564-0349,HYPOTHYROIDISM,171,183,1,1,1,RELATED,NONE,THYROID,ONGOING,Y,IMMUNE-MEDIATED AES,PEMBROLIZUMAB
KN564,KN564-0350,FATIGUE,279,303,2,2,0,RELATED,NONE,GENERAL,RESOLVED,Y,,PLACEBO
KN564,KN564-0350,DIARRHEA,322,341,1,1,0,POSSIBLY RELATED,NONE,IMMUNE_MEDIATED,RESOLVED,Y,IMMUNE-MEDIATED AES,PLACEBO
KN564,KN564-0352,NAUSEA,162,184,1,1,0,POSSIBLY RELATED,NONE,GENERAL,RESOLVED,Y,,PEMBROLIZUMAB
KN564,KN564-0352,ARTHRALGIA,276,308,1,1,0,NOT RELATED,NONE,GENERAL,RESOLVED,Y,,PEMBROLIZUMAB
KN564,KN564-0354,FATIGUE,198,215,2,2,0,POSSIBLY RELATED,NONE,GENERAL,RESOLVED,Y,,PLACEBO
KN564,KN564-0354,FATIGUE,218,252,3,3,1,NOT RELATED,DOSE_HELD,GENERAL,RESOLVED,Y,,PLACEBO
KN564,KN564-0354,DIARRHEA,253,290,2,2,0,POSSIBLY RELATED,NONE,IMMUNE_MEDIATED,RESOLVED,Y,IMMUNE-MEDIATED AES,PLACEBO
KN564,KN564-0356,ARTHRALGIA,5,44,2,2,0,POSSIBLY RELATED,NONE,GENERAL,RESOLVED,Y,,PEMBROLIZUMAB
KN564,KN564-0356,FATIGUE,43,71,2,2,0,RELATED,NONE,GENERAL,RESOLVED,Y,,PEMBROLIZUMAB
KN564,KN564-0356,ARTHRALGIA,308,337,2,2,0,RELATED,NONE,GENERAL,RESOLVED,Y,,PEMBROLIZUMAB
KN564,KN564-0356,FATIGUE,317,334,1,1,0,POSSIBLY RELATED,NONE,GENERAL,RESOLVED,Y,,PEMBROLIZUMAB
KN564,KN564-0357,FATIGUE,34,68,1,1,0,POSSIBLY RELATED,NONE,GENERAL,RESOLVED,Y,,PEMBROLIZUMAB
KN564,KN564-0357,FATIGUE,177,192,1,1,0,RELATED,NONE,GENERAL,RESOLVED,Y,,PEMBROLIZUMAB
KN564,KN564-0357,FATIGUE,234,260,2,2,0,RELATED,NONE,GENERAL,RESOLVED,Y,,PEMBROLIZUMAB
KN564,KN564-0358,HYPOTHYROIDISM,68,77,1,1,0,RELATED,NONE,THYROID,ONGOING,Y,IMMUNE-MEDIATED AES,PEMBROLIZUMAB
KN564,KN564-0360,PRURITUS,31,49,1,1,0,POSSIBLY RELATED,NONE,SKIN,RESOLVED,Y,,PLACEBO
KN564,KN564-0360,RASH,135,173,3,3,0,POSSIBLY RELATED,DISCONTINUED,SKIN,RESOLVED,Y,,PLACEBO
KN564,KN564-0360,PRURITUS,254,267,4,4,1,NOT RELATED,DISCONTINUED,SKIN,RESOLVED,Y,,PLACEBO
KN564,KN564-0360,DIARRHEA,265,283,2,2,0,POSSIBLY RELATED,NONE,IMMUNE_MEDIATED,RESOLVED,Y,IMMUNE-MEDIATED AES,PLACEBO
KN564,KN564-0361,FATIGUE,12,21,1,1,0,RELATED,NONE,GENERAL,RESOLVED,Y,,PEMBROLIZUMAB
KN564,KN564-0361,ARTHRALGIA,239,254,2,2,0,POSSIBLY RELATED,NONE,GENERAL,RESOLVED,Y,,PEMBROLIZUMAB
KN564,KN564-0361,FATIGUE,283,308,1,1,0,NOT RELATED,NONE,GENERAL,RESOLVED,Y,,PEMBROLIZUMAB
KN564,KN564-0362,PRURITUS,52,90,3,3,0,RELATED,DOSE_HELD,SKIN,RESOLVED,Y,,PEMBROLIZUMAB
KN564,KN564-0362,FATIGUE,221,258,1,1,0,POSSIBLY RELATED,NONE,GENERAL,RESOLVED,Y,,PEMBROLIZUMAB
KN564,KN564-0363,ARTHRALGIA,13,29,2,2,0,NOT RELATED,NONE,GENERAL,RESOLVED,Y,,PLACEBO
KN564,KN564-0363,FATIGUE,28,61,2,2,0,POSSIBLY RELATED,DISCONTINUED,GENERAL,RESOLVED,Y,,PLACEBO
KN564,KN564-0363,FATIGUE,89,104,3,3,0,POSSIBLY RELATED,DOSE_HELD,GENERAL,RESOLVED,Y,,PLACEBO
KN564,KN564-0367,HYPERTHYROIDISM,5,19,1,1,0,RELATED,NONE,THYROID,RESOLVED,Y,IMMUNE-MEDIATED AES,PEMBROLIZUMAB
KN564,KN564-0367,HYPOTHYROIDISM,111,119,1,1,0,RELATED,NONE,THYROID,ONGOING,Y,IMMUNE-MEDIATED AES,PEMBROLIZUMAB
KN564,KN564-0368,PRURITUS,197,230,2,2,0,POSSIBLY RELATED,NONE,SKIN,RESOLVED,Y,,PEMBROLIZUMAB
KN564,KN564-0368,HYPERTHYROIDISM,213,229,1,1,0,RELATED,NONE,THYROID,RESOLVED,Y,IMMUNE-MEDIATED AES,PEMBROLIZUMAB
KN564,KN564-0368,HYPOTHYROIDISM,319,339,1,1,0,RELATED,NONE,THYROID,ONGOING,Y,IMMUNE-MEDIATED AES,PEMBROLIZUMAB
KN564,KN564-0369,PRURITUS,52,71,1,1,1,POSSIBLY RELATED,NONE,SKIN,RESOLVED,Y,,PLACEBO
KN564,KN564-0369,PRURITUS,106,146,1,1,0,POSSIBLY RELATED,NONE,SKIN,RESOLVED,Y,,PLACEBO
KN564,KN564-0369,DIARRHEA,190,215,2,2,0,POSSIBLY RELATED,NONE,IMMUNE_MEDIATED,RESOLVED,Y,IMMUNE-MEDIATED AES,PLACEBO
KN564,KN564-0369,PRURITUS,319,356,2,2,0,POSSIBLY RELATED,NONE,SKIN,RESOLVED,Y,,PLACEBO
KN564,KN564-0370,ARTHRALGIA,344,377,2,2,0,NOT RELATED,NONE,GENERAL,RESOLVED,Y,,PLACEBO
KN564,KN564-0373,FATIGUE,43,72,2,2,0,POSSIBLY RELATED,NONE,GENERAL,RESOLVED,Y,,PLACEBO
KN564,KN564-0373,FATIGUE,134,148,2,2,0,NOT RELATED,NONE,GENERAL,RESOLVED,Y,,PLACEBO
KN564,KN564-0373,FATIGUE,183,202,2,2,0,POSSIBLY RELATED,NONE,GENERAL,RESOLVED,Y,,PLACEBO
KN564,KN564-0373,FATIGUE,266,281,2,2,0,POSSIBLY RELATED,NONE,GENERAL,RESOLVED,Y,,PLACEBO
KN564,KN564-0373,FATIGUE,288,320,1,1,0,NOT RELATED,NONE,GENERAL,RESOLVED,Y,,PLACEBO
KN564,KN564-0374,ARTHRALGIA,27,61,1,1,0,POSSIBLY RELATED,NONE,GENERAL,RESOLVED,Y,,PEMBROLIZUMAB
KN564,KN564-0375,NAUSEA,109,148,2,2,0,POSSIBLY RELATED,NONE,GENERAL,RESOLVED,Y,,PEMBROLIZUMAB
KN564,KN564-0375,FATIGUE,132,152,1,1,0,NOT RELATED,NONE,GENERAL,RESOLVED,Y,,PEMBROLIZUMAB
KN564,KN564-0375,FATIGUE,337,360,1,1,0,POSSIBLY RELATED,NONE,GENERAL,RESOLVED,Y,,PEMBROLIZUMAB
KN564,KN564-0376,HYPOTHYROIDISM,175,214,1,1,0,RELATED,NONE,THYROID,ONGOING,Y,IMMUNE-MEDIATED AES,PEMBROLIZUMAB
KN564,KN564-0377,ARTHRALGIA,4,15,2,2,0,NOT RELATED,NONE,GENERAL,RESOLVED,Y,,PLACEBO
KN564,KN564-0377,FATIGUE,94,129,2,2,0,NOT RELATED,NONE,GENERAL,RESOLVED,Y,,PLACEBO
KN564,KN564-0377,FATIGUE,138,148,2,2,0,NOT RELATED,NONE,GENERAL,RESOLVED,Y,,PLACEBO
KN564,KN564-0377,ARTHRALGIA,135,176,1,1,0,POSSIBLY RELATED,NONE,GENERAL,RESOLVED,Y,,PLACEBO
KN564,KN564-0377,FATIGUE,222,231,1,1,0,NOT RELATED,NONE,GENERAL,RESOLVED,Y,,PLACEBO
KN564,KN564-0377,FATIGUE,239,263,2,2,0,POSSIBLY RELATED,NONE,GENERAL,RESOLVED,Y,,PLACEBO
KN564,KN564-0377,FATIGUE,322,339,3,3,1,NOT RELATED,DOSE_HELD,GENERAL,RESOLVED,Y,,PLACEBO
KN564,KN564-0377,FATIGUE,345,354,1,1,0,POSSIBLY RELATED,NONE,GENERAL,RESOLVED,Y,,PLACEBO
KN564,KN564-0377,ARTHRALGIA,342,382,2,2,0,NOT RELATED,NONE,GENERAL,RESOLVED,Y,,PLACEBO
KN564,KN564-0381,DIARRHEA,35,64,4,4,1,RELATED,DISCONTINUED,IMMUNE_MEDIATED,RESOLVED,Y,IMMUNE-MEDIATED AES,PEMBROLIZUMAB
KN564,KN564-0382,FATIGUE,90,118,1,1,0,POSSIBLY RELATED,NONE,GENERAL,RESOLVED,Y,,PEMBROLIZUMAB
KN564,KN564-0382,ARTHRALGIA,111,145,2,2,0,POSSIBLY RELATED,NONE,GENERAL,RESOLVED,Y,,PEMBROLIZUMAB
KN564,KN564-0382,FATIGUE,169,204,2,2,0,NOT RELATED,DISCONTINUED,GENERAL,RESOLVED,Y,,PEMBROLIZUMAB
KN564,KN564-0382,ARTHRALGIA,343,351,2,2,0,POSSIBLY RELATED,NONE,GENERAL,RESOLVED,Y,,PEMBROLIZUMAB
KN564,KN564-0383,ARTHRALGIA,69,93,2,2,0,NOT RELATED,NONE,GENERAL,RESOLVED,Y,,PEMBROLIZUMAB
KN564,KN564-0384,FATIGUE,110,120,2,2,0,RELATED,NONE,GENERAL,RESOLVED,Y,,PEMBROLIZUMAB
KN564,KN564-0384,ARTHRALGIA,323,342,1,1,0,POSSIBLY RELATED,NONE,GENERAL,RESOLVED,Y,,PEMBROLIZUMAB
KN564,KN564-0385,FATIGUE,97,108,2,2,0,NOT RELATED,NONE,GENERAL,RESOLVED,Y,,PLACEBO
KN564,KN564-0386,FATIGUE,6,21,1,1,0,POSSIBLY RELATED,NONE,GENERAL,RESOLVED,Y,,PEMBROLIZUMAB
KN564,KN564-0386,ARTHRALGIA,10,51,2,2,0,POSSIBLY RELATED,NONE,GENERAL,RESOLVED,Y,,PEMBROLIZUMAB
KN564,KN564-0386,FATIGUE,78,101,1,1,0,NOT RELATED,NONE,GENERAL,RESOLVED,Y,,PEMBROLIZUMAB
KN564,KN564-0386,FATIGUE,216,254,3,3,1,POSSIBLY RELATED,DOSE_HELD,GENERAL,RESOLVED,Y,,PEMBROLIZUMAB
KN564,KN564-0386,ARTHRALGIA,216,232,1,1,0,RELATED,NONE,GENERAL,RESOLVED,Y,,PEMBROLIZUMAB
KN564,KN564-0386,FATIGUE,275,282,1,1,0,POSSIBLY RELATED,NONE,GENERAL,RESOLVED,Y,,PEMBROLIZUMAB
KN564,KN564-0390,FATIGUE,133,169,1,1,0,RELATED,NONE,GENERAL,RESOLVED,Y,,PEMBROLIZUMAB
KN564,KN564-0392,PRURITUS,4,45,2,2,1,POSSIBLY RELATED,NONE,SKIN,RESOLVED,Y,,PEMBROLIZUMAB
KN564,KN564-0392,HYPERTHYROIDISM,69,107,2,2,0,RELATED,NONE,THYROID,RESOLVED,Y,IMMUNE-MEDIATED AES,PEMBROLIZUMAB
KN564,KN564-0392,FATIGUE,76,107,2,2,0,POSSIBLY RELATED,NONE,GENERAL,RESOLVED,Y,,PEMBROLIZUMAB
KN564,KN564-0392,HYPOTHYROIDISM,90,116,2,2,0,RELATED,NONE,THYROID,ONGOING,Y,IMMUNE-MEDIATED AES,PEMBROLIZUMAB
KN564,KN564-0392,RASH,96,118,2,2,0,RELATED,DISCONTINUED,SKIN,RESOLVED,Y,,PEMBROLIZUMAB
KN564,KN564-0392,RASH,106,116,1,1,0,RELATED,NONE,SKIN,RESOLVED,Y,,PEMBROLIZUMAB
KN564,KN564-0392,PRURITUS,129,139,1,1,0,RELATED,NONE,SKIN,RESOLVED,Y,,PEMBROLIZUMAB
KN564,KN564-0392,RASH,181,191,1,1,0,RELATED,NONE,SKIN,RESOLVED,Y,,PEMBROLIZUMAB
KN564,KN564-0392,ARTHRALGIA,175,213,2,2,0,POSSIBLY RELATED,NONE,GENERAL,RESOLVED,Y,,PEMBROLIZUMAB
KN564,KN564-0394,NAUSEA,52,70,1,1,0,POSSIBLY RELATED,NONE,GENERAL,RESOLVED,Y,,PLACEBO
KN564,KN564-0394,RASH,225,266,1,1,0,POSSIBLY RELATED,NONE,SKIN,RESOLVED,Y,,PLACEBO
KN564,KN564-0394,DIARRHEA,237,252,2,2,0,POSSIBLY RELATED,NONE,IMMUNE_MEDIATED,RESOLVED,Y,IMMUNE-MEDIATED AES,PLACEBO
KN564,KN564-0394,DIARRHEA,266,273,1,1,0,POSSIBLY RELATED,NONE,IMMUNE_MEDIATED,RESOLVED,Y,IMMUNE-MEDIATED AES,PLACEBO
KN564,KN564-0394,RASH,278,303,2,2,0,POSSIBLY RELATED,NONE,SKIN,RESOLVED,Y,,PLACEBO
KN564,KN564-0394,NAUSEA,303,324,1,1,0,NOT RELATED,NONE,GENERAL,RESOLVED,Y,,PLACEBO
KN564,KN564-0394,DIARRHEA,330,358,3,3,0,NOT RELATED,DOSE_HELD,IMMUNE_MEDIATED,RESOLVED,Y,IMMUNE-MEDIATED AES,PLACEBO
KN564,KN564-0396,PRURITUS,200,240,1,1,0,POSSIBLY RELATED,NONE,SKIN,RESOLVED,Y,,PEMBROLIZUMAB
KN564,KN564-0396,FATIGUE,223,261,1,1,0,RELATED,NONE,GENERAL,RESOLVED,Y,,PEMBROLIZUMAB
KN564,KN564-0396,FATIGUE,241,249,2,2,0,POSSIBLY RELATED,NONE,GENERAL,RESOLVED,Y,,PEMBROLIZUMAB
KN564,KN564-0396,HYPOTHYROIDISM,279,318,1,1,0,RELATED,NONE,THYROID,ONGOING,Y,IMMUNE-MEDIATED AES,PEMBROLIZUMAB
KN564,KN564-0396,FATIGUE,277,289,2,2,0,POSSIBLY RELATED,NONE,GENERAL,RESOLVED,Y,,PEMBROLIZUMAB
KN564,KN564-0397,HYPOTHYROIDISM,344,358,1,1,0,RELATED,NONE,THYROID,ONGOING,Y,IMMUNE-MEDIATED AES,PEMBROLIZUMAB
KN564,KN564-0398,ARTHRALGIA,32,68,1,1,0,POSSIBLY RELATED,NONE,GENERAL,RESOLVED,Y,,PLACEBO
KN564,KN564-0398,FATIGUE,98,109,2,2,0,POSSIBLY RELATED,NONE,GENERAL,RESOLVED,Y,,PLACEBO
KN564,KN564-0398,FATIGUE,200,209,1,1,0,NOT RELATED,NONE,GENERAL,RESOLVED,Y,,PLACEBO
KN564,KN564-0399,FATIGUE,44,72,2,2,1,POSSIBLY RELATED,NONE,GENERAL,RESOLVED,Y,,PLACEBO
KN564,KN564-0399,FATIGUE,72,79,3,3,0,NOT RELATED,DOSE_HELD,GENERAL,RESOLVED,Y,,PLACEBO
KN564,KN564-0399,FATIGUE,96,128,2,2,0,NOT RELATED,NONE,GENERAL,RESOLVED,Y,,PLACEBO
KN564,KN564-0399,FATIGUE,120,151,2,2,0,POSSIBLY RELATED,NONE,GENERAL,RESOLVED,Y,,PLACEBO
KN564,KN564-0399,FATIGUE,138,151,1,1,0,NOT RELATED,NONE,GENERAL,RESOLVED,Y,,PLACEBO
KN564,KN564-0399,FATIGUE,161,196,1,1,0,NOT RELATED,NONE,GENERAL,RESOLVED,Y,,PLACEBO
KN564,KN564-0399,ARTHRALGIA,152,193,1,1,0,RELATED,NONE,GENERAL,RESOLVED,Y,,PLACEBO
KN564,KN564-0399,FATIGUE,300,332,2,2,1,POSSIBLY RELATED,NONE,GENERAL,RESOLVED,Y,,PLACEBO
KN564,KN564-0399,FATIGUE,323,338,1,1,0,POSSIBLY RELATED,NONE,GENERAL,RESOLVED,Y,,PLACEBO
KN564,KN564-0399,ARTHRALGIA,326,360,2,2,0,POSSIBLY RELATED,NONE,GENERAL,RESOLVED,Y,,PLACEBO
KN564,KN564-0400,ARTHRALGIA,224,232,2,2,0,POSSIBLY RELATED,NONE,GENERAL,RESOLVED,Y,,PEMBROLIZUMAB
KN564,KN564-0407,PRURITUS,155,193,2,2,0,POSSIBLY RELATED,NONE,SKIN,RESOLVED,Y,,PLACEBO
KN564,KN564-0407,PRURITUS,240,248,3,3,1,NOT RELATED,DOSE_HELD,SKIN,RESOLVED,Y,,PLACEBO
KN564,KN564-0408,HYPERTHYROIDISM,2,25,2,2,0,RELATED,NONE,THYROID,RESOLVED,Y,IMMUNE-MEDIATED AES,PEMBROLIZUMAB
KN564,KN564-0408,HYPOTHYROIDISM,29,70,1,1,0,RELATED,NONE,THYROID,ONGOING,Y,IMMUNE-MEDIATED AES,PEMBROLIZUMAB
KN564,KN564-0408,RASH,117,134,2,2,0,POSSIBLY RELATED,DISCONTINUED,SKIN,RESOLVED,Y,,PEMBROLIZUMAB
KN564,KN564-0408,RASH,170,195,4,4,1,RELATED,DISCONTINUED,SKIN,RESOLVED,Y,,PEMBROLIZUMAB
KN564,KN564-0409,ARTHRALGIA,45,62,1,1,0,RELATED,NONE,GENERAL,RESOLVED,Y,,PLACEBO
KN564,KN564-0409,ARTHRALGIA,88,123,2,2,0,POSSIBLY RELATED,NONE,GENERAL,RESOLVED,Y,,PLACEBO
KN564,KN564-0409,PRURITUS,318,343,2,2,0,POSSIBLY RELATED,NONE,SKIN,RESOLVED,Y,,PLACEBO
KN564,KN564-0410,PRURITUS,11,44,2,2,0,RELATED,NONE,SKIN,RESOLVED,Y,,PEMBROLIZUMAB
KN564,KN564-0410,RASH,176,202,2,2,0,RELATED,NONE,SKIN,RESOLVED,Y,,PEMBROLIZUMAB
KN564,KN564-0410,PRURITUS,237,255,2,2,0,POSSIBLY RELATED,NONE,SKIN,RESOLVED,Y,,PEMBROLIZUMAB
KN564,KN564-0410,HYPOTHYROIDISM,295,307,1,1,0,RELATED,NONE,THYROID,ONGOING,Y,IMMUNE-MEDIATED AES,PEMBROLIZUMAB
KN564,KN564-0413,HYPOTHYROIDISM,86,93,1,1,0,RELATED,NONE,THYROID,ONGOING,Y,IMMUNE-MEDIATED AES,PEMBROLIZUMAB
KN564,KN564-0417,FATIGUE,2,16,2,2,0,NOT RELATED,NONE,GENERAL,RESOLVED,Y,,PLACEBO
KN564,KN564-0417,ARTHRALGIA,92,126,2,2,0,NOT RELATED,NONE,GENERAL,RESOLVED,Y,,PLACEBO
KN564,KN564-0418,PRURITUS,193,213,1,1,0,POSSIBLY RELATED,NONE,SKIN,RESOLVED,Y,,PLACEBO
KN564,KN564-0419,PRURITUS,34,42,2,2,0,POSSIBLY RELATED,NONE,SKIN,RESOLVED,Y,,PLACEBO
KN564,KN564-0421,ARTHRALGIA,98,133,2,2,0,POSSIBLY RELATED,NONE,GENERAL,RESOLVED,Y,,PLACEBO
KN564,KN564-0421,FATIGUE,194,215,2,2,0,NOT RELATED,NONE,GENERAL,RESOLVED,Y,,PLACEBO
KN564,KN564-0421,ARTHRALGIA,238,246,1,1,0,POSSIBLY RELATED,NONE,GENERAL,RESOLVED,Y,,PLACEBO
KN564,KN564-0421,FATIGUE,278,295,2,2,0,NOT RELATED,NONE,GENERAL,RESOLVED,Y,,PLACEBO
KN564,KN564-0421,FATIGUE,327,355,1,1,0,POSSIBLY RELATED,NONE,GENERAL,RESOLVED,Y,,PLACEBO
KN564,KN564-0421,ARTHRALGIA,346,357,2,2,0,POSSIBLY RELATED,NONE,GENERAL,RESOLVED,Y,,PLACEBO
KN564,KN564-0423,FATIGUE,88,97,1,1,0,NOT RELATED,DISCONTINUED,GENERAL,RESOLVED,Y,,PLACEBO
KN564,KN564-0423,PRURITUS,259,301,4,4,1,NOT RELATED,DISCONTINUED,SKIN,RESOLVED,Y,,PLACEBO
KN564,KN564-0425,FATIGUE,178,194,2,2,0,POSSIBLY RELATED,NONE,GENERAL,RESOLVED,Y,,PEMBROLIZUMAB
KN564,KN564-0425,FATIGUE,301,332,1,1,0,RELATED,NONE,GENERAL,RESOLVED,Y,,PEMBROLIZUMAB
KN564,KN564-0425,FATIGUE,327,337,3,3,0,RELATED,DOSE_HELD,GENERAL,RESOLVED,Y,,PEMBROLIZUMAB
KN564,KN564-0426,RASH,69,111,4,4,1,POSSIBLY RELATED,DISCONTINUED,SKIN,RESOLVED,Y,,PLACEBO
KN564,KN564-0427,ARTHRALGIA,196,228,1,1,0,POSSIBLY RELATED,NONE,GENERAL,RESOLVED,Y,,PEMBROLIZUMAB
KN564,KN564-0427,FATIGUE,221,234,2,2,0,RELATED,DISCONTINUED,GENERAL,RESOLVED,Y,,PEMBROLIZUMAB
KN564,KN564-0427,FATIGUE,297,315,1,1,0,POSSIBLY RELATED,NONE,GENERAL,RESOLVED,Y,,PEMBROLIZUMAB
KN564,KN564-0428,RASH,57,84,3,3,1,POSSIBLY RELATED,DOSE_HELD,SKIN,RESOLVED,Y,,PLACEBO
KN564,KN564-0430,FATIGUE,98,126,2,2,0,POSSIBLY RELATED,NONE,GENERAL,RESOLVED,Y,,PLACEBO
KN564,KN564-0430,FATIGUE,225,263,3,3,0,NOT RELATED,DOSE_HELD,GENERAL,RESOLVED,Y,,PLACEBO
KN564,KN564-0431,DIARRHEA,111,129,1,1,0,POSSIBLY RELATED,NONE,IMMUNE_MEDIATED,RESOLVED,Y,IMMUNE-MEDIATED AES,PEMBROLIZUMAB
KN564,KN564-0431,ARTHRALGIA,319,342,1,1,0,NOT RELATED,NONE,GENERAL,RESOLVED,Y,,PEMBROLIZUMAB
KN564,KN564-0431,NAUSEA,320,336,1,1,0,NOT RELATED,NONE,GENERAL,RESOLVED,Y,,PEMBROLIZUMAB
KN564,KN564-0432,PRURITUS,109,124,1,1,0,RELATED,NONE,SKIN,RESOLVED,Y,,PEMBROLIZUMAB
KN564,KN564-0434,ARTHRALGIA,218,238,2,2,0,NOT RELATED,NONE,GENERAL,RESOLVED,Y,,PLACEBO
KN564,KN564-0436,FATIGUE,4,23,2,2,0,POSSIBLY RELATED,NONE,GENERAL,RESOLVED,Y,,PEMBROLIZUMAB
KN564,KN564-0436,ARTHRALGIA,32,49,1,1,0,RELATED,NONE,GENERAL,RESOLVED,Y,,PEMBROLIZUMAB
KN564,KN564-0436,FATIGUE,53,86,2,2,0,RELATED,DISCONTINUED,GENERAL,RESOLVED,Y,,PEMBROLIZUMAB
KN564,KN564-0436,FATIGUE,183,208,2,2,0,RELATED,NONE,GENERAL,RESOLVED,Y,,PEMBROLIZUMAB
KN564,KN564-0437,FATIGUE,64,76,1,1,0,RELATED,NONE,GENERAL,RESOLVED,Y,,PLACEBO
KN564,KN564-0437,FATIGUE,113,153,2,2,0,NOT RELATED,NONE,GENERAL,RESOLVED,Y,,PLACEBO
KN564,KN564-0437,DIARRHEA,170,208,2,2,0,NOT RELATED,NONE,IMMUNE_MEDIATED,RESOLVED,Y,IMMUNE-MEDIATED AES,PLACEBO
KN564,KN564-0438,FATIGUE,139,154,1,1,0,POSSIBLY RELATED,NONE,GENERAL,RESOLVED,Y,,PLACEBO
KN564,KN564-0440,DIARRHEA,14,43,1,1,0,RELATED,NONE,IMMUNE_MEDIATED,RESOLVED,Y,IMMUNE-MEDIATED AES,PEMBROLIZUMAB
KN564,KN564-0440,HYPERTHYROIDISM,67,75,2,2,0,RELATED,NONE,THYROID,RESOLVED,Y,IMMUNE-MEDIATED AES,PEMBROLIZUMAB
KN564,KN564-0440,HYPOTHYROIDISM,149,175,1,1,0,RELATED,NONE,THYROID,ONGOING,Y,IMMUNE-MEDIATED AES,PEMBROLIZUMAB
KN564,KN564-0440,FATIGUE,183,207,2,2,0,POSSIBLY RELATED,NONE,GENERAL,RESOLVED,Y,,PEMBROLIZUMAB
KN564,KN564-0440,FATIGUE,235,273,2,2,0,NOT RELATED,NONE,GENERAL,RESOLVED,Y,,PEMBROLIZUMAB
KN564,KN564-0441,DIARRHEA,138,177,1,1,0,RELATED,DISCONTINUED,IMMUNE_MEDIATED,RESOLVED,Y,IMMUNE-MEDIATED AES,PEMBROLIZUMAB
KN564,KN564-0441,DIARRHEA,153,182,1,1,0,RELATED,NONE,IMMUNE_MEDIATED,RESOLVED,Y,IMMUNE-MEDIATED AES,PEMBROLIZUMAB
KN564,KN564-0446,FATIGUE,281,307,1,1,0,POSSIBLY RELATED,NONE,GENERAL,RESOLVED,Y,,PLACEBO
KN564,KN564-0446,FATIGUE,297,326,1,1,0,NOT RELATED,NONE,GENERAL,RESOLVED,Y,,PLACEBO
KN564,KN564-0447,ARTHRALGIA,12,31,3,3,0,RELATED,DOSE_HELD,GENERAL,RESOLVED,Y,,PEMBROLIZUMAB
KN564,KN564-0447,NAUSEA,50,78,1,1,0,POSSIBLY RELATED,NONE,GENERAL,RESOLVED,Y,,PEMBROLIZUMAB
KN564,KN564-0447,FATIGUE,135,166,1,1,0,POSSIBLY RELATED,NONE,GENERAL,RESOLVED,Y,,PEMBROLIZUMAB
KN564,KN564-0447,FATIGUE,155,162,2,2,0,RELATED,NONE,GENERAL,RESOLVED,Y,,PEMBROLIZUMAB
KN564,KN564-0447,NAUSEA,236,263,1,1,0,POSSIBLY RELATED,NONE,GENERAL,RESOLVED,Y,,PEMBROLIZUMAB
KN564,KN564-0447,NAUSEA,309,320,2,2,0,POSSIBLY RELATED,NONE,GENERAL,RESOLVED,Y,,PEMBROLIZUMAB
KN564,KN564-0448,PRURITUS,109,137,3,3,0,RELATED,DOSE_HELD,SKIN,RESOLVED,Y,,PEMBROLIZUMAB
KN564,KN564-0448,DIARRHEA,199,241,2,2,0,RELATED,NONE,IMMUNE_MEDIATED,RESOLVED,Y,IMMUNE-MEDIATED AES,PEMBROLIZUMAB
KN564,KN564-0449,PRURITUS,44,83,2,2,0,RELATED,NONE,SKIN,RESOLVED,Y,,PEMBROLIZUMAB
KN564,KN564-0450,HYPERTHYROIDISM,27,64,1,1,0,RELATED,NONE,THYROID,RESOLVED,Y,IMMUNE-MEDIATED AES,PEMBROLIZUMAB
KN564,KN564-0450,HYPOTHYROIDISM,69,77,1,1,0,RELATED,DISCONTINUED,THYROID,ONGOING,Y,IMMUNE-MEDIATED AES,PEMBROLIZUMAB
KN564,KN564-0450,RASH,340,348,2,2,0,RELATED,NONE,SKIN,RESOLVED,Y,,PEMBROLIZUMAB
KN564,KN564-0452,ARTHRALGIA,45,54,3,3,1,NOT RELATED,DOSE_HELD,GENERAL,RESOLVED,Y,,PEMBROLIZUMAB
KN564,KN564-0452,RASH,120,158,3,3,0,POSSIBLY RELATED,DISCONTINUED,SKIN,RESOLVED,Y,,PEMBROLIZUMAB
KN564,KN564-0452,DIARRHEA,118,140,1,1,0,RELATED,NONE,IMMUNE_MEDIATED,RESOLVED,Y,IMMUNE-MEDIATED AES,PEMBROLIZUMAB
KN564,KN564-0452,NAUSEA,198,231,2,2,0,RELATED,NONE,GENERAL,RESOLVED,Y,,PEMBROLIZUMAB
KN564,KN564-0453,DIARRHEA,115,131,1,1,0,POSSIBLY RELATED,DISCONTINUED,IMMUNE_MEDIATED,RESOLVED,Y,IMMUNE-MEDIATED AES,PEMBROLIZUMAB
KN564,KN564-0453,FATIGUE,342,382,1,1,0,RELATED,NONE,GENERAL,RESOLVED,Y,,PEMBROLIZUMAB
KN564,KN564-0454,RASH,66,107,2,2,0,NOT RELATED,NONE,SKIN,RESOLVED,Y,,PLACEBO
KN564,KN564-0455,DIARRHEA,328,360,1,1,0,RELATED,NONE,IMMUNE_MEDIATED,RESOLVED,Y,IMMUNE-MEDIATED AES,PEMBROLIZUMAB
KN564,KN564-0456,DIARRHEA,86,122,1,1,0,POSSIBLY RELATED,NONE,IMMUNE_MEDIATED,RESOLVED,Y,IMMUNE-MEDIATED AES,PLACEBO
KN564,KN564-0457,FATIGUE,108,137,2,2,0,POSSIBLY RELATED,NONE,GENERAL,RESOLVED,Y,,PEMBROLIZUMAB
KN564,KN564-0458,FATIGUE,34,74,1,1,0,POSSIBLY RELATED,NONE,GENERAL,RESOLVED,Y,,PEMBROLIZUMAB
KN564,KN564-0458,FATIGUE,193,202,1,1,0,POSSIBLY RELATED,NONE,GENERAL,RESOLVED,Y,,PEMBROLIZUMAB
KN564,KN564-0458,ARTHRALGIA,344,385,2,2,0,POSSIBLY RELATED,NONE,GENERAL,RESOLVED,Y,,PEMBROLIZUMAB
KN564,KN564-0459,HYPOTHYROIDISM,4,44,1,1,0,RELATED,NONE,THYROID,ONGOING,Y,IMMUNE-MEDIATED AES,PEMBROLIZUMAB
KN564,KN564-0459,DIARRHEA,13,40,1,1,0,RELATED,NONE,IMMUNE_MEDIATED,RESOLVED,Y,IMMUNE-MEDIATED AES,PEMBROLIZUMAB
KN564,KN564-0459,PRURITUS,170,177,2,2,1,POSSIBLY RELATED,NONE,SKIN,RESOLVED,Y,,PEMBROLIZUMAB
KN564,KN564-0459,RASH,274,306,2,2,0,POSSIBLY RELATED,NONE,SKIN,RESOLVED,Y,,PEMBROLIZUMAB
KN564,KN564-0461,ARTHRALGIA,97,114,1,1,0,POSSIBLY RELATED,NONE,GENERAL,RESOLVED,Y,,PLACEBO
KN564,KN564-0461,ARTHRALGIA,232,252,2,2,0,NOT RELATED,NONE,GENERAL,RESOLVED,Y,,PLACEBO
KN564,KN564-0464,DIARRHEA,4,38,2,2,0,RELATED,NONE,IMMUNE_MEDIATED,RESOLVED,Y,IMMUNE-MEDIATED AES,PEMBROLIZUMAB
KN564,KN564-0464,DIARRHEA,138,146,1,1,0,RELATED,NONE,IMMUNE_MEDIATED,RESOLVED,Y,IMMUNE-MEDIATED AES,PEMBROLIZUMAB
KN564,KN564-0465,FATIGUE,316,358,2,2,0,RELATED,NONE,GENERAL,RESOLVED,Y,,PEMBROLIZUMAB
KN564,KN564-0465,FATIGUE,337,362,1,1,0,POSSIBLY RELATED,NONE,GENERAL,RESOLVED,Y,,PEMBROLIZUMAB
KN564,KN564-0466,DIARRHEA,114,140,1,1,0,NOT RELATED,NONE,IMMUNE_MEDIATED,RESOLVED,Y,IMMUNE-MEDIATED AES,PLACEBO
KN564,KN564-0467,FATIGUE,193,210,1,1,0,NOT RELATED,NONE,GENERAL,RESOLVED,Y,,PLACEBO
KN564,KN564-0469,PRURITUS,78,120,2,2,0,RELATED,NONE,SKIN,RESOLVED,Y,,PEMBROLIZUMAB
KN564,KN564-0469,PRURITUS,89,126,1,1,0,RELATED,NONE,SKIN,RESOLVED,Y,,PEMBROLIZUMAB
KN564,KN564-0469,DIARRHEA,118,140,2,2,0,POSSIBLY RELATED,NONE,IMMUNE_MEDIATED,RESOLVED,Y,IMMUNE-MEDIATED AES,PEMBROLIZUMAB
KN564,KN564-0469,DIARRHEA,216,224,3,3,1,RELATED,DOSE_HELD,IMMUNE_MEDIATED,RESOLVED,Y,IMMUNE-MEDIATED AES,PEMBROLIZUMAB
KN564,KN564-0470,FATIGUE,234,266,2,2,0,RELATED,NONE,GENERAL,RESOLVED,Y,,PLACEBO
KN564,KN564-0470,ARTHRALGIA,244,255,2,2,0,NOT RELATED,NONE,GENERAL,RESOLVED,Y,,PLACEBO
KN564,KN564-0470,NAUSEA,319,332,2,2,0,NOT RELATED,NONE,GENERAL,RESOLVED,Y,,PLACEBO
KN564,KN564-0471,HYPERTHYROIDISM,71,110,1,1,0,RELATED,NONE,THYROID,RESOLVED,Y,IMMUNE-MEDIATED AES,PEMBROLIZUMAB
KN564,KN564-0471,HYPOTHYROIDISM,110,121,1,1,0,RELATED,NONE,THYROID,ONGOING,Y,IMMUNE-MEDIATED AES,PEMBROLIZUMAB
KN564,KN564-0471,DIARRHEA,174,183,1,1,0,RELATED,NONE,IMMUNE_MEDIATED,RESOLVED,Y,IMMUNE-MEDIATED AES,PEMBROLIZUMAB
KN564,KN564-0472,FATIGUE,22,38,1,1,0,POSSIBLY RELATED,NONE,GENERAL,RESOLVED,Y,,PEMBROLIZUMAB
KN564,KN564-0472,PRURITUS,308,316,1,1,0,POSSIBLY RELATED,NONE,SKIN,RESOLVED,Y,,PEMBROLIZUMAB
KN564,KN564-0473,PRURITUS,65,79,1,1,0,RELATED,NONE,SKIN,RESOLVED,Y,,PEMBROLIZUMAB
KN564,KN564-0473,PRURITUS,254,284,2,2,0,POSSIBLY RELATED,NONE,SKIN,RESOLVED,Y,,PEMBROLIZUMAB
KN564,KN564-0473,PRURITUS,274,299,2,2,0,RELATED,NONE,SKIN,RESOLVED,Y,,PEMBROLIZUMAB
KN564,KN564-0473,DIARRHEA,282,320,1,1,0,RELATED,NONE,IMMUNE_MEDIATED,RESOLVED,Y,IMMUNE-MEDIATED AES,PEMBROLIZUMAB
KN564,KN564-0474,ARTHRALGIA,13,52,1,1,0,POSSIBLY RELATED,NONE,GENERAL,RESOLVED,Y,,PEMBROLIZUMAB
KN564,KN564-0474,HYPOTHYROIDISM,48,68,2,2,0,RELATED,DISCONTINUED,THYROID,ONGOING,Y,IMMUNE-MEDIATED AES,PEMBROLIZUMAB
KN564,KN564-0474,FATIGUE,120,134,1,1,0,POSSIBLY RELATED,NONE,GENERAL,RESOLVED,Y,,PEMBROLIZUMAB
KN564,KN564-0474,FATIGUE,161,199,3,3,1,POSSIBLY RELATED,DOSE_HELD,GENERAL,RESOLVED,Y,,PEMBROLIZUMAB
KN564,KN564-0474,ARTHRALGIA,161,178,2,2,0,POSSIBLY RELATED,NONE,GENERAL,RESOLVED,Y,,PEMBROLIZUMAB
KN564,KN564-0477,HYPERTHYROIDISM,112,130,1,1,0,RELATED,NONE,THYROID,RESOLVED,Y,IMMUNE-MEDIATED AES,PEMBROLIZUMAB
KN564,KN564-0477,HYPOTHYROIDISM,191,210,1,1,0,RELATED,DISCONTINUED,THYROID,ONGOING,Y,IMMUNE-MEDIATED AES,PEMBROLIZUMAB
KN564,KN564-0477,RASH,282,307,1,1,0,RELATED,NONE,SKIN,RESOLVED,Y,,PEMBROLIZUMAB
KN564,KN564-0479,FATIGUE,69,77,3,3,1,POSSIBLY RELATED,DOSE_HELD,GENERAL,RESOLVED,Y,,PLACEBO
KN564,KN564-0479,NAUSEA,152,184,2,2,0,NOT RELATED,NONE,GENERAL,RESOLVED,Y,,PLACEBO
KN564,KN564-0479,FATIGUE,194,212,2,2,0,RELATED,NONE,GENERAL,RESOLVED,Y,,PLACEBO
KN564,KN564-0480,NAUSEA,1,16,2,2,0,NOT RELATED,NONE,GENERAL,RESOLVED,Y,,PEMBROLIZUMAB
KN564,KN564-0480,DIARRHEA,114,148,1,1,0,RELATED,NONE,IMMUNE_MEDIATED,RESOLVED,Y,IMMUNE-MEDIATED AES,PEMBROLIZUMAB
KN564,KN564-0480,NAUSEA,138,151,1,1,0,NOT RELATED,NONE,GENERAL,RESOLVED,Y,,PEMBROLIZUMAB
KN564,KN564-0480,NAUSEA,305,336,2,2,0,POSSIBLY RELATED,NONE,GENERAL,RESOLVED,Y,,PEMBROLIZUMAB
KN564,KN564-0480,ARTHRALGIA,346,353,1,1,0,RELATED,NONE,GENERAL,RESOLVED,Y,,PEMBROLIZUMAB
KN564,KN564-0480,NAUSEA,344,386,2,2,0,RELATED,NONE,GENERAL,RESOLVED,Y,,PEMBROLIZUMAB
KN564,KN564-0481,NAUSEA,308,315,2,2,0,POSSIBLY RELATED,NONE,GENERAL,RESOLVED,Y,,PEMBROLIZUMAB
KN564,KN564-0482,PRURITUS,220,240,2,2,0,POSSIBLY RELATED,NONE,SKIN,RESOLVED,Y,,PEMBROLIZUMAB
KN564,KN564-0483,FATIGUE,51,81,3,3,0,NOT RELATED,DOSE_HELD,GENERAL,RESOLVED,Y,,PLACEBO
KN564,KN564-0486,FATIGUE,72,92,1,1,0,NOT RELATED,NONE,GENERAL,RESOLVED,Y,,PLACEBO
KN564,KN564-0488,FATIGUE,35,67,2,2,0,POSSIBLY RELATED,NONE,GENERAL,RESOLVED,Y,,PEMBROLIZUMAB
KN564,KN564-0488,DIARRHEA,72,113,3,3,0,RELATED,DOSE_HELD,IMMUNE_MEDIATED,RESOLVED,Y,IMMUNE-MEDIATED AES,PEMBROLIZUMAB
KN564,KN564-0488,FATIGUE,76,115,2,2,0,POSSIBLY RELATED,NONE,GENERAL,RESOLVED,Y,,PEMBROLIZUMAB
KN564,KN564-0488,PRURITUS,95,102,2,2,0,RELATED,NONE,SKIN,RESOLVED,Y,,PEMBROLIZUMAB
KN564,KN564-0488,FATIGUE,96,125,1,1,0,POSSIBLY RELATED,NONE,GENERAL,RESOLVED,Y,,PEMBROLIZUMAB
KN564,KN564-0488,DIARRHEA,137,153,1,1,0,RELATED,NONE,IMMUNE_MEDIATED,RESOLVED,Y,IMMUNE-MEDIATED AES,PEMBROLIZUMAB
KN564,KN564-0488,ARTHRALGIA,161,191,2,2,0,POSSIBLY RELATED,NONE,GENERAL,RESOLVED,Y,,PEMBROLIZUMAB
KN564,KN564-0488,FATIGUE,175,185,2,2,0,POSSIBLY RELATED,NONE,GENERAL,RESOLVED,Y,,PEMBROLIZUMAB
KN564,KN564-0488,RASH,223,261,3,3,0,POSSIBLY RELATED,DOSE_HELD,SKIN,RESOLVED,Y,,PEMBROLIZUMAB
KN564,KN564-0488,FATIGUE,215,242,2,2,0,POSSIBLY RELATED,NONE,GENERAL,RESOLVED,Y,,PEMBROLIZUMAB
KN564,KN564-0488,FATIGUE,264,287,2,2,0,POSSIBLY RELATED,NONE,GENERAL,RESOLVED,Y,,PEMBROLIZUMAB
KN564,KN564-0488,FATIGUE,328,364,3,3,0,NOT RELATED,DOSE_HELD,GENERAL,RESOLVED,Y,,PEMBROLIZUMAB
KN564,KN564-0488,ARTHRALGIA,319,328,1,1,0,POSSIBLY RELATED,NONE,GENERAL,RESOLVED,Y,,PEMBROLIZUMAB
KN564,KN564-0489,RASH,14,28,3,3,0,POSSIBLY RELATED,DOSE_HELD,SKIN,RESOLVED,Y,,PEMBROLIZUMAB
KN564,KN564-0489,FATIGUE,195,221,1,1,0,NOT RELATED,NONE,GENERAL,RESOLVED,Y,,PEMBROLIZUMAB
KN564,KN564-0491,DIARRHEA,191,221,2,2,0,NOT RELATED,NONE,IMMUNE_MEDIATED,RESOLVED,Y,IMMUNE-MEDIATED AES,PLACEBO
KN564,KN564-0493,DIARRHEA,52,80,2,2,0,RELATED,NONE,IMMUNE_MEDIATED,RESOLVED,Y,IMMUNE-MEDIATED AES,PEMBROLIZUMAB
KN564,KN564-0495,PRURITUS,43,76,1,1,0,POSSIBLY RELATED,DISCONTINUED,SKIN,RESOLVED,Y,,PEMBROLIZUMAB
KN564,KN564-0497,RASH,110,121,2,2,1,POSSIBLY RELATED,NONE,SKIN,RESOLVED,Y,,PLACEBO
KN564,KN564-0499,NAUSEA,221,245,1,1,0,NOT RELATED,NONE,GENERAL,RESOLVED,Y,,PLACEBO
KN564,KN564-0500,FATIGUE,72,81,3,3,1,RELATED,DOSE_HELD,GENERAL,RESOLVED,Y,,PEMBROLIZUMAB
KN564,KN564-0500,FATIGUE,93,120,1,1,0,RELATED,NONE,GENERAL,RESOLVED,Y,,PEMBROLIZUMAB
KN564,KN564-0500,HYPERTHYROIDISM,108,136,1,1,0,RELATED,NONE,THYROID,RESOLVED,Y,IMMUNE-MEDIATED AES,PEMBROLIZUMAB
KN564,KN564-0500,DIARRHEA,135,157,1,1,0,RELATED,NONE,IMMUNE_MEDIATED,RESOLVED,Y,IMMUNE-MEDIATED AES,PEMBROLIZUMAB
KN564,KN564-0500,FATIGUE,140,149,2,2,0,POSSIBLY RELATED,NONE,GENERAL,RESOLVED,Y,,PEMBROLIZUMAB
KN564,KN564-0500,HYPOTHYROIDISM,170,204,1,1,0,RELATED,NONE,THYROID,ONGOING,Y,IMMUNE-MEDIATED AES,PEMBROLIZUMAB
KN564,KN564-0500,ARTHRALGIA,194,214,1,1,0,NOT RELATED,NONE,GENERAL,RESOLVED,Y,,PEMBROLIZUMAB
KN564,KN564-0500,FATIGUE,341,382,2,2,0,NOT RELATED,NONE,GENERAL,RESOLVED,Y,,PEMBROLIZUMAB
KN564,KN564-0501,NAUSEA,24,66,1,1,0,POSSIBLY RELATED,NONE,GENERAL,RESOLVED,Y,,PLACEBO
KN564,KN564-0502,FATIGUE,301,335,1,1,0,RELATED,NONE,GENERAL,RESOLVED,Y,,PEMBROLIZUMAB
KN564,KN564-0504,FATIGUE,52,59,2,2,0,NOT RELATED,NONE,GENERAL,RESOLVED,Y,,PEMBROLIZUMAB
KN564,KN564-0504,HYPOTHYROIDISM,338,353,1,1,0,RELATED,NONE,THYROID,ONGOING,Y,IMMUNE-MEDIATED AES,PEMBROLIZUMAB
KN564,KN564-0505,FATIGUE,29,41,1,1,0,POSSIBLY RELATED,NONE,GENERAL,RESOLVED,Y,,PLACEBO
KN564,KN564-0505,FATIGUE,345,370,2,2,0,POSSIBLY RELATED,NONE,GENERAL,RESOLVED,Y,,PLACEBO
KN564,KN564-0506,FATIGUE,3,39,1,1,0,POSSIBLY RELATED,NONE,GENERAL,RESOLVED,Y,,PLACEBO
KN564,KN564-0506,ARTHRALGIA,33,62,1,1,0,NOT RELATED,NONE,GENERAL,RESOLVED,Y,,PLACEBO
KN564,KN564-0506,FATIGUE,57,80,2,2,0,NOT RELATED,NONE,GENERAL,RESOLVED,Y,,PLACEBO
KN564,KN564-0506,FATIGUE,133,166,1,1,0,POSSIBLY RELATED,NONE,GENERAL,RESOLVED,Y,,PLACEBO
KN564,KN564-0506,FATIGUE,217,246,1,1,0,NOT RELATED,NONE,GENERAL,RESOLVED,Y,,PLACEBO
KN564,KN564-0506,FATIGUE,342,357,1,1,0,NOT RELATED,NONE,GENERAL,RESOLVED,Y,,PLACEBO
KN564,KN564-0510,RASH,23,50,3,3,1,RELATED,DOSE_HELD,SKIN,RESOLVED,Y,,PEMBROLIZUMAB
KN564,KN564-0512,PRURITUS,110,128,1,1,0,NOT RELATED,NONE,SKIN,RESOLVED,Y,,PLACEBO
KN564,KN564-0513,NAUSEA,71,112,1,1,0,NOT RELATED,NONE,GENERAL,RESOLVED,Y,,PLACEBO
KN564,KN564-0513,NAUSEA,160,195,2,2,0,POSSIBLY RELATED,NONE,GENERAL,RESOLVED,Y,,PLACEBO
KN564,KN564-0513,RASH,173,188,2,2,0,POSSIBLY RELATED,NONE,SKIN,RESOLVED,Y,,PLACEBO
KN564,KN564-0513,NAUSEA,174,195,1,1,0,POSSIBLY RELATED,NONE,GENERAL,RESOLVED,Y,,PLACEBO
KN564,KN564-0513,NAUSEA,278,288,1,1,0,POSSIBLY RELATED,NONE,GENERAL,RESOLVED,Y,,PLACEBO
KN564,KN564-0513,DIARRHEA,306,335,1,1,0,NOT RELATED,NONE,IMMUNE_MEDIATED,RESOLVED,Y,IMMUNE-MEDIATED AES,PLACEBO
KN564,KN564-0515,FATIGUE,24,54,1,1,0,POSSIBLY RELATED,NONE,GENERAL,RESOLVED,Y,,PEMBROLIZUMAB
KN564,KN564-0515,HYPOTHYROIDISM,214,242,1,1,0,RELATED,NONE,THYROID,ONGOING,Y,IMMUNE-MEDIATED AES,PEMBROLIZUMAB
KN564,KN564-0515,ARTHRALGIA,274,293,3,3,1,POSSIBLY RELATED,DOSE_HELD,GENERAL,RESOLVED,Y,,PEMBROLIZUMAB
KN564,KN564-0517,HYPOTHYROIDISM,318,360,1,1,0,RELATED,NONE,THYROID,ONGOING,Y,IMMUNE-MEDIATED AES,PEMBROLIZUMAB
KN564,KN564-0522,ARTHRALGIA,64,81,1,1,0,RELATED,NONE,GENERAL,RESOLVED,Y,,PEMBROLIZUMAB
KN564,KN564-0522,PRURITUS,238,246,1,1,0,RELATED,NONE,SKIN,RESOLVED,Y,,PEMBROLIZUMAB
KN564,KN564-0524,DIARRHEA,235,250,2,2,0,POSSIBLY RELATED,NONE,IMMUNE_MEDIATED,RESOLVED,Y,IMMUNE-MEDIATED AES,PLACEBO
KN564,KN564-0525,ARTHRALGIA,237,254,1,1,0,POSSIBLY RELATED,NONE,GENERAL,RESOLVED,Y,,PEMBROLIZUMAB
KN564,KN564-0525,FATIGUE,266,300,1,1,0,POSSIBLY RELATED,NONE,GENERAL,RESOLVED,Y,,PEMBROLIZUMAB
KN564,KN564-0525,FATIGUE,280,288,2,2,0,POSSIBLY RELATED,NONE,GENERAL,RESOLVED,Y,,PEMBROLIZUMAB
KN564,KN564-0526,HYPOTHYROIDISM,192,230,1,1,0,RELATED,NONE,THYROID,ONGOING,Y,IMMUNE-MEDIATED AES,PEMBROLIZUMAB
KN564,KN564-0526,NAUSEA,203,233,1,1,0,NOT RELATED,NONE,GENERAL,RESOLVED,Y,,PEMBROLIZUMAB
KN564,KN564-0526,NAUSEA,224,247,2,2,0,POSSIBLY RELATED,NONE,GENERAL,RESOLVED,Y,,PEMBROLIZUMAB
KN564,KN564-0526,DIARRHEA,347,367,2,2,0,RELATED,NONE,IMMUNE_MEDIATED,RESOLVED,Y,IMMUNE-MEDIATED AES,PEMBROLIZUMAB
KN564,KN564-0527,HYPOTHYROIDISM,171,209,2,2,0,RELATED,NONE,THYROID,ONGOING,Y,IMMUNE-MEDIATED AES,PEMBROLIZUMAB
KN564,KN564-0527,NAUSEA,175,182,2,2,0,RELATED,NONE,GENERAL,RESOLVED,Y,,PEMBROLIZUMAB
KN564,KN564-0530,FATIGUE,135,157,2,2,0,RELATED,NONE,GENERAL,RESOLVED,Y,,PLACEBO
KN564,KN564-0530,FATIGUE,157,197,2,2,0,NOT RELATED,NONE,GENERAL,RESOLVED,Y,,PLACEBO
KN564,KN564-0531,PRURITUS,204,228,1,1,0,RELATED,NONE,SKIN,RESOLVED,Y,,PEMBROLIZUMAB
KN564,KN564-0532,RASH,267,290,1,1,0,POSSIBLY RELATED,NONE,SKIN,RESOLVED,Y,,PEMBROLIZUMAB
KN564,KN564-0533,ARTHRALGIA,106,134,1,1,0,POSSIBLY RELATED,NONE,GENERAL,RESOLVED,Y,,PEMBROLIZUMAB
KN564,KN564-0533,FATIGUE,283,305,1,1,0,POSSIBLY RELATED,NONE,GENERAL,RESOLVED,Y,,PEMBROLIZUMAB
KN564,KN564-0533,FATIGUE,296,316,2,2,0,POSSIBLY RELATED,NONE,GENERAL,RESOLVED,Y,,PEMBROLIZUMAB
KN564,KN564-0534,FATIGUE,22,37,2,2,0,NOT RELATED,NONE,GENERAL,RESOLVED,Y,,PLACEBO
KN564,KN564-0534,FATIGUE,99,119,2,2,1,NOT RELATED,NONE,GENERAL,RESOLVED,Y,,PLACEBO
KN564,KN564-0534,FATIGUE,114,156,2,2,0,POSSIBLY RELATED,NONE,GENERAL,RESOLVED,Y,,PLACEBO
KN564,KN564-0535,FATIGUE,156,177,3,3,0,POSSIBLY RELATED,DOSE_HELD,GENERAL,RESOLVED,Y,,PEMBROLIZUMAB
KN564,KN564-0536,FATIGUE,328,350,2,2,0,POSSIBLY RELATED,NONE,GENERAL,RESOLVED,Y,,PEMBROLIZUMAB
KN564,KN564-0539,NAUSEA,98,111,2,2,0,POSSIBLY RELATED,NONE,GENERAL,RESOLVED,Y,,PEMBROLIZUMAB
KN564,KN564-0539,NAUSEA,195,235,3,3,0,RELATED,DOSE_HELD,GENERAL,RESOLVED,Y,,PEMBROLIZUMAB
KN564,KN564-0539,NAUSEA,243,256,2,2,0,POSSIBLY RELATED,NONE,GENERAL,RESOLVED,Y,,PEMBROLIZUMAB
KN564,KN564-0540,FATIGUE,220,240,1,1,0,NOT RELATED,NONE,GENERAL,RESOLVED,Y,,PLACEBO
KN564,KN564-0541,HYPOTHYROIDISM,6,46,1,1,0,RELATED,NONE,THYROID,ONGOING,Y,IMMUNE-MEDIATED AES,PEMBROLIZUMAB
KN564,KN564-0541,NAUSEA,343,362,1,1,0,RELATED,NONE,GENERAL,RESOLVED,Y,,PEMBROLIZUMAB
KN564,KN564-0545,DIARRHEA,24,43,1,1,0,RELATED,NONE,IMMUNE_MEDIATED,RESOLVED,Y,IMMUNE-MEDIATED AES,PEMBROLIZUMAB
KN564,KN564-0545,DIARRHEA,169,179,2,2,0,RELATED,NONE,IMMUNE_MEDIATED,RESOLVED,Y,IMMUNE-MEDIATED AES,PEMBROLIZUMAB
KN564,KN564-0546,NAUSEA,253,282,1,1,0,NOT RELATED,NONE,GENERAL,RESOLVED,Y,,PLACEBO
KN564,KN564-0548,ARTHRALGIA,174,187,1,1,0,NOT RELATED,NONE,GENERAL,RESOLVED,Y,,PLACEBO
KN564,KN564-0549,ARTHRALGIA,48,63,1,1,0,POSSIBLY RELATED,NONE,GENERAL,RESOLVED,Y,,PLACEBO
KN564,KN564-0549,FATIGUE,234,250,2,2,0,NOT RELATED,NONE,GENERAL,RESOLVED,Y,,PLACEBO
KN564,KN564-0549,FATIGUE,253,284,1,1,0,POSSIBLY RELATED,NONE,GENERAL,RESOLVED,Y,,PLACEBO
KN564,KN564-0550,RASH,216,254,1,1,0,RELATED,NONE,SKIN,RESOLVED,Y,,PEMBROLIZUMAB
KN564,KN564-0551,PRURITUS,154,170,2,2,0,RELATED,NONE,SKIN,RESOLVED,Y,,PEMBROLIZUMAB
KN564,KN564-0552,FATIGUE,275,311,2,2,1,POSSIBLY RELATED,NONE,GENERAL,RESOLVED,Y,,PLACEBO
KN564,KN564-0553,RASH,106,145,1,1,0,NOT RELATED,NONE,SKIN,RESOLVED,Y,,PLACEBO
KN564,KN564-0554,HYPERTHYROIDISM,8,16,1,1,0,RELATED,NONE,THYROID,RESOLVED,Y,IMMUNE-MEDIATED AES,PEMBROLIZUMAB
KN564,KN564-0554,HYPOTHYROIDISM,49,60,2,2,0,RELATED,NONE,THYROID,ONGOING,Y,IMMUNE-MEDIATED AES,PEMBROLIZUMAB
KN564,KN564-0554,RASH,120,155,2,2,0,RELATED,NONE,SKIN,RESOLVED,Y,,PEMBROLIZUMAB
KN564,KN564-0554,DIARRHEA,116,144,1,1,0,POSSIBLY RELATED,NONE,IMMUNE_MEDIATED,RESOLVED,Y,IMMUNE-MEDIATED AES,PEMBROLIZUMAB
KN564,KN564-0555,ARTHRALGIA,44,74,1,1,0,POSSIBLY RELATED,NONE,GENERAL,RESOLVED,Y,,PEMBROLIZUMAB
KN564,KN564-0555,ARTHRALGIA,203,221,1,1,0,POSSIBLY RELATED,NONE,GENERAL,RESOLVED,Y,,PEMBROLIZUMAB
KN564,KN564-0559,FATIGUE,33,65,2,2,0,POSSIBLY RELATED,NONE,GENERAL,RESOLVED,Y,,PEMBROLIZUMAB
KN564,KN564-0560,HYPOTHYROIDISM,149,175,1,1,0,RELATED,NONE,THYROID,ONGOING,Y,IMMUNE-MEDIATED AES,PEMBROLIZUMAB
KN564,KN564-0564,HYPERTHYROIDISM,23,30,1,1,0,RELATED,NONE,THYROID,RESOLVED,Y,IMMUNE-MEDIATED AES,PEMBROLIZUMAB
KN564,KN564-0564,HYPOTHYROIDISM,45,78,1,1,0,RELATED,NONE,THYROID,ONGOING,Y,IMMUNE-MEDIATED AES,PEMBROLIZUMAB
KN564,KN564-0564,FATIGUE,171,182,1,1,0,POSSIBLY RELATED,NONE,GENERAL,RESOLVED,Y,,PEMBROLIZUMAB
KN564,KN564-0567,RASH,128,145,3,3,1,POSSIBLY RELATED,DOSE_HELD,SKIN,RESOLVED,Y,,PEMBROLIZUMAB
KN564,KN564-0568,ARTHRALGIA,134,153,1,1,0,NOT RELATED,NONE,GENERAL,RESOLVED,Y,,PLACEBO
KN564,KN564-0568,FATIGUE,307,336,1,1,0,NOT RELATED,NONE,GENERAL,RESOLVED,Y,,PLACEBO
KN564,KN564-0568,FATIGUE,320,333,2,2,0,POSSIBLY RELATED,NONE,GENERAL,RESOLVED,Y,,PLACEBO
KN564,KN564-0570,RASH,327,348,2,2,0,RELATED,NONE,SKIN,RESOLVED,Y,,PEMBROLIZUMAB
KN564,KN564-0571,ARTHRALGIA,297,335,2,2,0,NOT RELATED,NONE,GENERAL,RESOLVED,Y,,PLACEBO
KN564,KN564-0572,PRURITUS,27,63,2,2,0,POSSIBLY RELATED,NONE,SKIN,RESOLVED,Y,,PLACEBO
KN564,KN564-0572,ARTHRALGIA,43,68,2,2,0,RELATED,NONE,GENERAL,RESOLVED,Y,,PLACEBO
KN564,KN564-0572,RASH,86,93,2,2,0,POSSIBLY RELATED,NONE,SKIN,RESOLVED,Y,,PLACEBO
KN564,KN564-0572,PRURITUS,304,327,2,2,0,POSSIBLY RELATED,NONE,SKIN,RESOLVED,Y,,PLACEBO
KN564,KN564-0572,FATIGUE,303,322,1,1,0,NOT RELATED,NONE,GENERAL,RESOLVED,Y,,PLACEBO
KN564,KN564-0573,HYPOTHYROIDISM,151,190,1,1,1,RELATED,NONE,THYROID,ONGOING,Y,IMMUNE-MEDIATED AES,PEMBROLIZUMAB
KN564,KN564-0574,NAUSEA,13,47,1,1,0,RELATED,NONE,GENERAL,RESOLVED,Y,,PEMBROLIZUMAB
KN564,KN564-0574,FATIGUE,267,300,2,2,0,POSSIBLY RELATED,NONE,GENERAL,RESOLVED,Y,,PEMBROLIZUMAB
KN564,KN564-0574,FATIGUE,319,337,3,3,0,RELATED,DOSE_HELD,GENERAL,RESOLVED,Y,,PEMBROLIZUMAB
KN564,KN564-0575,FATIGUE,1,12,2,2,1,NOT RELATED,NONE,GENERAL,RESOLVED,Y,,PLACEBO
KN564,KN564-0575,FATIGUE,130,150,1,1,0,POSSIBLY RELATED,NONE,GENERAL,RESOLVED,Y,,PLACEBO
KN564,KN564-0575,FATIGUE,264,271,1,1,0,POSSIBLY RELATED,NONE,GENERAL,RESOLVED,Y,,PLACEBO
KN564,KN564-0577,RASH,258,294,1,1,0,POSSIBLY RELATED,NONE,SKIN,RESOLVED,Y,,PLACEBO
KN564,KN564-0578,HYPERTHYROIDISM,68,78,2,2,0,RELATED,NONE,THYROID,RESOLVED,Y,IMMUNE-MEDIATED AES,PEMBROLIZUMAB
KN564,KN564-0578,HYPOTHYROIDISM,86,114,1,1,0,RELATED,NONE,THYROID,ONGOING,Y,IMMUNE-MEDIATED AES,PEMBROLIZUMAB
KN564,KN564-0580,DIARRHEA,43,72,2,2,0,POSSIBLY RELATED,NONE,IMMUNE_MEDIATED,RESOLVED,Y,IMMUNE-MEDIATED AES,PEMBROLIZUMAB
KN564,KN564-0580,HYPOTHYROIDISM,151,159,1,1,0,RELATED,NONE,THYROID,ONGOING,Y,IMMUNE-MEDIATED AES,PEMBROLIZUMAB
KN564,KN564-0582,FATIGUE,115,144,2,2,0,POSSIBLY RELATED,NONE,GENERAL,RESOLVED,Y,,PEMBROLIZUMAB
KN564,KN564-0583,DIARRHEA,141,178,1,1,0,POSSIBLY RELATED,NONE,IMMUNE_MEDIATED,RESOLVED,Y,IMMUNE-MEDIATED AES,PEMBROLIZUMAB
KN564,KN564-0583,NAUSEA,277,294,1,1,0,NOT RELATED,NONE,GENERAL,RESOLVED,Y,,PEMBROLIZUMAB
KN564,KN564-0583,HYPERTHYROIDISM,298,329,2,2,0,RELATED,NONE,THYROID,RESOLVED,Y,IMMUNE-MEDIATED AES,PEMBROLIZUMAB
KN564,KN564-0583,HYPOTHYROIDISM,320,352,1,1,0,RELATED,NONE,THYROID,ONGOING,Y,IMMUNE-MEDIATED AES,PEMBROLIZUMAB
KN564,KN564-0584,HYPERTHYROIDISM,29,50,2,2,0,RELATED,NONE,THYROID,RESOLVED,Y,IMMUNE-MEDIATED AES,PEMBROLIZUMAB
KN564,KN564-0584,PRURITUS,32,62,1,1,0,RELATED,NONE,SKIN,RESOLVED,Y,,PEMBROLIZUMAB
KN564,KN564-0584,HYPOTHYROIDISM,153,165,2,2,0,RELATED,NONE,THYROID,ONGOING,Y,IMMUNE-MEDIATED AES,PEMBROLIZUMAB
KN564,KN564-0586,RASH,11,50,1,1,0,POSSIBLY RELATED,NONE,SKIN,RESOLVED,Y,,PEMBROLIZUMAB
KN564,KN564-0586,HYPOTHYROIDISM,67,103,1,1,0,RELATED,NONE,THYROID,ONGOING,Y,IMMUNE-MEDIATED AES,PEMBROLIZUMAB
KN564,KN564-0587,HYPERTHYROIDISM,295,310,1,1,0,RELATED,NONE,THYROID,RESOLVED,Y,IMMUNE-MEDIATED AES,PEMBROLIZUMAB
KN564,KN564-0587,HYPOTHYROIDISM,343,384,1,1,1,RELATED,NONE,THYROID,ONGOING,Y,IMMUNE-MEDIATED AES,PEMBROLIZUMAB
KN564,KN564-0589,PRURITUS,152,159,2,2,0,POSSIBLY RELATED,NONE,SKIN,RESOLVED,Y,,PLACEBO
KN564,KN564-0590,PRURITUS,169,201,1,1,0,POSSIBLY RELATED,NONE,SKIN,RESOLVED,Y,,PLACEBO
KN564,KN564-0591,RASH,96,129,2,2,0,RELATED,NONE,SKIN,RESOLVED,Y,,PEMBROLIZUMAB
KN564,KN564-0591,HYPERTHYROIDISM,215,236,1,1,0,RELATED,NONE,THYROID,RESOLVED,Y,IMMUNE-MEDIATED AES,PEMBROLIZUMAB
KN564,KN564-0591,HYPOTHYROIDISM,341,355,1,1,0,RELATED,NONE,THYROID,ONGOING,Y,IMMUNE-MEDIATED AES,PEMBROLIZUMAB
KN564,KN564-0593,FATIGUE,30,50,2,2,0,NOT RELATED,NONE,GENERAL,RESOLVED,Y,,PEMBROLIZUMAB
KN564,KN564-0593,FATIGUE,47,69,2,2,0,POSSIBLY RELATED,NONE,GENERAL,RESOLVED,Y,,PEMBROLIZUMAB
KN564,KN564-0593,ARTHRALGIA,78,96,3,3,0,POSSIBLY RELATED,DISCONTINUED,GENERAL,RESOLVED,Y,,PEMBROLIZUMAB
KN564,KN564-0593,FATIGUE,94,109,1,1,0,POSSIBLY RELATED,NONE,GENERAL,RESOLVED,Y,,PEMBROLIZUMAB
KN564,KN564-0593,ARTHRALGIA,94,101,2,2,0,RELATED,NONE,GENERAL,RESOLVED,Y,,PEMBROLIZUMAB
KN564,KN564-0594,RASH,92,130,1,1,0,POSSIBLY RELATED,NONE,SKIN,RESOLVED,Y,,PEMBROLIZUMAB
KN564,KN564-0595,FATIGUE,148,168,2,2,0,NOT RELATED,NONE,GENERAL,RESOLVED,Y,,PLACEBO
KN564,KN564-0595,ARTHRALGIA,257,275,2,2,0,NOT RELATED,NONE,GENERAL,RESOLVED,Y,,PLACEBO
KN564,KN564-0595,FATIGUE,319,340,1,1,0,RELATED,NONE,GENERAL,RESOLVED,Y,,PLACEBO
KN564,KN564-0596,FATIGUE,1,27,1,1,0,POSSIBLY RELATED,NONE,GENERAL,RESOLVED,Y,,PEMBROLIZUMAB
KN564,KN564-0596,ARTHRALGIA,13,22,3,3,0,POSSIBLY RELATED,DOSE_HELD,GENERAL,RESOLVED,Y,,PEMBROLIZUMAB
KN564,KN564-0596,FATIGUE,30,51,1,1,0,NOT RELATED,NONE,GENERAL,RESOLVED,Y,,PEMBROLIZUMAB
KN564,KN564-0596,FATIGUE,57,90,3,3,0,POSSIBLY RELATED,DISCONTINUED,GENERAL,RESOLVED,Y,,PEMBROLIZUMAB
KN564,KN564-0596,FATIGUE,76,92,2,2,0,NOT RELATED,NONE,GENERAL,RESOLVED,Y,,PEMBROLIZUMAB
KN564,KN564-0596,ARTHRALGIA,76,111,1,1,0,POSSIBLY RELATED,NONE,GENERAL,RESOLVED,Y,,PEMBROLIZUMAB
KN564,KN564-0596,FATIGUE,94,107,1,1,0,NOT RELATED,NONE,GENERAL,RESOLVED,Y,,PEMBROLIZUMAB
KN564,KN564-0596,FATIGUE,110,141,1,1,0,NOT RELATED,NONE,GENERAL,RESOLVED,Y,,PEMBROLIZUMAB
KN564,KN564-0597,ARTHRALGIA,57,77,2,2,0,POSSIBLY RELATED,NONE,GENERAL,RESOLVED,Y,,PEMBROLIZUMAB
KN564,KN564-0598,PRURITUS,131,169,2,2,0,POSSIBLY RELATED,NONE,SKIN,RESOLVED,Y,,PLACEBO
KN564,KN564-0599,DIARRHEA,91,100,2,2,0,POSSIBLY RELATED,DISCONTINUED,IMMUNE_MEDIATED,RESOLVED,Y,IMMUNE-MEDIATED AES,PLACEBO
KN564,KN564-0599,RASH,319,336,4,4,1,POSSIBLY RELATED,DISCONTINUED,SKIN,ONGOING,Y,,PLACEBO
KN564,KN564-0600,NAUSEA,136,157,3,3,0,RELATED,DISCONTINUED,GENERAL,RESOLVED,Y,,PEMBROLIZUMAB
KN564,KN564-0600,HYPERTHYROIDISM,192,201,2,2,0,RELATED,NONE,THYROID,RESOLVED,Y,IMMUNE-MEDIATED AES,PEMBROLIZUMAB
KN564,KN564-0600,HYPOTHYROIDISM,211,250,1,1,0,RELATED,NONE,THYROID,ONGOING,Y,IMMUNE-MEDIATED AES,PEMBROLIZUMAB
KN564,KN564-0602,NAUSEA,128,167,1,1,0,POSSIBLY RELATED,NONE,GENERAL,RESOLVED,Y,,PLACEBO
KN564,KN564-0603,FATIGUE,120,145,1,1,0,POSSIBLY RELATED,NONE,GENERAL,RESOLVED,Y,,PEMBROLIZUMAB
KN564,KN564-0603,FATIGUE,158,176,1,1,0,POSSIBLY RELATED,NONE,GENERAL,RESOLVED,Y,,PEMBROLIZUMAB
KN564,KN564-0603,FATIGUE,182,201,2,2,0,POSSIBLY RELATED,NONE,GENERAL,RESOLVED,Y,,PEMBROLIZUMAB
KN564,KN564-0603,FATIGUE,242,274,2,2,0,POSSIBLY RELATED,DISCONTINUED,GENERAL,RESOLVED,Y,,PEMBROLIZUMAB
KN564,KN564-0603,FATIGUE,350,364,1,1,0,POSSIBLY RELATED,NONE,GENERAL,RESOLVED,Y,,PEMBROLIZUMAB
KN564,KN564-0603,ARTHRALGIA,337,368,1,1,0,POSSIBLY RELATED,NONE,GENERAL,RESOLVED,Y,,PEMBROLIZUMAB
KN564,KN564-0604,ARTHRALGIA,56,67,2,2,0,POSSIBLY RELATED,DISCONTINUED,GENERAL,RESOLVED,Y,,PEMBROLIZUMAB
KN564,KN564-0604,FATIGUE,70,83,3,3,0,POSSIBLY RELATED,DOSE_HELD,GENERAL,RESOLVED,Y,,PEMBROLIZUMAB
KN564,KN564-0608,RASH,22,51,1,1,0,NOT RELATED,NONE,SKIN,RESOLVED,Y,,PLACEBO
KN564,KN564-0608,ARTHRALGIA,177,206,2,2,0,POSSIBLY RELATED,NONE,GENERAL,RESOLVED,Y,,PLACEBO
KN564,KN564-0612,NAUSEA,34,74,2,2,0,NOT RELATED,NONE,GENERAL,RESOLVED,Y,,PEMBROLIZUMAB
KN564,KN564-0612,FATIGUE,64,74,2,2,0,RELATED,NONE,GENERAL,RESOLVED,Y,,PEMBROLIZUMAB
KN564,KN564-0612,FATIGUE,88,126,3,3,0,POSSIBLY RELATED,DOSE_HELD,GENERAL,RESOLVED,Y,,PEMBROLIZUMAB
KN564,KN564-0612,FATIGUE,115,132,1,1,0,NOT RELATED,NONE,GENERAL,RESOLVED,Y,,PEMBROLIZUMAB
KN564,KN564-0612,ARTHRALGIA,296,308,1,1,0,POSSIBLY RELATED,NONE,GENERAL,RESOLVED,Y,,PEMBROLIZUMAB
KN564,KN564-0612,DIARRHEA,322,344,2,2,0,RELATED,NONE,IMMUNE_MEDIATED,RESOLVED,Y,IMMUNE-MEDIATED AES,PEMBROLIZUMAB
KN564,KN564-0613,FATIGUE,13,50,2,2,0,RELATED,NONE,GENERAL,RESOLVED,Y,,PEMBROLIZUMAB
KN564,KN564-0613,FATIGUE,25,63,3,3,0,POSSIBLY RELATED,DOSE_HELD,GENERAL,RESOLVED,Y,,PEMBROLIZUMAB
KN564,KN564-0613,FATIGUE,196,237,1,1,0,RELATED,NONE,GENERAL,RESOLVED,Y,,PEMBROLIZUMAB
KN564,KN564-0613,ARTHRALGIA,274,310,2,2,0,POSSIBLY RELATED,NONE,GENERAL,RESOLVED,Y,,PEMBROLIZUMAB
KN564,KN564-0613,FATIGUE,330,361,3,3,1,POSSIBLY RELATED,DOSE_HELD,GENERAL,RESOLVED,Y,,PEMBROLIZUMAB
KN564,KN564-0613,ARTHRALGIA,325,355,2,2,0,POSSIBLY RELATED,NONE,GENERAL,RESOLVED,Y,,PEMBROLIZUMAB
KN564,KN564-0615,FATIGUE,152,184,1,1,0,POSSIBLY RELATED,NONE,GENERAL,RESOLVED,Y,,PLACEBO
KN564,KN564-0619,FATIGUE,12,42,1,1,0,POSSIBLY RELATED,NONE,GENERAL,RESOLVED,Y,,PLACEBO
KN564,KN564-0619,FATIGUE,50,69,1,1,0,NOT RELATED,NONE,GENERAL,RESOLVED,Y,,PLACEBO
KN564,KN564-0619,ARTHRALGIA,115,146,1,1,0,RELATED,NONE,GENERAL,RESOLVED,Y,,PLACEBO
KN564,KN564-0619,FATIGUE,152,192,2,2,0,POSSIBLY RELATED,NONE,GENERAL,RESOLVED,Y,,PLACEBO
KN564,KN564-0619,FATIGUE,243,259,1,1,0,POSSIBLY RELATED,NONE,GENERAL,RESOLVED,Y,,PLACEBO
KN564,KN564-0619,FATIGUE,286,325,2,2,0,NOT RELATED,NONE,GENERAL,RESOLVED,Y,,PLACEBO
KN564,KN564-0619,FATIGUE,307,324,2,2,0,NOT RELATED,NONE,GENERAL,RESOLVED,Y,,PLACEBO
KN564,KN564-0620,PRURITUS,53,73,3,3,1,RELATED,DISCONTINUED,SKIN,RESOLVED,Y,,PEMBROLIZUMAB
KN564,KN564-0620,RASH,50,60,2,2,0,RELATED,NONE,SKIN,RESOLVED,Y,,PEMBROLIZUMAB
KN564,KN564-0620,HYPOTHYROIDISM,195,217,2,2,0,RELATED,NONE,THYROID,ONGOING,Y,IMMUNE-MEDIATED AES,PEMBROLIZUMAB
KN564,KN564-0620,RASH,283,310,3,3,1,POSSIBLY RELATED,DOSE_HELD,SKIN,RESOLVED,Y,,PEMBROLIZUMAB
KN564,KN564-0625,HYPERTHYROIDISM,254,276,1,1,0,RELATED,DISCONTINUED,THYROID,RESOLVED,Y,IMMUNE-MEDIATED AES,PEMBROLIZUMAB
KN564,KN564-0625,HYPOTHYROIDISM,281,289,2,2,0,RELATED,NONE,THYROID,ONGOING,Y,IMMUNE-MEDIATED AES,PEMBROLIZUMAB
KN564,KN564-0627,HYPERTHYROIDISM,29,58,1,1,0,RELATED,DISCONTINUED,THYROID,RESOLVED,Y,IMMUNE-MEDIATED AES,PEMBROLIZUMAB
KN564,KN564-0627,HYPOTHYROIDISM,92,117,2,2,0,RELATED,NONE,THYROID,ONGOING,Y,IMMUNE-MEDIATED AES,PEMBROLIZUMAB
KN564,KN564-0629,NAUSEA,281,292,1,1,0,POSSIBLY RELATED,NONE,GENERAL,RESOLVED,Y,,PEMBROLIZUMAB
KN564,KN564-0630,HYPOTHYROIDISM,49,56,1,1,0,RELATED,NONE,THYROID,ONGOING,Y,IMMUNE-MEDIATED AES,PEMBROLIZUMAB
KN564,KN564-0630,RASH,154,187,1,1,0,RELATED,NONE,SKIN,RESOLVED,Y,,PEMBROLIZUMAB
KN564,KN564-0632,HYPERTHYROIDISM,113,144,1,1,0,RELATED,NONE,THYROID,RESOLVED,Y,IMMUNE-MEDIATED AES,PEMBROLIZUMAB
KN564,KN564-0633,PRURITUS,5,42,1,1,0,POSSIBLY RELATED,NONE,SKIN,RESOLVED,Y,,PLACEBO
KN564,KN564-0634,NAUSEA,15,31,2,2,0,RELATED,NONE,GENERAL,RESOLVED,Y,,PEMBROLIZUMAB
KN564,KN564-0634,NAUSEA,26,61,2,2,0,NOT RELATED,NONE,GENERAL,RESOLVED,Y,,PEMBROLIZUMAB
KN564,KN564-0634,NAUSEA,239,255,1,1,0,RELATED,NONE,GENERAL,RESOLVED,Y,,PEMBROLIZUMAB
KN564,KN564-0634,NAUSEA,321,351,2,2,0,RELATED,NONE,GENERAL,RESOLVED,Y,,PEMBROLIZUMAB
KN564,KN564-0634,HYPOTHYROIDISM,339,366,1,1,0,RELATED,NONE,THYROID,ONGOING,Y,IMMUNE-MEDIATED AES,PEMBROLIZUMAB
KN564,KN564-0638,NAUSEA,157,180,3,3,1,NOT RELATED,DOSE_HELD,GENERAL,RESOLVED,Y,,PLACEBO
KN564,KN564-0640,FATIGUE,179,200,1,1,0,RELATED,NONE,GENERAL,RESOLVED,Y,,PEMBROLIZUMAB
KN564,KN564-0641,DIARRHEA,169,182,1,1,0,RELATED,NONE,IMMUNE_MEDIATED,RESOLVED,Y,IMMUNE-MEDIATED AES,PEMBROLIZUMAB
KN564,KN564-0641,HYPERTHYROIDISM,320,332,1,1,0,RELATED,NONE,THYROID,RESOLVED,Y,IMMUNE-MEDIATED AES,PEMBROLIZUMAB
KN564,KN564-0642,NAUSEA,2,22,1,1,0,POSSIBLY RELATED,NONE,GENERAL,RESOLVED,Y,,PLACEBO
KN564,KN564-0643,HYPOTHYROIDISM,279,321,1,1,0,RELATED,NONE,THYROID,ONGOING,Y,IMMUNE-MEDIATED AES,PEMBROLIZUMAB
KN564,KN564-0644,RASH,328,355,1,1,0,POSSIBLY RELATED,NONE,SKIN,RESOLVED,Y,,PLACEBO
KN564,KN564-0647,HYPOTHYROIDISM,338,365,1,1,0,RELATED,NONE,THYROID,ONGOING,Y,IMMUNE-MEDIATED AES,PEMBROLIZUMAB
KN564,KN564-0647,ARTHRALGIA,341,359,1,1,0,RELATED,NONE,GENERAL,RESOLVED,Y,,PEMBROLIZUMAB
KN564,KN564-0648,FATIGUE,322,353,3,3,0,NOT RELATED,DOSE_HELD,GENERAL,RESOLVED,Y,,PLACEBO
KN564,KN564-0649,FATIGUE,26,37,1,1,0,RELATED,NONE,GENERAL,RESOLVED,Y,,PEMBROLIZUMAB
KN564,KN564-0650,FATIGUE,51,67,2,2,0,POSSIBLY RELATED,NONE,GENERAL,RESOLVED,Y,,PEMBROLIZUMAB
KN564,KN564-0651,NAUSEA,4,34,1,1,0,NOT RELATED,NONE,GENERAL,RESOLVED,Y,,PEMBROLIZUMAB
KN564,KN564-0651,DIARRHEA,53,65,2,2,0,RELATED,NONE,IMMUNE_MEDIATED,RESOLVED,Y,IMMUNE-MEDIATED AES,PEMBROLIZUMAB
KN564,KN564-0651,FATIGUE,47,87,1,1,0,NOT RELATED,NONE,GENERAL,RESOLVED,Y,,PEMBROLIZUMAB
KN564,KN564-0651,FATIGUE,107,124,1,1,0,RELATED,NONE,GENERAL,RESOLVED,Y,,PEMBROLIZUMAB
KN564,KN564-0651,DIARRHEA,148,162,2,2,0,RELATED,NONE,IMMUNE_MEDIATED,RESOLVED,Y,IMMUNE-MEDIATED AES,PEMBROLIZUMAB
KN564,KN564-0651,FATIGUE,181,202,2,2,0,POSSIBLY RELATED,NONE,GENERAL,RESOLVED,Y,,PEMBROLIZUMAB
KN564,KN564-0651,PRURITUS,337,348,1,1,0,RELATED,NONE,SKIN,RESOLVED,Y,,PEMBROLIZUMAB
KN564,KN564-0654,PRURITUS,95,115,1,1,0,POSSIBLY RELATED,NONE,SKIN,RESOLVED,Y,,PLACEBO
KN564,KN564-0654,FATIGUE,112,148,1,1,0,NOT RELATED,NONE,GENERAL,RESOLVED,Y,,PLACEBO
KN564,KN564-0654,ARTHRALGIA,108,132,2,2,0,NOT RELATED,NONE,GENERAL,RESOLVED,Y,,PLACEBO
KN564,KN564-0654,FATIGUE,195,234,2,2,0,RELATED,NONE,GENERAL,RESOLVED,Y,,PLACEBO
KN564,KN564-0654,FATIGUE,223,236,1,1,0,POSSIBLY RELATED,NONE,GENERAL,RESOLVED,Y,,PLACEBO
KN564,KN564-0654,FATIGUE,244,277,2,2,0,NOT RELATED,NONE,GENERAL,RESOLVED,Y,,PLACEBO
KN564,KN564-0654,ARTHRALGIA,265,293,1,1,0,POSSIBLY RELATED,NONE,GENERAL,RESOLVED,Y,,PLACEBO
KN564,KN564-0654,FATIGUE,287,306,1,1,0,NOT RELATED,NONE,GENERAL,RESOLVED,Y,,PLACEBO
KN564,KN564-0654,ARTHRALGIA,302,310,1,1,0,POSSIBLY RELATED,NONE,GENERAL,RESOLVED,Y,,PLACEBO
KN564,KN564-0654,FATIGUE,318,340,1,1,0,NOT RELATED,NONE,GENERAL,RESOLVED,Y,,PLACEBO
KN564,KN564-0654,ARTHRALGIA,321,362,1,1,0,POSSIBLY RELATED,NONE,GENERAL,RESOLVED,Y,,PLACEBO
KN564,KN564-0658,FATIGUE,135,163,1,1,0,POSSIBLY RELATED,NONE,GENERAL,RESOLVED,Y,,PEMBROLIZUMAB
KN564,KN564-0658,ARTHRALGIA,217,232,1,1,0,NOT RELATED,NONE,GENERAL,RESOLVED,Y,,PEMBROLIZUMAB
KN564,KN564-0658,ARTHRALGIA,346,357,2,2,0,POSSIBLY RELATED,NONE,GENERAL,RESOLVED,Y,,PEMBROLIZUMAB
KN564,KN564-0659,NAUSEA,64,79,2,2,0,NOT RELATED,NONE,GENERAL,RESOLVED,Y,,PEMBROLIZUMAB
KN564,KN564-0659,NAUSEA,300,340,1,1,0,POSSIBLY RELATED,NONE,GENERAL,RESOLVED,Y,,PEMBROLIZUMAB
KN564,KN564-0662,FATIGUE,152,184,2,2,0,POSSIBLY RELATED,NONE,GENERAL,RESOLVED,Y,,PLACEBO
KN564,KN564-0662,FATIGUE,213,242,3,3,0,NOT RELATED,DOSE_HELD,GENERAL,RESOLVED,Y,,PLACEBO
KN564,KN564-0662,ARTHRALGIA,285,317,2,2,0,POSSIBLY RELATED,NONE,GENERAL,RESOLVED,Y,,PLACEBO
KN564,KN564-0665,ARTHRALGIA,196,222,1,1,0,RELATED,NONE,GENERAL,RESOLVED,Y,,PLACEBO
KN564,KN564-0667,FATIGUE,107,128,2,2,1,NOT RELATED,NONE,GENERAL,RESOLVED,Y,,PEMBROLIZUMAB
KN564,KN564-0668,ARTHRALGIA,106,133,2,2,0,NOT RELATED,NONE,GENERAL,RESOLVED,Y,,PEMBROLIZUMAB
KN564,KN564-0671,PRURITUS,109,127,2,2,0,RELATED,NONE,SKIN,RESOLVED,Y,,PEMBROLIZUMAB
KN564,KN564-0673,FATIGUE,259,301,2,2,0,RELATED,NONE,GENERAL,RESOLVED,Y,,PLACEBO
KN564,KN564-0674,HYPERTHYROIDISM,64,98,1,1,0,RELATED,NONE,THYROID,RESOLVED,Y,IMMUNE-MEDIATED AES,PEMBROLIZUMAB
KN564,KN564-0674,HYPOTHYROIDISM,134,155,1,1,0,RELATED,NONE,THYROID,ONGOING,Y,IMMUNE-MEDIATED AES,PEMBROLIZUMAB
KN564,KN564-0677,DIARRHEA,95,135,2,2,1,RELATED,NONE,IMMUNE_MEDIATED,RESOLVED,Y,IMMUNE-MEDIATED AES,PEMBROLIZUMAB
KN564,KN564-0677,FATIGUE,216,230,2,2,1,POSSIBLY RELATED,NONE,GENERAL,RESOLVED,Y,,PEMBROLIZUMAB
KN564,KN564-0677,FATIGUE,232,251,2,2,0,RELATED,DISCONTINUED,GENERAL,RESOLVED,Y,,PEMBROLIZUMAB
KN564,KN564-0678,NAUSEA,237,253,1,1,0,POSSIBLY RELATED,NONE,GENERAL,RESOLVED,Y,,PLACEBO
KN564,KN564-0679,RASH,257,297,2,2,0,POSSIBLY RELATED,NONE,SKIN,RESOLVED,Y,,PLACEBO
KN564,KN564-0679,FATIGUE,261,288,2,2,0,POSSIBLY RELATED,NONE,GENERAL,RESOLVED,Y,,PLACEBO
KN564,KN564-0680,NAUSEA,137,172,2,2,0,RELATED,NONE,GENERAL,RESOLVED,Y,,PEMBROLIZUMAB
KN564,KN564-0680,HYPERTHYROIDISM,217,241,2,2,0,RELATED,NONE,THYROID,RESOLVED,Y,IMMUNE-MEDIATED AES,PEMBROLIZUMAB
KN564,KN564-0680,HYPOTHYROIDISM,296,335,1,1,0,RELATED,NONE,THYROID,ONGOING,Y,IMMUNE-MEDIATED AES,PEMBROLIZUMAB
KN564,KN564-0682,PRURITUS,1,23,2,2,0,POSSIBLY RELATED,NONE,SKIN,RESOLVED,Y,,PLACEBO
KN564,KN564-0682,PRURITUS,118,156,1,1,0,POSSIBLY RELATED,NONE,SKIN,RESOLVED,Y,,PLACEBO
KN564,KN564-0682,HYPOTHYROIDISM,279,293,1,1,0,POSSIBLY RELATED,NONE,THYROID,ONGOING,Y,IMMUNE-MEDIATED AES,PLACEBO
KN564,KN564-0683,ARTHRALGIA,70,109,1,1,0,NOT RELATED,NONE,GENERAL,RESOLVED,Y,,PLACEBO
KN564,KN564-0683,NAUSEA,196,208,1,1,0,NOT RELATED,NONE,GENERAL,RESOLVED,Y,,PLACEBO
KN564,KN564-0684,ARTHRALGIA,149,175,2,2,0,POSSIBLY RELATED,NONE,GENERAL,RESOLVED,Y,,PLACEBO
KN564,KN564-0686,HYPERTHYROIDISM,298,327,2,2,0,RELATED,NONE,THYROID,RESOLVED,Y,IMMUNE-MEDIATED AES,PEMBROLIZUMAB
KN564,KN564-0687,HYPERTHYROIDISM,301,340,2,2,0,RELATED,NONE,THYROID,RESOLVED,Y,IMMUNE-MEDIATED AES,PEMBROLIZUMAB
KN564,KN564-0688,FATIGUE,3,36,3,3,0,NOT RELATED,DOSE_HELD,GENERAL,RESOLVED,Y,,PEMBROLIZUMAB
KN564,KN564-0688,RASH,35,58,3,3,0,RELATED,DOSE_HELD,SKIN,RESOLVED,Y,,PEMBROLIZUMAB
KN564,KN564-0688,FATIGUE,27,43,1,1,0,NOT RELATED,NONE,GENERAL,RESOLVED,Y,,PEMBROLIZUMAB
KN564,KN564-0688,FATIGUE,179,211,2,2,0,POSSIBLY RELATED,NONE,GENERAL,RESOLVED,Y,,PEMBROLIZUMAB
KN564,KN564-0690,DIARRHEA,176,195,1,1,0,RELATED,NONE,IMMUNE_MEDIATED,RESOLVED,Y,IMMUNE-MEDIATED AES,PEMBROLIZUMAB
KN564,KN564-0690,ARTHRALGIA,338,371,2,2,1,POSSIBLY RELATED,NONE,GENERAL,RESOLVED,Y,,PEMBROLIZUMAB
KN564,KN564-0691,NAUSEA,24,60,1,1,0,POSSIBLY RELATED,NONE,GENERAL,RESOLVED,Y,,PEMBROLIZUMAB
KN564,KN564-0691,NAUSEA,53,70,1,1,0,NOT RELATED,NONE,GENERAL,RESOLVED,Y,,PEMBROLIZUMAB
KN564,KN564-0691,FATIGUE,75,104,1,1,0,POSSIBLY RELATED,DISCONTINUED,GENERAL,RESOLVED,Y,,PEMBROLIZUMAB
KN564,KN564-0691,FATIGUE,96,106,1,1,0,NOT RELATED,NONE,GENERAL,RESOLVED,Y,,PEMBROLIZUMAB
KN564,KN564-0693,FATIGUE,193,226,1,1,0,NOT RELATED,NONE,GENERAL,RESOLVED,Y,,PLACEBO
KN564,KN564-0694,NAUSEA,9,42,3,3,0,POSSIBLY RELATED,DOSE_HELD,GENERAL,RESOLVED,Y,,PEMBROLIZUMAB
KN564,KN564-0694,FATIGUE,171,189,2,2,1,RELATED,NONE,GENERAL,RESOLVED,Y,,PEMBROLIZUMAB
KN564,KN564-0694,ARTHRALGIA,219,235,3,3,0,POSSIBLY RELATED,DOSE_HELD,GENERAL,RESOLVED,Y,,PEMBROLIZUMAB
KN564,KN564-0694,NAUSEA,304,333,2,2,0,NOT RELATED,NONE,GENERAL,RESOLVED,Y,,PEMBROLIZUMAB
KN564,KN564-0694,FATIGUE,343,352,3,3,1,POSSIBLY RELATED,DOSE_HELD,GENERAL,RESOLVED,Y,,PEMBROLIZUMAB
KN564,KN564-0694,ARTHRALGIA,337,350,1,1,0,POSSIBLY RELATED,NONE,GENERAL,RESOLVED,Y,,PEMBROLIZUMAB
KN564,KN564-0695,NAUSEA,211,220,1,1,0,NOT RELATED,NONE,GENERAL,RESOLVED,Y,,PLACEBO
KN564,KN564-0698,HYPERTHYROIDISM,28,51,1,1,0,RELATED,NONE,THYROID,RESOLVED,Y,IMMUNE-MEDIATED AES,PEMBROLIZUMAB
KN564,KN564-0698,HYPOTHYROIDISM,211,239,1,1,0,RELATED,DISCONTINUED,THYROID,ONGOING,Y,IMMUNE-MEDIATED AES,PEMBROLIZUMAB
KN564,KN564-0698,PRURITUS,221,228,1,1,0,RELATED,NONE,SKIN,RESOLVED,Y,,PEMBROLIZUMAB
KN564,KN564-0701,PRURITUS,73,88,2,2,0,POSSIBLY RELATED,NONE,SKIN,RESOLVED,Y,,PLACEBO
KN564,KN564-0703,RASH,14,51,4,4,1,POSSIBLY RELATED,DISCONTINUED,SKIN,RESOLVED,Y,,PEMBROLIZUMAB
KN564,KN564-0703,FATIGUE,10,17,3,3,0,POSSIBLY RELATED,DOSE_HELD,GENERAL,RESOLVED,Y,,PEMBROLIZUMAB
KN564,KN564-0703,RASH,23,43,1,1,0,RELATED,NONE,SKIN,RESOLVED,Y,,PEMBROLIZUMAB
KN564,KN564-0703,FATIGUE,119,132,3,3,0,RELATED,DOSE_HELD,GENERAL,RESOLVED,Y,,PEMBROLIZUMAB
KN564,KN564-0705,HYPERTHYROIDISM,232,241,2,2,0,RELATED,NONE,THYROID,RESOLVED,Y,IMMUNE-MEDIATED AES,PEMBROLIZUMAB
KN564,KN564-0705,ARTHRALGIA,264,274,2,2,0,NOT RELATED,NONE,GENERAL,RESOLVED,Y,,PEMBROLIZUMAB
KN564,KN564-0705,HYPOTHYROIDISM,323,337,1,1,0,RELATED,NONE,THYROID,ONGOING,Y,IMMUNE-MEDIATED AES,PEMBROLIZUMAB
KN564,KN564-0706,PRURITUS,218,258,1,1,0,NOT RELATED,NONE,SKIN,RESOLVED,Y,,PLACEBO
KN564,KN564-0707,RASH,94,136,2,2,0,RELATED,DISCONTINUED,SKIN,RESOLVED,Y,,PEMBROLIZUMAB
KN564,KN564-0707,HYPOTHYROIDISM,278,292,1,1,0,RELATED,NONE,THYROID,ONGOING,Y,IMMUNE-MEDIATED AES,PEMBROLIZUMAB
KN564,KN564-0708,HYPERTHYROIDISM,29,60,1,1,0,RELATED,NONE,THYROID,RESOLVED,Y,IMMUNE-MEDIATED AES,PEMBROLIZUMAB
KN564,KN564-0708,HYPOTHYROIDISM,65,72,1,1,0,RELATED,NONE,THYROID,ONGOING,Y,IMMUNE-MEDIATED AES,PEMBROLIZUMAB
KN564,KN564-0712,FATIGUE,236,255,2,2,0,POSSIBLY RELATED,NONE,GENERAL,RESOLVED,Y,,PLACEBO
KN564,KN564-0712,ARTHRALGIA,296,318,1,1,0,NOT RELATED,NONE,GENERAL,RESOLVED,Y,,PLACEBO
KN564,KN564-0712,FATIGUE,348,375,1,1,0,RELATED,NONE,GENERAL,RESOLVED,Y,,PLACEBO
KN564,KN564-0713,DIARRHEA,136,172,3,3,1,RELATED,DOSE_HELD,IMMUNE_MEDIATED,RESOLVED,Y,IMMUNE-MEDIATED AES,PEMBROLIZUMAB
KN564,KN564-0714,NAUSEA,275,283,1,1,0,NOT RELATED,NONE,GENERAL,RESOLVED,Y,,PLACEBO
KN564,KN564-0715,DIARRHEA,24,64,1,1,0,NOT RELATED,NONE,IMMUNE_MEDIATED,RESOLVED,Y,IMMUNE-MEDIATED AES,PLACEBO
KN564,KN564-0715,NAUSEA,264,289,2,2,0,RELATED,NONE,GENERAL,RESOLVED,Y,,PLACEBO
KN564,KN564-0716,HYPERTHYROIDISM,300,330,1,1,0,RELATED,NONE,THYROID,RESOLVED,Y,IMMUNE-MEDIATED AES,PEMBROLIZUMAB
KN564,KN564-0719,RASH,135,175,1,1,0,RELATED,NONE,SKIN,RESOLVED,Y,,PEMBROLIZUMAB
KN564,KN564-0720,HYPOTHYROIDISM,27,48,2,2,0,RELATED,DISCONTINUED,THYROID,ONGOING,Y,IMMUNE-MEDIATED AES,PEMBROLIZUMAB
KN564,KN564-0720,FATIGUE,129,138,1,1,0,POSSIBLY RELATED,NONE,GENERAL,RESOLVED,Y,,PEMBROLIZUMAB
KN564,KN564-0720,FATIGUE,300,324,2,2,0,POSSIBLY RELATED,NONE,GENERAL,RESOLVED,Y,,PEMBROLIZUMAB
KN564,KN564-0722,RASH,70,87,4,4,0,RELATED,DISCONTINUED,SKIN,RESOLVED,Y,,PEMBROLIZUMAB
KN564,KN564-0723,PRURITUS,78,105,1,1,0,RELATED,NONE,SKIN,RESOLVED,Y,,PEMBROLIZUMAB
KN564,KN564-0728,NAUSEA,35,53,1,1,0,POSSIBLY RELATED,NONE,GENERAL,RESOLVED,Y,,PEMBROLIZUMAB
KN564,KN564-0728,ARTHRALGIA,337,344,2,2,0,POSSIBLY RELATED,NONE,GENERAL,RESOLVED,Y,,PEMBROLIZUMAB
KN564,KN564-0731,RASH,325,362,1,1,0,NOT RELATED,NONE,SKIN,RESOLVED,Y,,PLACEBO
KN564,KN564-0732,FATIGUE,128,152,2,2,0,NOT RELATED,NONE,GENERAL,RESOLVED,Y,,PLACEBO
KN564,KN564-0732,FATIGUE,159,190,2,2,0,NOT RELATED,NONE,GENERAL,RESOLVED,Y,,PLACEBO
KN564,KN564-0732,ARTHRALGIA,324,331,1,1,0,NOT RELATED,NONE,GENERAL,RESOLVED,Y,,PLACEBO
KN564,KN564-0734,ARTHRALGIA,191,223,1,1,0,NOT RELATED,NONE,GENERAL,RESOLVED,Y,,PEMBROLIZUMAB
KN564,KN564-0734,NAUSEA,222,237,2,2,0,RELATED,NONE,GENERAL,RESOLVED,Y,,PEMBROLIZUMAB
KN564,KN564-0735,HYPOTHYROIDISM,65,103,1,1,0,POSSIBLY RELATED,NONE,THYROID,ONGOING,Y,IMMUNE-MEDIATED AES,PLACEBO
KN564,KN564-0738,ARTHRALGIA,70,98,1,1,0,POSSIBLY RELATED,NONE,GENERAL,RESOLVED,Y,,PEMBROLIZUMAB
KN564,KN564-0738,ARTHRALGIA,203,239,2,2,0,NOT RELATED,NONE,GENERAL,RESOLVED,Y,,PEMBROLIZUMAB
KN564,KN564-0738,HYPOTHYROIDISM,218,252,1,1,0,RELATED,NONE,THYROID,ONGOING,Y,IMMUNE-MEDIATED AES,PEMBROLIZUMAB
KN564,KN564-0738,FATIGUE,256,273,1,1,0,POSSIBLY RELATED,NONE,GENERAL,RESOLVED,Y,,PEMBROLIZUMAB
KN564,KN564-0739,FATIGUE,68,99,3,3,0,NOT RELATED,DOSE_HELD,GENERAL,RESOLVED,Y,,PLACEBO
KN564,KN564-0743,RASH,219,231,2,2,0,POSSIBLY RELATED,NONE,SKIN,RESOLVED,Y,,PEMBROLIZUMAB
KN564,KN564-0743,PRURITUS,303,317,2,2,0,RELATED,NONE,SKIN,RESOLVED,Y,,PEMBROLIZUMAB
KN564,KN564-0743,RASH,346,369,1,1,0,RELATED,NONE,SKIN,RESOLVED,Y,,PEMBROLIZUMAB
KN564,KN564-0745,HYPERTHYROIDISM,171,204,1,1,0,RELATED,NONE,THYROID,RESOLVED,Y,IMMUNE-MEDIATED AES,PEMBROLIZUMAB
KN564,KN564-0745,HYPOTHYROIDISM,211,243,1,1,0,RELATED,DISCONTINUED,THYROID,ONGOING,Y,IMMUNE-MEDIATED AES,PEMBROLIZUMAB
KN564,KN564-0746,DIARRHEA,155,190,2,2,0,POSSIBLY RELATED,NONE,IMMUNE_MEDIATED,RESOLVED,Y,IMMUNE-MEDIATED AES,PLACEBO
KN564,KN564-0747,FATIGUE,10,28,1,1,0,POSSIBLY RELATED,NONE,GENERAL,RESOLVED,Y,,PLACEBO
KN564,KN564-0747,FATIGUE,131,145,3,3,1,NOT RELATED,DOSE_HELD,GENERAL,RESOLVED,Y,,PLACEBO
KN564,KN564-0748,NAUSEA,7,19,1,1,0,POSSIBLY RELATED,NONE,GENERAL,RESOLVED,Y,,PEMBROLIZUMAB
KN564,KN564-0748,PRURITUS,212,236,1,1,0,POSSIBLY RELATED,NONE,SKIN,RESOLVED,Y,,PEMBROLIZUMAB
KN564,KN564-0748,DIARRHEA,211,227,2,2,0,RELATED,NONE,IMMUNE_MEDIATED,RESOLVED,Y,IMMUNE-MEDIATED AES,PEMBROLIZUMAB
KN564,KN564-0749,FATIGUE,349,360,2,2,0,NOT RELATED,NONE,GENERAL,RESOLVED,Y,,PLACEBO
KN564,KN564-0753,ARTHRALGIA,138,161,1,1,0,NOT RELATED,NONE,GENERAL,RESOLVED,Y,,PLACEBO
KN564,KN564-0754,FATIGUE,72,91,2,2,0,POSSIBLY RELATED,NONE,GENERAL,RESOLVED,Y,,PEMBROLIZUMAB
KN564,KN564-0755,FATIGUE,190,200,2,2,0,NOT RELATED,NONE,GENERAL,RESOLVED,Y,,PEMBROLIZUMAB
KN564,KN564-0755,NAUSEA,243,276,1,1,0,POSSIBLY RELATED,NONE,GENERAL,RESOLVED,Y,,PEMBROLIZUMAB
KN564,KN564-0755,FATIGUE,325,365,1,1,0,POSSIBLY RELATED,NONE,GENERAL,RESOLVED,Y,,PEMBROLIZUMAB
KN564,KN564-0755,ARTHRALGIA,318,358,2,2,0,RELATED,NONE,GENERAL,RESOLVED,Y,,PEMBROLIZUMAB
KN564,KN564-0757,ARTHRALGIA,23,48,1,1,0,NOT RELATED,NONE,GENERAL,RESOLVED,Y,,PLACEBO
KN564,KN564-0757,FATIGUE,56,69,2,2,0,RELATED,NONE,GENERAL,RESOLVED,Y,,PLACEBO
KN564,KN564-0757,FATIGUE,96,133,2,2,0,NOT RELATED,NONE,GENERAL,RESOLVED,Y,,PLACEBO
KN564,KN564-0757,FATIGUE,153,172,2,2,0,POSSIBLY RELATED,NONE,GENERAL,RESOLVED,Y,,PLACEBO
KN564,KN564-0757,HYPOTHYROIDISM,197,237,1,1,0,POSSIBLY RELATED,NONE,THYROID,ONGOING,Y,IMMUNE-MEDIATED AES,PLACEBO
KN564,KN564-0758,FATIGUE,255,286,1,1,0,POSSIBLY RELATED,NONE,GENERAL,RESOLVED,Y,,PEMBROLIZUMAB
KN564,KN564-0759,HYPERTHYROIDISM,106,131,1,1,0,RELATED,NONE,THYROID,RESOLVED,Y,IMMUNE-MEDIATED AES,PEMBROLIZUMAB
KN564,KN564-0759,HYPOTHYROIDISM,173,192,1,1,0,RELATED,NONE,THYROID,ONGOING,Y,IMMUNE-MEDIATED AES,PEMBROLIZUMAB
KN564,KN564-0760,FATIGUE,27,43,3,3,0,RELATED,DOSE_HELD,GENERAL,RESOLVED,Y,,PLACEBO
KN564,KN564-0762,NAUSEA,141,180,2,2,0,RELATED,NONE,GENERAL,RESOLVED,Y,,PLACEBO
KN564,KN564-0762,ARTHRALGIA,257,293,1,1,0,NOT RELATED,NONE,GENERAL,RESOLVED,Y,,PLACEBO
KN564,KN564-0763,FATIGUE,4,23,2,2,0,NOT RELATED,NONE,GENERAL,RESOLVED,Y,,PEMBROLIZUMAB
KN564,KN564-0763,FATIGUE,157,182,2,2,0,POSSIBLY RELATED,DISCONTINUED,GENERAL,RESOLVED,Y,,PEMBROLIZUMAB
KN564,KN564-0763,ARTHRALGIA,282,305,1,1,0,POSSIBLY RELATED,NONE,GENERAL,RESOLVED,Y,,PEMBROLIZUMAB
KN564,KN564-0764,HYPERTHYROIDISM,217,246,1,1,0,RELATED,NONE,THYROID,RESOLVED,Y,IMMUNE-MEDIATED AES,PEMBROLIZUMAB
KN564,KN564-0764,HYPOTHYROIDISM,239,262,2,2,0,RELATED,NONE,THYROID,ONGOING,Y,IMMUNE-MEDIATED AES,PEMBROLIZUMAB
KN564,KN564-0765,RASH,69,98,2,2,0,RELATED,DISCONTINUED,SKIN,RESOLVED,Y,,PEMBROLIZUMAB
KN564,KN564-0765,FATIGUE,243,251,1,1,0,RELATED,NONE,GENERAL,RESOLVED,Y,,PEMBROLIZUMAB
KN564,KN564-0767,RASH,283,320,1,1,0,POSSIBLY RELATED,NONE,SKIN,RESOLVED,Y,,PLACEBO
KN564,KN564-0768,FATIGUE,49,67,2,2,0,RELATED,NONE,GENERAL,RESOLVED,Y,,PEMBROLIZUMAB
KN564,KN564-0768,ARTHRALGIA,149,181,2,2,0,POSSIBLY RELATED,NONE,GENERAL,RESOLVED,Y,,PEMBROLIZUMAB
KN564,KN564-0768,DIARRHEA,234,243,1,1,0,RELATED,NONE,IMMUNE_MEDIATED,RESOLVED,Y,IMMUNE-MEDIATED AES,PEMBROLIZUMAB
KN564,KN564-0772,FATIGUE,257,268,2,2,0,NOT RELATED,NONE,GENERAL,RESOLVED,Y,,PEMBROLIZUMAB
KN564,KN564-0773,FATIGUE,13,30,1,1,0,RELATED,NONE,GENERAL,RESOLVED,Y,,PEMBROLIZUMAB
KN564,KN564-0773,FATIGUE,133,160,1,1,0,POSSIBLY RELATED,NONE,GENERAL,RESOLVED,Y,,PEMBROLIZUMAB
KN564,KN564-0773,FATIGUE,211,229,1,1,0,RELATED,NONE,GENERAL,RESOLVED,Y,,PEMBROLIZUMAB
KN564,KN564-0773,FATIGUE,263,290,3,3,1,RELATED,DISCONTINUED,GENERAL,RESOLVED,Y,,PEMBROLIZUMAB
KN564,KN564-0773,ARTHRALGIA,274,303,1,1,0,NOT RELATED,NONE,GENERAL,RESOLVED,Y,,PEMBROLIZUMAB
KN564,KN564-0773,FATIGUE,328,351,2,2,0,POSSIBLY RELATED,NONE,GENERAL,RESOLVED,Y,,PEMBROLIZUMAB
KN564,KN564-0774,HYPERTHYROIDISM,322,330,1,1,0,POSSIBLY RELATED,NONE,THYROID,RESOLVED,Y,IMMUNE-MEDIATED AES,PLACEBO
KN564,KN564-0779,HYPOTHYROIDISM,2,41,2,2,0,POSSIBLY RELATED,NONE,THYROID,ONGOING,Y,IMMUNE-MEDIATED AES,PLACEBO
KN564,KN564-0779,NAUSEA,15,28,2,2,0,RELATED,NONE,GENERAL,RESOLVED,Y,,PLACEBO
KN564,KN564-0779,NAUSEA,140,180,2,2,0,POSSIBLY RELATED,NONE,GENERAL,RESOLVED,Y,,PLACEBO
KN564,KN564-0779,DIARRHEA,157,183,2,2,0,POSSIBLY RELATED,NONE,IMMUNE_MEDIATED,RESOLVED,Y,IMMUNE-MEDIATED AES,PLACEBO
KN564,KN564-0779,NAUSEA,161,190,2,2,0,POSSIBLY RELATED,NONE,GENERAL,RESOLVED,Y,,PLACEBO
KN564,KN564-0779,NAUSEA,222,261,2,2,0,POSSIBLY RELATED,NONE,GENERAL,RESOLVED,Y,,PLACEBO
KN564,KN564-0779,NAUSEA,257,274,2,2,0,RELATED,NONE,GENERAL,RESOLVED,Y,,PLACEBO
KN564,KN564-0779,NAUSEA,303,332,2,2,0,NOT RELATED,NONE,GENERAL,RESOLVED,Y,,PLACEBO
KN564,KN564-0780,FATIGUE,13,35,2,2,0,RELATED,NONE,GENERAL,RESOLVED,Y,,PEMBROLIZUMAB
KN564,KN564-0780,FATIGUE,26,43,2,2,1,POSSIBLY RELATED,NONE,GENERAL,RESOLVED,Y,,PEMBROLIZUMAB
KN564,KN564-0780,FATIGUE,52,61,2,2,0,POSSIBLY RELATED,NONE,GENERAL,RESOLVED,Y,,PEMBROLIZUMAB
KN564,KN564-0780,FATIGUE,76,105,2,2,0,POSSIBLY RELATED,NONE,GENERAL,RESOLVED,Y,,PEMBROLIZUMAB
KN564,KN564-0780,FATIGUE,132,153,2,2,0,NOT RELATED,NONE,GENERAL,RESOLVED,Y,,PEMBROLIZUMAB
KN564,KN564-0780,ARTHRALGIA,178,213,1,1,0,POSSIBLY RELATED,NONE,GENERAL,RESOLVED,Y,,PEMBROLIZUMAB
KN564,KN564-0780,ARTHRALGIA,220,245,1,1,0,POSSIBLY RELATED,NONE,GENERAL,RESOLVED,Y,,PEMBROLIZUMAB
KN564,KN564-0780,ARTHRALGIA,237,274,1,1,0,POSSIBLY RELATED,NONE,GENERAL,RESOLVED,Y,,PEMBROLIZUMAB
KN564,KN564-0780,RASH,267,294,2,2,0,POSSIBLY RELATED,NONE,SKIN,RESOLVED,Y,,PEMBROLIZUMAB
KN564,KN564-0780,FATIGUE,264,272,1,1,0,RELATED,NONE,GENERAL,RESOLVED,Y,,PEMBROLIZUMAB
KN564,KN564-0780,FATIGUE,288,329,1,1,0,POSSIBLY RELATED,NONE,GENERAL,RESOLVED,Y,,PEMBROLIZUMAB
KN564,KN564-0780,FATIGUE,318,340,3,3,0,POSSIBLY RELATED,DOSE_HELD,GENERAL,RESOLVED,Y,,PEMBROLIZUMAB
KN564,KN564-0780,FATIGUE,346,372,1,1,0,POSSIBLY RELATED,NONE,GENERAL,RESOLVED,Y,,PEMBROLIZUMAB
KN564,KN564-0780,ARTHRALGIA,345,383,1,1,0,POSSIBLY RELATED,NONE,GENERAL,RESOLVED,Y,,PEMBROLIZUMAB
KN564,KN564-0781,FATIGUE,246,287,3,3,0,NOT RELATED,DOSE_HELD,GENERAL,RESOLVED,Y,,PLACEBO
KN564,KN564-0782,RASH,50,65,2,2,0,POSSIBLY RELATED,NONE,SKIN,RESOLVED,Y,,PLACEBO
KN564,KN564-0782,FATIGUE,49,87,3,3,0,NOT RELATED,DISCONTINUED,GENERAL,RESOLVED,Y,,PLACEBO
KN564,KN564-0782,RASH,180,211,3,3,1,NOT RELATED,DOSE_HELD,SKIN,RESOLVED,Y,,PLACEBO
KN564,KN564-0783,FATIGUE,11,40,2,2,0,POSSIBLY RELATED,NONE,GENERAL,RESOLVED,Y,,PLACEBO
KN564,KN564-0783,FATIGUE,181,217,1,1,0,NOT RELATED,NONE,GENERAL,RESOLVED,Y,,PLACEBO
KN564,KN564-0784,FATIGUE,149,189,1,1,0,POSSIBLY RELATED,NONE,GENERAL,RESOLVED,Y,,PEMBROLIZUMAB
KN564,KN564-0784,FATIGUE,192,211,2,2,0,RELATED,NONE,GENERAL,RESOLVED,Y,,PEMBROLIZUMAB
KN564,KN564-0785,PRURITUS,23,32,1,1,0,POSSIBLY RELATED,NONE,SKIN,RESOLVED,Y,,PEMBROLIZUMAB
KN564,KN564-0786,FATIGUE,4,22,2,2,0,POSSIBLY RELATED,DISCONTINUED,GENERAL,RESOLVED,Y,,PEMBROLIZUMAB
KN564,KN564-0786,ARTHRALGIA,14,27,1,1,0,RELATED,NONE,GENERAL,RESOLVED,Y,,PEMBROLIZUMAB
KN564,KN564-0786,FATIGUE,31,67,2,2,0,NOT RELATED,NONE,GENERAL,RESOLVED,Y,,PEMBROLIZUMAB
KN564,KN564-0787,HYPOTHYROIDISM,23,53,1,1,0,RELATED,NONE,THYROID,ONGOING,Y,IMMUNE-MEDIATED AES,PEMBROLIZUMAB
KN564,KN564-0787,PRURITUS,177,204,1,1,0,RELATED,NONE,SKIN,RESOLVED,Y,,PEMBROLIZUMAB
KN564,KN564-0788,FATIGUE,76,115,2,2,0,POSSIBLY RELATED,NONE,GENERAL,RESOLVED,Y,,PEMBROLIZUMAB
KN564,KN564-0788,FATIGUE,154,177,2,2,0,RELATED,NONE,GENERAL,RESOLVED,Y,,PEMBROLIZUMAB
KN564,KN564-0790,FATIGUE,52,62,1,1,0,POSSIBLY RELATED,NONE,GENERAL,RESOLVED,Y,,PLACEBO
KN564,KN564-0790,FATIGUE,69,79,2,2,0,NOT RELATED,NONE,GENERAL,RESOLVED,Y,,PLACEBO
KN564,KN564-0790,FATIGUE,301,338,2,2,0,POSSIBLY RELATED,NONE,GENERAL,RESOLVED,Y,,PLACEBO
KN564,KN564-0793,DIARRHEA,204,212,1,1,0,POSSIBLY RELATED,NONE,IMMUNE_MEDIATED,RESOLVED,Y,IMMUNE-MEDIATED AES,PLACEBO
KN564,KN564-0795,FATIGUE,72,111,2,2,0,RELATED,NONE,GENERAL,RESOLVED,Y,,PLACEBO
KN564,KN564-0796,FATIGUE,181,207,2,2,0,NOT RELATED,NONE,GENERAL,RESOLVED,Y,,PLACEBO
KN564,KN564-0797,FATIGUE,24,41,2,2,0,NOT RELATED,NONE,GENERAL,RESOLVED,Y,,PEMBROLIZUMAB
KN564,KN564-0797,FATIGUE,171,208,2,2,0,POSSIBLY RELATED,NONE,GENERAL,RESOLVED,Y,,PEMBROLIZUMAB
KN564,KN564-0799,HYPERTHYROIDISM,236,250,1,1,0,RELATED,DISCONTINUED,THYROID,RESOLVED,Y,IMMUNE-MEDIATED AES,PEMBROLIZUMAB
KN564,KN564-0799,HYPOTHYROIDISM,296,335,1,1,0,RELATED,NONE,THYROID,ONGOING,Y,IMMUNE-MEDIATED AES,PEMBROLIZUMAB
KN564,KN564-0802,RASH,137,167,1,1,0,RELATED,NONE,SKIN,RESOLVED,Y,,PEMBROLIZUMAB
KN564,KN564-0805,HYPOTHYROIDISM,233,259,1,1,0,RELATED,NONE,THYROID,ONGOING,Y,IMMUNE-MEDIATED AES,PEMBROLIZUMAB
KN564,KN564-0805,FATIGUE,280,298,2,2,0,POSSIBLY RELATED,NONE,GENERAL,RESOLVED,Y,,PEMBROLIZUMAB
KN564,KN564-0806,PRURITUS,174,193,1,1,0,RELATED,NONE,SKIN,RESOLVED,Y,,PEMBROLIZUMAB
KN564,KN564-0808,FATIGUE,223,232,3,3,1,RELATED,DOSE_HELD,GENERAL,RESOLVED,Y,,PEMBROLIZUMAB
KN564,KN564-0808,FATIGUE,234,248,3,3,0,POSSIBLY RELATED,DOSE_HELD,GENERAL,RESOLVED,Y,,PEMBROLIZUMAB
KN564,KN564-0808,HYPOTHYROIDISM,299,335,1,1,0,RELATED,NONE,THYROID,ONGOING,Y,IMMUNE-MEDIATED AES,PEMBROLIZUMAB
KN564,KN564-0809,DIARRHEA,261,271,1,1,0,NOT RELATED,NONE,IMMUNE_MEDIATED,RESOLVED,Y,IMMUNE-MEDIATED AES,PLACEBO
KN564,KN564-0810,PRURITUS,150,184,1,1,0,RELATED,NONE,SKIN,RESOLVED,Y,,PEMBROLIZUMAB
KN564,KN564-0810,HYPOTHYROIDISM,190,206,1,1,0,RELATED,NONE,THYROID,ONGOING,Y,IMMUNE-MEDIATED AES,PEMBROLIZUMAB
KN564,KN564-0810,PRURITUS,308,323,3,3,1,RELATED,DOSE_HELD,SKIN,RESOLVED,Y,,PEMBROLIZUMAB
KN564,KN564-0811,HYPOTHYROIDISM,29,69,1,1,0,RELATED,NONE,THYROID,ONGOING,Y,IMMUNE-MEDIATED AES,PEMBROLIZUMAB
KN564,KN564-0811,PRURITUS,286,301,2,2,0,RELATED,NONE,SKIN,RESOLVED,Y,,PEMBROLIZUMAB
KN564,KN564-0812,RASH,29,49,2,2,0,POSSIBLY RELATED,NONE,SKIN,RESOLVED,Y,,PLACEBO
KN564,KN564-0812,FATIGUE,65,107,3,3,0,NOT RELATED,DOSE_HELD,GENERAL,RESOLVED,Y,,PLACEBO
KN564,KN564-0813,NAUSEA,111,151,2,2,0,POSSIBLY RELATED,NONE,GENERAL,RESOLVED,Y,,PLACEBO
KN564,KN564-0813,NAUSEA,216,233,1,1,0,NOT RELATED,NONE,GENERAL,RESOLVED,Y,,PLACEBO
KN564,KN564-0813,DIARRHEA,233,270,1,1,0,POSSIBLY RELATED,NONE,IMMUNE_MEDIATED,RESOLVED,Y,IMMUNE-MEDIATED AES,PLACEBO
KN564,KN564-0814,RASH,112,145,2,2,0,POSSIBLY RELATED,NONE,SKIN,RESOLVED,Y,,PLACEBO
KN564,KN564-0814,DIARRHEA,221,243,2,2,0,NOT RELATED,NONE,IMMUNE_MEDIATED,RESOLVED,Y,IMMUNE-MEDIATED AES,PLACEBO
KN564,KN564-0814,RASH,242,265,1,1,0,POSSIBLY RELATED,NONE,SKIN,RESOLVED,Y,,PLACEBO
KN564,KN564-0814,DIARRHEA,316,348,1,1,0,POSSIBLY RELATED,NONE,IMMUNE_MEDIATED,RESOLVED,Y,IMMUNE-MEDIATED AES,PLACEBO
KN564,KN564-0815,FATIGUE,106,141,1,1,0,NOT RELATED,NONE,GENERAL,RESOLVED,Y,,PEMBROLIZUMAB
KN564,KN564-0815,ARTHRALGIA,253,289,2,2,0,POSSIBLY RELATED,NONE,GENERAL,RESOLVED,Y,,PEMBROLIZUMAB
KN564,KN564-0815,PRURITUS,306,329,1,1,0,RELATED,NONE,SKIN,RESOLVED,Y,,PEMBROLIZUMAB
KN564,KN564-0815,FATIGUE,342,373,1,1,0,NOT RELATED,NONE,GENERAL,RESOLVED,Y,,PEMBROLIZUMAB
KN564,KN564-0816,NAUSEA,76,116,1,1,1,RELATED,NONE,GENERAL,RESOLVED,Y,,PLACEBO
KN564,KN564-0820,RASH,173,185,1,1,0,POSSIBLY RELATED,NONE,SKIN,RESOLVED,Y,,PEMBROLIZUMAB
KN564,KN564-0822,NAUSEA,158,189,1,1,0,NOT RELATED,NONE,GENERAL,RESOLVED,Y,,PLACEBO
KN564,KN564-0823,PRURITUS,49,79,2,2,0,RELATED,NONE,SKIN,RESOLVED,Y,,PEMBROLIZUMAB
KN564,KN564-0823,PRURITUS,179,219,3,3,1,POSSIBLY RELATED,DISCONTINUED,SKIN,RESOLVED,Y,,PEMBROLIZUMAB
KN564,KN564-0823,RASH,180,217,2,2,0,RELATED,NONE,SKIN,RESOLVED,Y,,PEMBROLIZUMAB
KN564,KN564-0823,DIARRHEA,200,231,3,3,0,RELATED,DOSE_HELD,IMMUNE_MEDIATED,RESOLVED,Y,IMMUNE-MEDIATED AES,PEMBROLIZUMAB
KN564,KN564-0825,FATIGUE,261,300,1,1,0,POSSIBLY RELATED,NONE,GENERAL,RESOLVED,Y,,PEMBROLIZUMAB
KN564,KN564-0826,DIARRHEA,4,30,3,3,0,POSSIBLY RELATED,DISCONTINUED,IMMUNE_MEDIATED,RESOLVED,Y,IMMUNE-MEDIATED AES,PEMBROLIZUMAB
KN564,KN564-0826,ARTHRALGIA,70,90,1,1,0,RELATED,NONE,GENERAL,RESOLVED,Y,,PEMBROLIZUMAB
KN564,KN564-0826,FATIGUE,96,135,2,2,0,POSSIBLY RELATED,NONE,GENERAL,RESOLVED,Y,,PEMBROLIZUMAB
KN564,KN564-0826,FATIGUE,133,154,1,1,0,NOT RELATED,NONE,GENERAL,RESOLVED,Y,,PEMBROLIZUMAB
KN564,KN564-0826,HYPOTHYROIDISM,176,195,1,1,0,RELATED,NONE,THYROID,ONGOING,Y,IMMUNE-MEDIATED AES,PEMBROLIZUMAB
KN564,KN564-0826,FATIGUE,233,274,1,1,0,NOT RELATED,NONE,GENERAL,RESOLVED,Y,,PEMBROLIZUMAB
KN564,KN564-0827,HYPOTHYROIDISM,239,255,1,1,0,POSSIBLY RELATED,NONE,THYROID,ONGOING,Y,IMMUNE-MEDIATED AES,PLACEBO
KN564,KN564-0829,NAUSEA,35,56,1,1,0,RELATED,NONE,GENERAL,RESOLVED,Y,,PEMBROLIZUMAB
KN564,KN564-0829,FATIGUE,71,101,3,3,0,NOT RELATED,DOSE_HELD,GENERAL,RESOLVED,Y,,PEMBROLIZUMAB
KN564,KN564-0830,FATIGUE,52,81,2,2,0,RELATED,NONE,GENERAL,RESOLVED,Y,,PLACEBO
KN564,KN564-0830,NAUSEA,183,192,1,1,0,NOT RELATED,NONE,GENERAL,RESOLVED,Y,,PLACEBO
KN564,KN564-0830,FATIGUE,297,316,2,2,0,RELATED,NONE,GENERAL,RESOLVED,Y,,PLACEBO
KN564,KN564-0830,FATIGUE,345,382,1,1,0,NOT RELATED,NONE,GENERAL,RESOLVED,Y,,PLACEBO
KN564,KN564-0830,ARTHRALGIA,341,368,1,1,0,RELATED,NONE,GENERAL,RESOLVED,Y,,PLACEBO
KN564,KN564-0831,DIARRHEA,45,61,1,1,0,POSSIBLY RELATED,NONE,IMMUNE_MEDIATED,RESOLVED,Y,IMMUNE-MEDIATED AES,PLACEBO
KN564,KN564-0832,NAUSEA,99,138,2,2,0,POSSIBLY RELATED,NONE,GENERAL,RESOLVED,Y,,PLACEBO
KN564,KN564-0832,DIARRHEA,106,121,1,1,0,POSSIBLY RELATED,NONE,IMMUNE_MEDIATED,RESOLVED,Y,IMMUNE-MEDIATED AES,PLACEBO
KN564,KN564-0832,FATIGUE,341,370,1,1,0,POSSIBLY RELATED,NONE,GENERAL,RESOLVED,Y,,PLACEBO
KN564,KN564-0833,HYPOTHYROIDISM,194,229,1,1,0,RELATED,NONE,THYROID,ONGOING,Y,IMMUNE-MEDIATED AES,PEMBROLIZUMAB
KN564,KN564-0834,NAUSEA,55,76,2,2,0,POSSIBLY RELATED,NONE,GENERAL,RESOLVED,Y,,PEMBROLIZUMAB
KN564,KN564-0835,RASH,14,38,1,1,0,NOT RELATED,NONE,SKIN,RESOLVED,Y,,PLACEBO
KN564,KN564-0835,PRURITUS,47,81,1,1,0,POSSIBLY RELATED,NONE,SKIN,RESOLVED,Y,,PLACEBO
KN564,KN564-0835,PRURITUS,240,265,2,2,0,POSSIBLY RELATED,NONE,SKIN,RESOLVED,Y,,PLACEBO
KN564,KN564-0835,HYPOTHYROIDISM,316,356,1,1,0,POSSIBLY RELATED,NONE,THYROID,ONGOING,Y,IMMUNE-MEDIATED AES,PLACEBO
KN564,KN564-0836,ARTHRALGIA,33,69,2,2,0,POSSIBLY RELATED,NONE,GENERAL,RESOLVED,Y,,PEMBROLIZUMAB
KN564,KN564-0836,FATIGUE,119,129,2,2,0,POSSIBLY RELATED,NONE,GENERAL,RESOLVED,Y,,PEMBROLIZUMAB
KN564,KN564-0837,ARTHRALGIA,86,117,2,2,0,POSSIBLY RELATED,NONE,GENERAL,RESOLVED,Y,,PEMBROLIZUMAB
KN564,KN564-0837,FATIGUE,113,132,2,2,0,RELATED,NONE,GENERAL,RESOLVED,Y,,PEMBROLIZUMAB
KN564,KN564-0837,ARTHRALGIA,285,315,2,2,0,POSSIBLY RELATED,NONE,GENERAL,RESOLVED,Y,,PEMBROLIZUMAB
KN564,KN564-0838,HYPOTHYROIDISM,151,183,1,1,0,RELATED,NONE,THYROID,ONGOING,Y,IMMUNE-MEDIATED AES,PEMBROLIZUMAB
KN564,KN564-0838,DIARRHEA,203,220,1,1,0,RELATED,DISCONTINUED,IMMUNE_MEDIATED,RESOLVED,Y,IMMUNE-MEDIATED AES,PEMBROLIZUMAB
KN564,KN564-0838,DIARRHEA,277,294,2,2,0,RELATED,NONE,IMMUNE_MEDIATED,RESOLVED,Y,IMMUNE-MEDIATED AES,PEMBROLIZUMAB
KN564,KN564-0839,FATIGUE,183,208,1,1,0,NOT RELATED,DISCONTINUED,GENERAL,RESOLVED,Y,,PLACEBO
KN564,KN564-0839,ARTHRALGIA,243,266,2,2,0,POSSIBLY RELATED,NONE,GENERAL,RESOLVED,Y,,PLACEBO
KN564,KN564-0840,HYPERTHYROIDISM,257,297,1,1,0,RELATED,NONE,THYROID,RESOLVED,Y,IMMUNE-MEDIATED AES,PEMBROLIZUMAB
KN564,KN564-0840,HYPOTHYROIDISM,275,311,2,2,0,RELATED,NONE,THYROID,ONGOING,Y,IMMUNE-MEDIATED AES,PEMBROLIZUMAB
KN564,KN564-0841,DIARRHEA,94,118,2,2,0,NOT RELATED,NONE,IMMUNE_MEDIATED,RESOLVED,Y,IMMUNE-MEDIATED AES,PLACEBO
KN564,KN564-0841,FATIGUE,301,326,1,1,0,POSSIBLY RELATED,NONE,GENERAL,RESOLVED,Y,,PLACEBO
KN564,KN564-0842,ARTHRALGIA,49,61,2,2,0,NOT RELATED,NONE,GENERAL,RESOLVED,Y,,PLACEBO
KN564,KN564-0843,FATIGUE,22,61,3,3,1,NOT RELATED,DOSE_HELD,GENERAL,RESOLVED,Y,,PLACEBO
KN564,KN564-0844,FATIGUE,14,27,2,2,0,POSSIBLY RELATED,NONE,GENERAL,RESOLVED,Y,,PLACEBO
KN564,KN564-0845,NAUSEA,108,149,1,1,0,POSSIBLY RELATED,NONE,GENERAL,RESOLVED,Y,,PEMBROLIZUMAB
KN564,KN564-0845,NAUSEA,150,161,2,2,0,NOT RELATED,NONE,GENERAL,RESOLVED,Y,,PEMBROLIZUMAB
KN564,KN564-0845,FATIGUE,281,299,1,1,0,RELATED,NONE,GENERAL,RESOLVED,Y,,PEMBROLIZUMAB
KN564,KN564-0845,NAUSEA,302,341,1,1,0,POSSIBLY RELATED,NONE,GENERAL,RESOLVED,Y,,PEMBROLIZUMAB
KN564,KN564-0847,DIARRHEA,107,119,3,3,1,POSSIBLY RELATED,DOSE_HELD,IMMUNE_MEDIATED,RESOLVED,Y,IMMUNE-MEDIATED AES,PLACEBO
KN564,KN564-0848,PRURITUS,211,237,2,2,0,POSSIBLY RELATED,NONE,SKIN,RESOLVED,Y,,PLACEBO
KN564,KN564-0848,ARTHRALGIA,255,272,1,1,0,NOT RELATED,NONE,GENERAL,RESOLVED,Y,,PLACEBO
KN564,KN564-0849,DIARRHEA,156,175,3,3,1,RELATED,DOSE_HELD,IMMUNE_MEDIATED,RESOLVED,Y,IMMUNE-MEDIATED AES,PEMBROLIZUMAB
KN564,KN564-0851,NAUSEA,137,145,2,2,0,POSSIBLY RELATED,NONE,GENERAL,RESOLVED,Y,,PEMBROLIZUMAB
KN564,KN564-0853,PRURITUS,299,318,2,2,0,RELATED,NONE,SKIN,RESOLVED,Y,,PEMBROLIZUMAB
KN564,KN564-0854,PRURITUS,99,114,2,2,0,POSSIBLY RELATED,NONE,SKIN,RESOLVED,Y,,PEMBROLIZUMAB
KN564,KN564-0854,HYPOTHYROIDISM,234,268,1,1,0,RELATED,NONE,THYROID,ONGOING,Y,IMMUNE-MEDIATED AES,PEMBROLIZUMAB
KN564,KN564-0854,DIARRHEA,317,341,2,2,0,RELATED,NONE,IMMUNE_MEDIATED,RESOLVED,Y,IMMUNE-MEDIATED AES,PEMBROLIZUMAB
KN564,KN564-0855,PRURITUS,14,50,2,2,0,POSSIBLY RELATED,NONE,SKIN,RESOLVED,Y,,PLACEBO
KN564,KN564-0856,FATIGUE,77,98,3,3,0,RELATED,DOSE_HELD,GENERAL,RESOLVED,Y,,PEMBROLIZUMAB
KN564,KN564-0857,FATIGUE,32,43,3,3,1,POSSIBLY RELATED,DOSE_HELD,GENERAL,RESOLVED,Y,,PEMBROLIZUMAB
KN564,KN564-0857,FATIGUE,57,74,1,1,0,POSSIBLY RELATED,NONE,GENERAL,RESOLVED,Y,,PEMBROLIZUMAB
KN564,KN564-0857,FATIGUE,154,188,3,3,1,NOT RELATED,DISCONTINUED,GENERAL,RESOLVED,Y,,PEMBROLIZUMAB
KN564,KN564-0857,ARTHRALGIA,178,191,1,1,0,POSSIBLY RELATED,NONE,GENERAL,RESOLVED,Y,,PEMBROLIZUMAB
KN564,KN564-0857,FATIGUE,202,228,1,1,0,POSSIBLY RELATED,NONE,GENERAL,RESOLVED,Y,,PEMBROLIZUMAB
KN564,KN564-0857,FATIGUE,278,289,3,3,0,RELATED,DOSE_HELD,GENERAL,RESOLVED,Y,,PEMBROLIZUMAB
KN564,KN564-0858,HYPOTHYROIDISM,175,183,1,1,0,POSSIBLY RELATED,NONE,THYROID,ONGOING,Y,IMMUNE-MEDIATED AES,PLACEBO
KN564,KN564-0858,FATIGUE,259,298,2,2,0,POSSIBLY RELATED,NONE,GENERAL,RESOLVED,Y,,PLACEBO
KN564,KN564-0858,RASH,288,306,2,2,0,POSSIBLY RELATED,NONE,SKIN,RESOLVED,Y,,PLACEBO
KN564,KN564-0859,FATIGUE,9,33,2,2,0,POSSIBLY RELATED,NONE,GENERAL,RESOLVED,Y,,PLACEBO
KN564,KN564-0859,ARTHRALGIA,22,40,1,1,0,NOT RELATED,NONE,GENERAL,RESOLVED,Y,,PLACEBO
KN564,KN564-0859,FATIGUE,139,176,1,1,0,NOT RELATED,NONE,GENERAL,RESOLVED,Y,,PLACEBO
KN564,KN564-0859,ARTHRALGIA,171,206,2,2,0,RELATED,NONE,GENERAL,RESOLVED,Y,,PLACEBO
KN564,KN564-0859,NAUSEA,200,221,1,1,0,POSSIBLY RELATED,NONE,GENERAL,RESOLVED,Y,,PLACEBO
KN564,KN564-0859,FATIGUE,260,293,3,3,0,NOT RELATED,DOSE_HELD,GENERAL,RESOLVED,Y,,PLACEBO
KN564,KN564-0859,ARTHRALGIA,296,316,1,1,0,NOT RELATED,NONE,GENERAL,RESOLVED,Y,,PLACEBO
KN564,KN564-0862,FATIGUE,116,124,1,1,0,RELATED,NONE,GENERAL,RESOLVED,Y,,PEMBROLIZUMAB
KN564,KN564-0862,HYPERTHYROIDISM,316,353,2,2,0,RELATED,NONE,THYROID,RESOLVED,Y,IMMUNE-MEDIATED AES,PEMBROLIZUMAB
KN564,KN564-0862,HYPOTHYROIDISM,338,378,1,1,0,RELATED,NONE,THYROID,ONGOING,Y,IMMUNE-MEDIATED AES,PEMBROLIZUMAB
KN564,KN564-0863,NAUSEA,149,177,1,1,0,RELATED,NONE,GENERAL,RESOLVED,Y,,PEMBROLIZUMAB
KN564,KN564-0865,HYPOTHYROIDISM,153,191,1,1,0,RELATED,NONE,THYROID,ONGOING,Y,IMMUNE-MEDIATED AES,PEMBROLIZUMAB
KN564,KN564-0865,FATIGUE,161,174,2,2,0,NOT RELATED,NONE,GENERAL,RESOLVED,Y,,PEMBROLIZUMAB
KN564,KN564-0865,FATIGUE,283,315,1,1,0,RELATED,NONE,GENERAL,RESOLVED,Y,,PEMBROLIZUMAB
KN564,KN564-0867,DIARRHEA,5,29,3,3,0,RELATED,DOSE_HELD,IMMUNE_MEDIATED,RESOLVED,Y,IMMUNE-MEDIATED AES,PEMBROLIZUMAB
KN564,KN564-0867,HYPOTHYROIDISM,24,38,1,1,0,RELATED,NONE,THYROID,ONGOING,Y,IMMUNE-MEDIATED AES,PEMBROLIZUMAB
KN564,KN564-0867,RASH,213,255,2,2,1,POSSIBLY RELATED,NONE,SKIN,RESOLVED,Y,,PEMBROLIZUMAB
KN564,KN564-0869,FATIGUE,1,20,1,1,0,RELATED,NONE,GENERAL,RESOLVED,Y,,PLACEBO
KN564,KN564-0870,DIARRHEA,180,201,2,2,0,POSSIBLY RELATED,NONE,IMMUNE_MEDIATED,RESOLVED,Y,IMMUNE-MEDIATED AES,PEMBROLIZUMAB
KN564,KN564-0871,NAUSEA,180,194,2,2,0,POSSIBLY RELATED,NONE,GENERAL,RESOLVED,Y,,PEMBROLIZUMAB
KN564,KN564-0875,FATIGUE,2,25,2,2,0,NOT RELATED,NONE,GENERAL,RESOLVED,Y,,PLACEBO
KN564,KN564-0875,FATIGUE,25,52,2,2,0,NOT RELATED,NONE,GENERAL,RESOLVED,Y,,PLACEBO
KN564,KN564-0875,ARTHRALGIA,30,66,1,1,0,POSSIBLY RELATED,NONE,GENERAL,RESOLVED,Y,,PLACEBO
KN564,KN564-0875,FATIGUE,66,102,2,2,0,NOT RELATED,NONE,GENERAL,RESOLVED,Y,,PLACEBO
KN564,KN564-0875,FATIGUE,116,152,2,2,0,RELATED,NONE,GENERAL,RESOLVED,Y,,PLACEBO
KN564,KN564-0875,FATIGUE,133,163,1,1,0,NOT RELATED,NONE,GENERAL,RESOLVED,Y,,PLACEBO
KN564,KN564-0875,FATIGUE,157,198,1,1,0,POSSIBLY RELATED,NONE,GENERAL,RESOLVED,Y,,PLACEBO
KN564,KN564-0875,ARTHRALGIA,173,190,2,2,0,POSSIBLY RELATED,NONE,GENERAL,RESOLVED,Y,,PLACEBO
KN564,KN564-0875,FATIGUE,199,213,1,1,0,NOT RELATED,NONE,GENERAL,RESOLVED,Y,,PLACEBO
KN564,KN564-0875,ARTHRALGIA,204,240,2,2,0,NOT RELATED,NONE,GENERAL,RESOLVED,Y,,PLACEBO
KN564,KN564-0875,NAUSEA,200,231,2,2,0,POSSIBLY RELATED,NONE,GENERAL,RESOLVED,Y,,PLACEBO
KN564,KN564-0875,FATIGUE,241,256,1,1,0,NOT RELATED,NONE,GENERAL,RESOLVED,Y,,PLACEBO
KN564,KN564-0875,ARTHRALGIA,238,251,1,1,0,NOT RELATED,NONE,GENERAL,RESOLVED,Y,,PLACEBO
KN564,KN564-0875,FATIGUE,274,290,3,3,0,NOT RELATED,DOSE_HELD,GENERAL,RESOLVED,Y,,PLACEBO
KN564,KN564-0876,FATIGUE,99,140,3,3,0,NOT RELATED,DOSE_HELD,GENERAL,RESOLVED,Y,,PEMBROLIZUMAB
KN564,KN564-0876,RASH,134,160,1,1,0,RELATED,NONE,SKIN,RESOLVED,Y,,PEMBROLIZUMAB
KN564,KN564-0876,ARTHRALGIA,180,205,1,1,0,POSSIBLY RELATED,NONE,GENERAL,RESOLVED,Y,,PEMBROLIZUMAB
KN564,KN564-0876,FATIGUE,190,218,1,1,0,POSSIBLY RELATED,NONE,GENERAL,RESOLVED,Y,,PEMBROLIZUMAB
KN564,KN564-0876,FATIGUE,212,231,2,2,0,POSSIBLY RELATED,NONE,GENERAL,RESOLVED,Y,,PEMBROLIZUMAB
KN564,KN564-0876,FATIGUE,276,306,1,1,0,POSSIBLY RELATED,NONE,GENERAL,RESOLVED,Y,,PEMBROLIZUMAB
KN564,KN564-0876,ARTHRALGIA,279,295,1,1,0,POSSIBLY RELATED,NONE,GENERAL,RESOLVED,Y,,PEMBROLIZUMAB
KN564,KN564-0877,FATIGUE,64,79,2,2,0,NOT RELATED,NONE,GENERAL,RESOLVED,Y,,PEMBROLIZUMAB
KN564,KN564-0877,FATIGUE,86,124,2,2,0,POSSIBLY RELATED,NONE,GENERAL,RESOLVED,Y,,PEMBROLIZUMAB
KN564,KN564-0877,FATIGUE,120,158,1,1,0,POSSIBLY RELATED,NONE,GENERAL,RESOLVED,Y,,PEMBROLIZUMAB
KN564,KN564-0877,DIARRHEA,159,195,2,2,0,RELATED,DISCONTINUED,IMMUNE_MEDIATED,RESOLVED,Y,IMMUNE-MEDIATED AES,PEMBROLIZUMAB
KN564,KN564-0877,FATIGUE,296,320,2,2,0,POSSIBLY RELATED,NONE,GENERAL,RESOLVED,Y,,PEMBROLIZUMAB
KN564,KN564-0878,RASH,257,280,1,1,0,POSSIBLY RELATED,NONE,SKIN,RESOLVED,Y,,PEMBROLIZUMAB
KN564,KN564-0881,PRURITUS,90,120,1,1,0,RELATED,NONE,SKIN,RESOLVED,Y,,PEMBROLIZUMAB
KN564,KN564-0881,RASH,112,133,2,2,0,RELATED,NONE,SKIN,RESOLVED,Y,,PEMBROLIZUMAB
KN564,KN564-0881,PRURITUS,263,287,1,1,0,RELATED,NONE,SKIN,RESOLVED,Y,,PEMBROLIZUMAB
KN564,KN564-0883,FATIGUE,285,318,1,1,0,POSSIBLY RELATED,NONE,GENERAL,RESOLVED,Y,,PEMBROLIZUMAB
KN564,KN564-0884,DIARRHEA,339,375,1,1,0,POSSIBLY RELATED,NONE,IMMUNE_MEDIATED,RESOLVED,Y,IMMUNE-MEDIATED AES,PLACEBO
KN564,KN564-0885,FATIGUE,120,156,2,2,0,POSSIBLY RELATED,NONE,GENERAL,RESOLVED,Y,,PEMBROLIZUMAB
KN564,KN564-0887,FATIGUE,149,179,2,2,0,POSSIBLY RELATED,NONE,GENERAL,RESOLVED,Y,,PLACEBO
KN564,KN564-0887,FATIGUE,282,296,1,1,0,RELATED,NONE,GENERAL,RESOLVED,Y,,PLACEBO
KN564,KN564-0888,HYPOTHYROIDISM,151,185,2,2,0,POSSIBLY RELATED,NONE,THYROID,ONGOING,Y,IMMUNE-MEDIATED AES,PLACEBO
KN564,KN564-0888,DIARRHEA,264,277,1,1,0,POSSIBLY RELATED,NONE,IMMUNE_MEDIATED,RESOLVED,Y,IMMUNE-MEDIATED AES,PLACEBO
KN564,KN564-0889,HYPERTHYROIDISM,22,50,1,1,0,RELATED,NONE,THYROID,RESOLVED,Y,IMMUNE-MEDIATED AES,PEMBROLIZUMAB
KN564,KN564-0889,HYPOTHYROIDISM,65,107,2,2,0,RELATED,DISCONTINUED,THYROID,ONGOING,Y,IMMUNE-MEDIATED AES,PEMBROLIZUMAB
KN564,KN564-0889,FATIGUE,95,136,2,2,0,RELATED,NONE,GENERAL,RESOLVED,Y,,PEMBROLIZUMAB
KN564,KN564-0890,FATIGUE,9,19,3,3,0,POSSIBLY RELATED,DOSE_HELD,GENERAL,RESOLVED,Y,,PLACEBO
KN564,KN564-0892,FATIGUE,131,149,2,2,0,NOT RELATED,NONE,GENERAL,RESOLVED,Y,,PLACEBO
KN564,KN564-0892,RASH,149,156,3,3,1,NOT RELATED,DOSE_HELD,SKIN,RESOLVED,Y,,PLACEBO
KN564,KN564-0892,FATIGUE,316,340,1,1,0,NOT RELATED,NONE,GENERAL,RESOLVED,Y,,PLACEBO
KN564,KN564-0894,ARTHRALGIA,89,101,2,2,0,POSSIBLY RELATED,NONE,GENERAL,RESOLVED,Y,,PEMBROLIZUMAB
KN564,KN564-0894,FATIGUE,277,287,3,3,0,POSSIBLY RELATED,DOSE_HELD,GENERAL,RESOLVED,Y,,PEMBROLIZUMAB
KN564,KN564-0896,RASH,88,129,1,1,0,RELATED,NONE,SKIN,RESOLVED,Y,,PEMBROLIZUMAB
KN564,KN564-0896,NAUSEA,154,177,2,2,0,POSSIBLY RELATED,DISCONTINUED,GENERAL,RESOLVED,Y,,PEMBROLIZUMAB
KN564,KN564-0896,HYPOTHYROIDISM,196,203,1,1,0,RELATED,NONE,THYROID,ONGOING,Y,IMMUNE-MEDIATED AES,PEMBROLIZUMAB
KN564,KN564-0896,PRURITUS,204,222,1,1,0,RELATED,NONE,SKIN,RESOLVED,Y,,PEMBROLIZUMAB
KN564,KN564-0902,HYPOTHYROIDISM,26,59,1,1,0,RELATED,NONE,THYROID,ONGOING,Y,IMMUNE-MEDIATED AES,PEMBROLIZUMAB
KN564,KN564-0903,HYPERTHYROIDISM,151,174,1,1,0,RELATED,DISCONTINUED,THYROID,RESOLVED,Y,IMMUNE-MEDIATED AES,PEMBROLIZUMAB
KN564,KN564-0903,HYPOTHYROIDISM,195,222,1,1,0,RELATED,NONE,THYROID,ONGOING,Y,IMMUNE-MEDIATED AES,PEMBROLIZUMAB
KN564,KN564-0904,RASH,57,84,2,2,0,RELATED,NONE,SKIN,RESOLVED,Y,,PEMBROLIZUMAB
KN564,KN564-0904,PRURITUS,117,145,2,2,0,POSSIBLY RELATED,NONE,SKIN,RESOLVED,Y,,PEMBROLIZUMAB
KN564,KN564-0904,RASH,201,210,1,1,0,RELATED,NONE,SKIN,RESOLVED,Y,,PEMBROLIZUMAB
KN564,KN564-0904,HYPOTHYROIDISM,297,316,2,2,0,RELATED,NONE,THYROID,ONGOING,Y,IMMUNE-MEDIATED AES,PEMBROLIZUMAB
KN564,KN564-0905,NAUSEA,305,339,1,1,0,NOT RELATED,NONE,GENERAL,RESOLVED,Y,,PLACEBO
KN564,KN564-0906,NAUSEA,135,159,1,1,0,POSSIBLY RELATED,NONE,GENERAL,RESOLVED,Y,,PEMBROLIZUMAB
KN564,KN564-0907,NAUSEA,131,153,1,1,0,NOT RELATED,NONE,GENERAL,RESOLVED,Y,,PLACEBO
KN564,KN564-0908,FATIGUE,85,114,2,2,0,POSSIBLY RELATED,NONE,GENERAL,RESOLVED,Y,,PLACEBO
KN564,KN564-0910,NAUSEA,351,359,1,1,0,POSSIBLY RELATED,NONE,GENERAL,RESOLVED,Y,,PLACEBO
KN564,KN564-0911,PRURITUS,240,260,2,2,0,POSSIBLY RELATED,NONE,SKIN,RESOLVED,Y,,PLACEBO
KN564,KN564-0911,PRURITUS,320,336,2,2,0,POSSIBLY RELATED,NONE,SKIN,RESOLVED,Y,,PLACEBO
KN564,KN564-0912,NAUSEA,106,141,2,2,0,POSSIBLY RELATED,NONE,GENERAL,RESOLVED,Y,,PEMBROLIZUMAB
KN564,KN564-0912,HYPERTHYROIDISM,134,172,1,1,0,RELATED,NONE,THYROID,RESOLVED,Y,IMMUNE-MEDIATED AES,PEMBROLIZUMAB
KN564,KN564-0912,HYPOTHYROIDISM,171,190,2,2,0,RELATED,NONE,THYROID,ONGOING,Y,IMMUNE-MEDIATED AES,PEMBROLIZUMAB
KN564,KN564-0912,RASH,176,186,2,2,0,RELATED,NONE,SKIN,RESOLVED,Y,,PEMBROLIZUMAB
KN564,KN564-0913,HYPOTHYROIDISM,110,150,2,2,0,RELATED,NONE,THYROID,ONGOING,Y,IMMUNE-MEDIATED AES,PEMBROLIZUMAB
KN564,KN564-0914,FATIGUE,29,45,1,1,0,POSSIBLY RELATED,NONE,GENERAL,RESOLVED,Y,,PEMBROLIZUMAB
KN564,KN564-0917,HYPERTHYROIDISM,48,84,1,1,0,RELATED,NONE,THYROID,RESOLVED,Y,IMMUNE-MEDIATED AES,PEMBROLIZUMAB
KN564,KN564-0917,HYPOTHYROIDISM,70,99,1,1,0,RELATED,NONE,THYROID,ONGOING,Y,IMMUNE-MEDIATED AES,PEMBROLIZUMAB
KN564,KN564-0917,RASH,106,146,2,2,1,RELATED,NONE,SKIN,RESOLVED,Y,,PEMBROLIZUMAB
KN564,KN564-0919,HYPOTHYROIDISM,87,118,2,2,0,RELATED,NONE,THYROID,ONGOING,Y,IMMUNE-MEDIATED AES,PEMBROLIZUMAB
KN564,KN564-0919,NAUSEA,119,151,2,2,0,POSSIBLY RELATED,NONE,GENERAL,RESOLVED,Y,,PEMBROLIZUMAB
KN564,KN564-0919,NAUSEA,149,185,2,2,0,POSSIBLY RELATED,DISCONTINUED,GENERAL,RESOLVED,Y,,PEMBROLIZUMAB
KN564,KN564-0919,PRURITUS,257,296,1,1,0,POSSIBLY RELATED,NONE,SKIN,RESOLVED,Y,,PEMBROLIZUMAB
KN564,KN564-0920,DIARRHEA,180,212,1,1,0,POSSIBLY RELATED,NONE,IMMUNE_MEDIATED,RESOLVED,Y,IMMUNE-MEDIATED AES,PLACEBO
KN564,KN564-0920,FATIGUE,236,270,3,3,1,NOT RELATED,DOSE_HELD,GENERAL,RESOLVED,Y,,PLACEBO
KN564,KN564-0921,ARTHRALGIA,30,46,1,1,0,POSSIBLY RELATED,NONE,GENERAL,RESOLVED,Y,,PLACEBO
KN564,KN564-0921,FATIGUE,194,206,1,1,0,NOT RELATED,NONE,GENERAL,RESOLVED,Y,,PLACEBO
KN564,KN564-0925,RASH,112,145,2,2,0,POSSIBLY RELATED,DISCONTINUED,SKIN,RESOLVED,Y,,PEMBROLIZUMAB
KN564,KN564-0925,HYPERTHYROIDISM,171,190,2,2,0,RELATED,NONE,THYROID,RESOLVED,Y,IMMUNE-MEDIATED AES,PEMBROLIZUMAB
KN564,KN564-0925,ARTHRALGIA,171,206,2,2,0,RELATED,NONE,GENERAL,RESOLVED,Y,,PEMBROLIZUMAB
KN564,KN564-0926,FATIGUE,29,51,1,1,0,POSSIBLY RELATED,NONE,GENERAL,RESOLVED,Y,,PEMBROLIZUMAB
KN564,KN564-0926,FATIGUE,97,138,2,2,0,POSSIBLY RELATED,DISCONTINUED,GENERAL,RESOLVED,Y,,PEMBROLIZUMAB
KN564,KN564-0926,ARTHRALGIA,116,156,3,3,0,POSSIBLY RELATED,DOSE_HELD,GENERAL,RESOLVED,Y,,PEMBROLIZUMAB
KN564,KN564-0927,PRURITUS,96,127,1,1,0,RELATED,NONE,SKIN,RESOLVED,Y,,PEMBROLIZUMAB
KN564,KN564-0927,DIARRHEA,183,192,3,3,0,RELATED,DOSE_HELD,IMMUNE_MEDIATED,RESOLVED,Y,IMMUNE-MEDIATED AES,PEMBROLIZUMAB
KN564,KN564-0927,DIARRHEA,346,376,2,2,0,POSSIBLY RELATED,NONE,IMMUNE_MEDIATED,RESOLVED,Y,IMMUNE-MEDIATED AES,PEMBROLIZUMAB
KN564,KN564-0929,FATIGUE,54,77,2,2,0,POSSIBLY RELATED,NONE,GENERAL,RESOLVED,Y,,PEMBROLIZUMAB
KN564,KN564-0929,FATIGUE,78,120,3,3,0,NOT RELATED,DISCONTINUED,GENERAL,RESOLVED,Y,,PEMBROLIZUMAB
KN564,KN564-0929,FATIGUE,120,133,2,2,0,POSSIBLY RELATED,NONE,GENERAL,RESOLVED,Y,,PEMBROLIZUMAB
KN564,KN564-0930,RASH,212,237,2,2,0,RELATED,NONE,SKIN,RESOLVED,Y,,PEMBROLIZUMAB
KN564,KN564-0931,ARTHRALGIA,323,356,1,1,0,RELATED,NONE,GENERAL,RESOLVED,Y,,PLACEBO
KN564,KN564-0932,FATIGUE,173,215,2,2,0,POSSIBLY RELATED,NONE,GENERAL,RESOLVED,Y,,PLACEBO
KN564,KN564-0933,HYPOTHYROIDISM,174,208,1,1,0,RELATED,NONE,THYROID,ONGOING,Y,IMMUNE-MEDIATED AES,PEMBROLIZUMAB
KN564,KN564-0935,DIARRHEA,52,88,2,2,0,POSSIBLY RELATED,NONE,IMMUNE_MEDIATED,RESOLVED,Y,IMMUNE-MEDIATED AES,PLACEBO
KN564,KN564-0936,FATIGUE,25,59,1,1,0,POSSIBLY RELATED,NONE,GENERAL,RESOLVED,Y,,PLACEBO
KN564,KN564-0936,ARTHRALGIA,156,185,2,2,0,NOT RELATED,NONE,GENERAL,RESOLVED,Y,,PLACEBO
KN564,KN564-0938,ARTHRALGIA,23,55,2,2,0,POSSIBLY RELATED,NONE,GENERAL,RESOLVED,Y,,PEMBROLIZUMAB
KN564,KN564-0938,FATIGUE,216,245,2,2,1,NOT RELATED,NONE,GENERAL,RESOLVED,Y,,PEMBROLIZUMAB
KN564,KN564-0939,FATIGUE,31,54,2,2,0,NOT RELATED,NONE,GENERAL,RESOLVED,Y,,PLACEBO
KN564,KN564-0939,FATIGUE,76,87,1,1,0,NOT RELATED,NONE,GENERAL,RESOLVED,Y,,PLACEBO
KN564,KN564-0939,ARTHRALGIA,74,96,1,1,0,POSSIBLY RELATED,NONE,GENERAL,RESOLVED,Y,,PLACEBO
KN564,KN564-0939,FATIGUE,99,132,2,2,0,NOT RELATED,NONE,GENERAL,RESOLVED,Y,,PLACEBO
KN564,KN564-0939,FATIGUE,115,135,2,2,0,NOT RELATED,NONE,GENERAL,RESOLVED,Y,,PLACEBO
KN564,KN564-0939,FATIGUE,132,148,2,2,0,NOT RELATED,NONE,GENERAL,RESOLVED,Y,,PLACEBO
KN564,KN564-0939,ARTHRALGIA,132,149,2,2,0,RELATED,NONE,GENERAL,RESOLVED,Y,,PLACEBO
KN564,KN564-0939,FATIGUE,153,178,1,1,0,POSSIBLY RELATED,NONE,GENERAL,RESOLVED,Y,,PLACEBO
KN564,KN564-0939,ARTHRALGIA,218,241,2,2,0,NOT RELATED,NONE,GENERAL,RESOLVED,Y,,PLACEBO
KN564,KN564-0939,FATIGUE,244,253,2,2,0,POSSIBLY RELATED,NONE,GENERAL,RESOLVED,Y,,PLACEBO
KN564,KN564-0939,FATIGUE,257,286,1,1,0,POSSIBLY RELATED,NONE,GENERAL,RESOLVED,Y,,PLACEBO
KN564,KN564-0939,ARTHRALGIA,253,277,2,2,0,NOT RELATED,NONE,GENERAL,RESOLVED,Y,,PLACEBO
KN564,KN564-0939,FATIGUE,277,310,1,1,0,RELATED,NONE,GENERAL,RESOLVED,Y,,PLACEBO
KN564,KN564-0939,FATIGUE,306,330,2,2,0,NOT RELATED,NONE,GENERAL,RESOLVED,Y,,PLACEBO
KN564,KN564-0939,ARTHRALGIA,302,311,1,1,0,NOT RELATED,NONE,GENERAL,RESOLVED,Y,,PLACEBO
KN564,KN564-0939,FATIGUE,329,371,2,2,0,NOT RELATED,NONE,GENERAL,RESOLVED,Y,,PLACEBO
KN564,KN564-0941,DIARRHEA,111,125,1,1,0,POSSIBLY RELATED,NONE,IMMUNE_MEDIATED,RESOLVED,Y,IMMUNE-MEDIATED AES,PEMBROLIZUMAB
KN564,KN564-0941,DIARRHEA,234,243,3,3,0,RELATED,DOSE_HELD,IMMUNE_MEDIATED,RESOLVED,Y,IMMUNE-MEDIATED AES,PEMBROLIZUMAB
KN564,KN564-0941,RASH,300,342,1,1,0,RELATED,NONE,SKIN,RESOLVED,Y,,PEMBROLIZUMAB
KN564,KN564-0941,PRURITUS,348,360,1,1,0,RELATED,NONE,SKIN,RESOLVED,Y,,PEMBROLIZUMAB
KN564,KN564-0943,HYPOTHYROIDISM,107,122,2,2,0,POSSIBLY RELATED,NONE,THYROID,ONGOING,Y,IMMUNE-MEDIATED AES,PLACEBO
KN564,KN564-0947,HYPOTHYROIDISM,234,272,1,1,0,RELATED,NONE,THYROID,ONGOING,Y,IMMUNE-MEDIATED AES,PEMBROLIZUMAB
KN564,KN564-0948,FATIGUE,296,337,2,2,0,POSSIBLY RELATED,NONE,GENERAL,RESOLVED,Y,,PEMBROLIZUMAB
KN564,KN564-0949,DIARRHEA,320,341,1,1,0,NOT RELATED,NONE,IMMUNE_MEDIATED,RESOLVED,Y,IMMUNE-MEDIATED AES,PLACEBO
KN564,KN564-0950,RASH,199,224,2,2,0,RELATED,NONE,SKIN,RESOLVED,Y,,PEMBROLIZUMAB
KN564,KN564-0950,RASH,219,234,2,2,0,RELATED,NONE,SKIN,RESOLVED,Y,,PEMBROLIZUMAB
KN564,KN564-0950,HYPOTHYROIDISM,297,304,1,1,0,RELATED,NONE,THYROID,ONGOING,Y,IMMUNE-MEDIATED AES,PEMBROLIZUMAB
KN564,KN564-0953,FATIGUE,234,264,3,3,0,RELATED,DOSE_HELD,GENERAL,RESOLVED,Y,,PLACEBO
KN564,KN564-0953,ARTHRALGIA,254,293,2,2,0,RELATED,NONE,GENERAL,RESOLVED,Y,,PLACEBO
KN564,KN564-0953,DIARRHEA,329,347,1,1,0,POSSIBLY RELATED,NONE,IMMUNE_MEDIATED,RESOLVED,Y,IMMUNE-MEDIATED AES,PLACEBO
KN564,KN564-0954,NAUSEA,325,356,1,1,0,RELATED,NONE,GENERAL,RESOLVED,Y,,PEMBROLIZUMAB
KN564,KN564-0955,PRURITUS,90,112,1,1,0,NOT RELATED,NONE,SKIN,RESOLVED,Y,,PLACEBO
KN564,KN564-0955,RASH,169,209,2,2,0,POSSIBLY RELATED,NONE,SKIN,RESOLVED,Y,,PLACEBO
KN564,KN564-0955,HYPOTHYROIDISM,318,349,1,1,0,POSSIBLY RELATED,NONE,THYROID,ONGOING,Y,IMMUNE-MEDIATED AES,PLACEBO
KN564,KN564-0956,ARTHRALGIA,160,177,2,2,1,RELATED,NONE,GENERAL,RESOLVED,Y,,PLACEBO
KN564,KN564-0958,FATIGUE,11,29,2,2,0,NOT RELATED,NONE,GENERAL,RESOLVED,Y,,PLACEBO
KN564,KN564-0958,FATIGUE,179,219,1,1,0,POSSIBLY RELATED,NONE,GENERAL,RESOLVED,Y,,PLACEBO
KN564,KN564-0958,FATIGUE,192,206,1,1,0,NOT RELATED,NONE,GENERAL,RESOLVED,Y,,PLACEBO
KN564,KN564-0958,ARTHRALGIA,281,293,3,3,0,NOT RELATED,DOSE_HELD,GENERAL,RESOLVED,Y,,PLACEBO
KN564,KN564-0959,NAUSEA,75,102,2,2,0,POSSIBLY RELATED,NONE,GENERAL,RESOLVED,Y,,PEMBROLIZUMAB
KN564,KN564-0959,NAUSEA,255,266,3,3,0,NOT RELATED,DOSE_HELD,GENERAL,RESOLVED,Y,,PEMBROLIZUMAB
KN564,KN564-0960,DIARRHEA,9,30,1,1,0,RELATED,DISCONTINUED,IMMUNE_MEDIATED,RESOLVED,Y,IMMUNE-MEDIATED AES,PEMBROLIZUMAB
KN564,KN564-0960,PRURITUS,98,137,1,1,0,POSSIBLY RELATED,NONE,SKIN,RESOLVED,Y,,PEMBROLIZUMAB
KN564,KN564-0961,FATIGUE,237,264,2,2,0,NOT RELATED,NONE,GENERAL,RESOLVED,Y,,PLACEBO
KN564,KN564-0962,FATIGUE,3,10,2,2,0,POSSIBLY RELATED,NONE,GENERAL,RESOLVED,Y,,PLACEBO
KN564,KN564-0963,FATIGUE,4,40,1,1,0,RELATED,NONE,GENERAL,RESOLVED,Y,,PEMBROLIZUMAB
KN564,KN564-0963,ARTHRALGIA,151,167,1,1,0,NOT RELATED,NONE,GENERAL,RESOLVED,Y,,PEMBROLIZUMAB
KN564,KN564-0963,FATIGUE,218,225,1,1,0,NOT RELATED,NONE,GENERAL,RESOLVED,Y,,PEMBROLIZUMAB
KN564,KN564-0964,ARTHRALGIA,277,298,2,2,0,POSSIBLY RELATED,NONE,GENERAL,RESOLVED,Y,,PEMBROLIZUMAB
KN564,KN564-0965,FATIGUE,318,346,1,1,0,NOT RELATED,NONE,GENERAL,RESOLVED,Y,,PLACEBO
KN564,KN564-0966,FATIGUE,120,160,2,2,0,NOT RELATED,NONE,GENERAL,RESOLVED,Y,,PLACEBO
KN564,KN564-0966,FATIGUE,321,338,1,1,0,RELATED,NONE,GENERAL,RESOLVED,Y,,PLACEBO
KN564,KN564-0967,HYPERTHYROIDISM,27,42,2,2,0,POSSIBLY RELATED,NONE,THYROID,RESOLVED,Y,IMMUNE-MEDIATED AES,PLACEBO
KN564,KN564-0967,HYPOTHYROIDISM,87,128,1,1,0,POSSIBLY RELATED,NONE,THYROID,ONGOING,Y,IMMUNE-MEDIATED AES,PLACEBO
KN564,KN564-0969,PRURITUS,180,190,2,2,0,POSSIBLY RELATED,NONE,SKIN,RESOLVED,Y,,PLACEBO
KN564,KN564-0970,ARTHRALGIA,194,206,2,2,0,POSSIBLY RELATED,NONE,GENERAL,RESOLVED,Y,,PEMBROLIZUMAB
KN564,KN564-0973,ARTHRALGIA,317,352,3,3,0,POSSIBLY RELATED,DOSE_HELD,GENERAL,RESOLVED,Y,,PEMBROLIZUMAB
KN564,KN564-0976,FATIGUE,149,181,1,1,0,POSSIBLY RELATED,NONE,GENERAL,RESOLVED,Y,,PLACEBO
KN564,KN564-0976,ARTHRALGIA,279,287,1,1,0,POSSIBLY RELATED,NONE,GENERAL,RESOLVED,Y,,PLACEBO
KN564,KN564-0977,ARTHRALGIA,136,169,2,2,0,POSSIBLY RELATED,NONE,GENERAL,RESOLVED,Y,,PLACEBO
KN564,KN564-0978,RASH,220,236,1,1,0,RELATED,NONE,SKIN,RESOLVED,Y,,PEMBROLIZUMAB
KN564,KN564-0979,HYPERTHYROIDISM,106,139,1,1,0,RELATED,NONE,THYROID,RESOLVED,Y,IMMUNE-MEDIATED AES,PEMBROLIZUMAB
KN564,KN564-0979,HYPOTHYROIDISM,134,151,1,1,0,RELATED,NONE,THYROID,ONGOING,Y,IMMUNE-MEDIATED AES,PEMBROLIZUMAB
KN564,KN564-0980,HYPOTHYROIDISM,274,313,1,1,0,RELATED,NONE,THYROID,ONGOING,Y,IMMUNE-MEDIATED AES,PEMBROLIZUMAB
KN564,KN564-0982,HYPOTHYROIDISM,22,38,1,1,0,RELATED,DISCONTINUED,THYROID,ONGOING,Y,IMMUNE-MEDIATED AES,PEMBROLIZUMAB
KN564,KN564-0982,FATIGUE,31,52,2,2,0,POSSIBLY RELATED,NONE,GENERAL,RESOLVED,Y,,PEMBROLIZUMAB
KN564,KN564-0984,DIARRHEA,4,34,1,1,0,RELATED,NONE,IMMUNE_MEDIATED,RESOLVED,Y,IMMUNE-MEDIATED AES,PEMBROLIZUMAB
KN564,KN564-0984,HYPOTHYROIDISM,27,52,1,1,0,RELATED,NONE,THYROID,ONGOING,Y,IMMUNE-MEDIATED AES,PEMBROLIZUMAB
KN564,KN564-0985,PRURITUS,344,359,2,2,0,POSSIBLY RELATED,NONE,SKIN,RESOLVED,Y,,PLACEBO
KN564,KN564-0986,HYPOTHYROIDISM,29,38,1,1,0,POSSIBLY RELATED,NONE,THYROID,ONGOING,Y,IMMUNE-MEDIATED AES,PLACEBO
KN564,KN564-0986,ARTHRALGIA,151,179,2,2,0,NOT RELATED,NONE,GENERAL,RESOLVED,Y,,PLACEBO
KN564,KN564-0986,NAUSEA,153,179,1,1,0,POSSIBLY RELATED,NONE,GENERAL,RESOLVED,Y,,PLACEBO
KN564,KN564-0986,NAUSEA,253,287,1,1,0,POSSIBLY RELATED,NONE,GENERAL,RESOLVED,Y,,PLACEBO
KN564,KN564-0986,PRURITUS,282,289,1,1,0,POSSIBLY RELATED,NONE,SKIN,RESOLVED,Y,,PLACEBO
KN564,KN564-0986,DIARRHEA,301,317,2,2,0,POSSIBLY RELATED,NONE,IMMUNE_MEDIATED,RESOLVED,Y,IMMUNE-MEDIATED AES,PLACEBO
KN564,KN564-0986,NAUSEA,308,320,2,2,0,POSSIBLY RELATED,NONE,GENERAL,RESOLVED,Y,,PLACEBO
KN564,KN564-0986,NAUSEA,339,370,2,2,0,POSSIBLY RELATED,NONE,GENERAL,RESOLVED,Y,,PLACEBO
KN564,KN564-0987,HYPERTHYROIDISM,319,337,1,1,0,RELATED,NONE,THYROID,RESOLVED,Y,IMMUNE-MEDIATED AES,PEMBROLIZUMAB
KN564,KN564-0988,NAUSEA,195,221,2,2,0,NOT RELATED,NONE,GENERAL,RESOLVED,Y,,PLACEBO
KN564,KN564-0988,NAUSEA,280,288,2,2,1,NOT RELATED,NONE,GENERAL,RESOLVED,Y,,PLACEBO
KN564,KN564-0989,FATIGUE,13,53,1,1,0,POSSIBLY RELATED,NONE,GENERAL,RESOLVED,Y,,PEMBROLIZUMAB
KN564,KN564-0989,ARTHRALGIA,2,10,1,1,0,NOT RELATED,NONE,GENERAL,RESOLVED,Y,,PEMBROLIZUMAB
KN564,KN564-0989,ARTHRALGIA,52,77,2,2,0,POSSIBLY RELATED,NONE,GENERAL,RESOLVED,Y,,PEMBROLIZUMAB
KN564,KN564-0989,FATIGUE,67,75,1,1,0,RELATED,NONE,GENERAL,RESOLVED,Y,,PEMBROLIZUMAB
KN564,KN564-0989,ARTHRALGIA,78,117,3,3,1,POSSIBLY RELATED,DISCONTINUED,GENERAL,RESOLVED,Y,,PEMBROLIZUMAB
KN564,KN564-0989,FATIGUE,128,155,1,1,0,POSSIBLY RELATED,NONE,GENERAL,RESOLVED,Y,,PEMBROLIZUMAB
KN564,KN564-0989,ARTHRALGIA,138,157,1,1,0,POSSIBLY RELATED,NONE,GENERAL,RESOLVED,Y,,PEMBROLIZUMAB
KN564,KN564-0989,FATIGUE,161,185,2,2,0,RELATED,NONE,GENERAL,RESOLVED,Y,,PEMBROLIZUMAB
KN564,KN564-0989,FATIGUE,195,232,2,2,0,NOT RELATED,NONE,GENERAL,RESOLVED,Y,,PEMBROLIZUMAB
KN564,KN564-0989,ARTHRALGIA,197,223,2,2,0,NOT RELATED,NONE,GENERAL,RESOLVED,Y,,PEMBROLIZUMAB
KN564,KN564-0989,FATIGUE,221,234,1,1,0,POSSIBLY RELATED,NONE,GENERAL,RESOLVED,Y,,PEMBROLIZUMAB
KN564,KN564-0989,FATIGUE,241,257,2,2,0,POSSIBLY RELATED,NONE,GENERAL,RESOLVED,Y,,PEMBROLIZUMAB
KN564,KN564-0989,ARTHRALGIA,261,272,1,1,0,RELATED,NONE,GENERAL,RESOLVED,Y,,PEMBROLIZUMAB
KN564,KN564-0989,FATIGUE,276,310,1,1,0,NOT RELATED,NONE,GENERAL,RESOLVED,Y,,PEMBROLIZUMAB
KN564,KN564-0989,ARTHRALGIA,280,288,2,2,0,RELATED,NONE,GENERAL,RESOLVED,Y,,PEMBROLIZUMAB
KN564,KN564-0989,FATIGUE,303,339,2,2,0,RELATED,NONE,GENERAL,RESOLVED,Y,,PEMBROLIZUMAB
KN564,KN564-0989,HYPERTHYROIDISM,316,338,1,1,0,RELATED,NONE,THYROID,RESOLVED,Y,IMMUNE-MEDIATED AES,PEMBROLIZUMAB
KN564,KN564-0989,FATIGUE,322,356,1,1,0,POSSIBLY RELATED,NONE,GENERAL,RESOLVED,Y,,PEMBROLIZUMAB
KN564,KN564-0989,ARTHRALGIA,326,351,1,1,0,POSSIBLY RELATED,NONE,GENERAL,RESOLVED,Y,,PEMBROLIZUMAB
KN564,KN564-0991,DIARRHEA,14,48,2,2,0,NOT RELATED,NONE,IMMUNE_MEDIATED,RESOLVED,Y,IMMUNE-MEDIATED AES,PLACEBO
KN564,KN564-0991,FATIGUE,138,164,1,1,0,NOT RELATED,NONE,GENERAL,RESOLVED,Y,,PLACEBO
KN564,KN564-0991,FATIGUE,162,200,1,1,0,NOT RELATED,NONE,GENERAL,RESOLVED,Y,,PLACEBO
KN564,KN564-0992,RASH,67,99,2,2,0,NOT RELATED,NONE,SKIN,RESOLVED,Y,,PLACEBO
KN564,KN564-0992,FATIGUE,156,179,1,1,0,POSSIBLY RELATED,NONE,GENERAL,RESOLVED,Y,,PLACEBO
KN564,KN564-0992,DIARRHEA,182,193,3,3,0,POSSIBLY RELATED,DOSE_HELD,IMMUNE_MEDIATED,RESOLVED,Y,IMMUNE-MEDIATED AES,PLACEBO
KN564,KN564-0993,FATIGUE,13,27,1,1,0,POSSIBLY RELATED,NONE,GENERAL,RESOLVED,Y,,PEMBROLIZUMAB
KN564,KN564-0993,FATIGUE,45,83,1,1,0,NOT RELATED,NONE,GENERAL,RESOLVED,Y,,PEMBROLIZUMAB
KN564,KN564-0993,ARTHRALGIA,66,108,1,1,0,RELATED,NONE,GENERAL,RESOLVED,Y,,PEMBROLIZUMAB
KN564,KN564-0993,FATIGUE,162,186,1,1,0,POSSIBLY RELATED,NONE,GENERAL,RESOLVED,Y,,PEMBROLIZUMAB
KN564,KN564-0993,FATIGUE,173,205,2,2,0,RELATED,NONE,GENERAL,RESOLVED,Y,,PEMBROLIZUMAB
KN564,KN564-0993,ARTHRALGIA,203,218,2,2,0,POSSIBLY RELATED,NONE,GENERAL,RESOLVED,Y,,PEMBROLIZUMAB
KN564,KN564-0993,FATIGUE,219,256,1,1,0,RELATED,NONE,GENERAL,RESOLVED,Y,,PEMBROLIZUMAB
KN564,KN564-0994,FATIGUE,112,146,1,1,0,POSSIBLY RELATED,NONE,GENERAL,RESOLVED,Y,,PLACEBO
