[
  {
    "STUDYID": "CDISCPILOT01",
    "USUBJID": "01-701-001",
    "AESEQ": 1,
    "TRTP": "Xanomeline Low Dose",
    "TRTPN": 1,
    "AETERM": "Application site pruritus",
    "AEDECOD": "Application site pruritus",
    "AEBODSYS": "General disorders and administration site conditions",
    "AECAT": "APPLICATION SITE",
    "AESEV": "MODERATE",
    "AETOXGR": 2,
    "ATOXGRN": 2,
    "AESER": "N",
    "AEREL": "RELATED",
    "RELGR1": "Y",
    "RELGR1N": 1,
    "ASTDT": "2013-06-23",
    "AENDT": "2013-07-14",
    "ASTDY": 5,
    "AENDY": 26,
    "ADURN": 22,
    "ADURU": "DAY",
    "TRTEMFL": "Y",
    "AOCCFL": "Y",
    "AOCC01FL": "Y",
    "CQ01NAM": "APPLICATION SITE REACTION",
    "AGE": 70,
    "AGEGR1": "65-80",
    "SEX": "F",
    "MMSETOT": 21,
    "SAFFL": "Y"
  },
  {
    "STUDYID": "CDISCPILOT01",
    "USUBJID": "01-701-001",
    "AESEQ": 2,
    "TRTP": "Xanomeline Low Dose",
    "TRTPN": 1,
    "AETERM": "Diarrhoea",
    "AEDECOD": "Diarrhoea",
    "AEBODSYS": "Gastrointestinal disorders",
    "AECAT": "GENERAL",
    "AESEV": "MODERATE",
    "AETOXGR": 2,
    "ATOXGRN": 2,
    "AESER": "N",
    "AEREL": "POSSIBLY RELATED",
    "RELGR1": "Y",
    "RELGR1N": 1,
    "ASTDT": "2013-07-24",
    "AENDT": "2013-08-14",
    "ASTDY": 36,
    "AENDY": 57,
    "ADURN": 22,
    "ADURU": "DAY",
    "TRTEMFL": "Y",
    "AOCCFL": "Y",
    "AOCC01FL": "Y",
    "AGE": 70,
    "AGEGR1": "65-80",
    "SEX": "F",
    "MMSETOT": 21,
    "SAFFL": "Y"
  },
  {
    "STUDYID": "CDISCPILOT01",
    "USUBJID": "01-701-001",
    "AESEQ": 3,
    "TRTP": "Xanomeline Low Dose",
    "TRTPN": 1,
    "AETERM": "Nasopharyngitis",
    "AEDECOD": "Nasopharyngitis",
    "AEBODSYS": "Infections and infestations",
    "AECAT": "GENERAL",
    "AESEV": "MODERATE",
    "AETOXGR": 2,
    "ATOXGRN": 2,
    "AESER": "N",
    "AEREL": "NOT RELATED",
    "RELGR1": "N",
    "RELGR1N": 0,
    "ASTDT": "2013-07-29",
    "AENDT": "2013-08-14",
    "ASTDY": 41,
    "AENDY": 57,
    "ADURN": 17,
    "ADURU": "DAY",
    "TRTEMFL": "Y",
    "AOCCFL": "Y",
    "AOCC01FL": "Y",
    "AGE": 70,
    "AGEGR1": "65-80",
    "SEX": "F",
    "MMSETOT": 21,
    "SAFFL": "Y"
  },
  {
    "STUDYID": "CDISCPILOT01",
    "USUBJID": "01-701-002",
    "AESEQ": 2,
    "TRTP": "Xanomeline Low Dose",
    "TRTPN": 1,
    "AETERM": "Dizziness",
    "AEDECOD": "Dizziness",
    "AEBODSYS": "Nervous system disorders",
    "AECAT": "GENERAL",
    "AESEV": "MODERATE",
    "AETOXGR": 2,
    "ATOXGRN": 2,
    "AESER": "N",
    "AEREL": "POSSIBLY RELATED",
    "RELGR1": "Y",
    "RELGR1N": 1,
    "ASTDT": "2013-04-29",
    "AENDT": "2013-05-07",
    "ASTDY": 29,
    "AENDY": 37,
    "ADURN": 9,
    "ADURU": "DAY",
    "TRTEMFL": "Y",
    "AOCCFL": "Y",
    "AOCC01FL": "Y",
    "AGE": 68,
    "AGEGR1": "65-80",
    "SEX": "F",
    "MMSETOT": 19,
    "SAFFL": "Y"
  },
  {
    "STUDYID": "CDISCPILOT01",
    "USUBJID": "01-701-002",
    "AESEQ": 1,
    "TRTP": "Xanomeline Low Dose",
    "TRTPN": 1,
    "AETERM": "Skin irritation",
    "AEDECOD": "Skin irritation",
    "AEBODSYS": "Skin and subcutaneous tissue disorders",
    "AECAT": "GENERAL",
    "AESEV": "MODERATE",
    "AETOXGR": 2,
    "ATOXGRN": 2,
    "AESER": "N",
    "AEREL": "POSSIBLY RELATED",
    "RELGR1": "Y",
    "RELGR1N": 1,
    "ASTDT": "2013-06-09",
    "AENDT": "2013-07-03",
    "ASTDY": 70,
    "AENDY": 94,
    "ADURN": 25,
    "ADURU": "DAY",
    "TRTEMFL": "Y",
    "AOCCFL": "Y",
    "AOCC01FL": "Y",
    "CQ02NAM": "DERMATOLOGICAL AE",
    "AGE": 68,
    "AGEGR1": "65-80",
    "SEX": "F",
    "MMSETOT": 19,
    "SAFFL": "Y"
  },
  {
    "STUDYID": "CDISCPILOT01",
    "USUBJID": "01-701-002",
    "AESEQ": 3,
    "TRTP": "Xanomeline Low Dose",
    "TRTPN": 1,
    "AETERM": "Syncope",
    "AEDECOD": "Syncope",
    "AEBODSYS": "Nervous system disorders",
    "AECAT": "GENERAL",
    "AESEV": "SEVERE",
    "AETOXGR": 3,
    "ATOXGRN": 3,
    "AESER": "Y",
    "AEREL": "NOT RELATED",
    "RELGR1": "N",
    "RELGR1N": 0,
    "ASTDT": "2013-04-04",
    "AENDT": "2013-04-11",
    "ASTDY": 4,
    "AENDY": 11,
    "ADURN": 8,
    "ADURU": "DAY",
    "TRTEMFL": "Y",
    "AOCCFL": "Y",
    "AOCCPFL": "Y",
    "AGE": 68,
    "AGEGR1": "65-80",
    "SEX": "F",
    "MMSETOT": 19,
    "SAFFL": "Y"
  },
  {
    "STUDYID": "CDISCPILOT01",
    "USUBJID": "01-701-004",
    "AESEQ": 1,
    "TRTP": "Xanomeline High Dose",
    "TRTPN": 2,
    "AETERM": "Nasopharyngitis",
    "AEDECOD": "Nasopharyngitis",
    "AEBODSYS": "Infections and infestations",
    "AECAT": "GENERAL",
    "AESEV": "MODERATE",
    "AETOXGR": 2,
    "ATOXGRN": 2,
    "AESER": "N",
    "AEREL": "POSSIBLY RELATED",
    "RELGR1": "Y",
    "RELGR1N": 1,
    "ASTDT": "2013-11-16",
    "AENDT": "2013-12-12",
    "ASTDY": 84,
    "AENDY": 110,
    "ADURN": 27,
    "ADURU": "DAY",
    "TRTEMFL": "Y",
    "AOCCFL": "Y",
    "AOCC01FL": "Y",
    "AGE": 87,
    "AGEGR1": ">80",
    "SEX": "F",
    "MMSETOT": 24,
    "SAFFL": "Y"
  },
  {
    "STUDYID": "CDISCPILOT01",
    "USUBJID": "01-701-005",
    "AESEQ": 1,
    "TRTP": "Placebo",
    "TRTPN": 0,
    "AETERM": "Vomiting",
    "AEDECOD": "Vomiting",
    "AEBODSYS": "Gastrointestinal disorders",
    "AECAT": "GENERAL",
    "AESEV": "MILD",
    "AETOXGR": 1,
    "ATOXGRN": 1,
    "AESER": "N",
    "AEREL": "POSSIBLY RELATED",
    "RELGR1": "Y",
    "RELGR1N": 1,
    "ASTDT": "2013-02-21",
    "AENDT": "2013-03-25",
    "ASTDY": 14,
    "AENDY": 46,
    "ADURN": 33,
    "ADURU": "DAY",
    "TRTEMFL": "Y",
    "AOCCFL": "Y",
    "AOCC01FL": "Y",
    "AGE": 89,
    "AGEGR1": ">80",
    "SEX": "F",
    "MMSETOT": 18,
    "SAFFL": "Y"
  },
  {
    "STUDYID": "CDISCPILOT01",
    "USUBJID": "01-701-006",
    "AESEQ": 1,
    "TRTP": "Placebo",
    "TRTPN": 0,
    "AETERM": "Erythema",
    "AEDECOD": "Erythema",
    "AEBODSYS": "Skin and subcutaneous tissue disorders",
    "AECAT": "GENERAL",
    "AESEV": "MODERATE",
    "AETOXGR": 2,
    "ATOXGRN": 2,
    "AESER": "N",
    "AEREL": "NOT RELATED",
    "RELGR1": "N",
    "RELGR1N": 0,
    "ASTDT": "2013-08-18",
    "AENDT": "2013-09-05",
    "ASTDY": 52,
    "AENDY": 70,
    "ADURN": 19,
    "ADURU": "DAY",
    "TRTEMFL": "Y",
    "AOCCFL": "Y",
    "AOCC01FL": "Y",
    "CQ02NAM": "DERMATOLOGICAL AE",
    "AGE": 76,
    "AGEGR1": "65-80",
    "SEX": "F",
    "MMSETOT": 14,
    "SAFFL": "Y"
  },
  {
    "STUDYID": "CDISCPILOT01",
    "USUBJID": "01-701-006",
    "AESEQ": 3,
    "TRTP": "Placebo",
    "TRTPN": 0,
    "AETERM": "Upper respiratory tract infection",
    "AEDECOD": "Upper respiratory tract infection",
    "AEBODSYS": "Infections and infestations",
    "AECAT": "GENERAL",
    "AESEV": "MODERATE",
    "AETOXGR": 2,
    "ATOXGRN": 2,
    "AESER": "N",
    "AEREL": "NOT RELATED",
    "RELGR1": "N",
    "RELGR1N": 0,
    "ASTDT": "2013-07-28",
    "AENDT": "2013-08-19",
    "ASTDY": 31,
    "AENDY": 53,
    "ADURN": 23,
    "ADURU": "DAY",
    "TRTEMFL": "Y",
    "AOCCFL": "Y",
    "AOCC01FL": "Y",
    "AGE": 76,
    "AGEGR1": "65-80",
    "SEX": "F",
    "MMSETOT": 14,
    "SAFFL": "Y"
  },
  {
    "STUDYID": "CDISCPILOT01",
    "USUBJID": "01-701-006",
    "AESEQ": 2,
    "TRTP": "Placebo",
    "TRTPN": 0,
    "AETERM": "Vomiting",
    "AEDECOD": "Vomiting",
    "AEBODSYS": "Gastrointestinal disorders",
    "AECAT": "GENERAL",
    "AESEV": "MODERATE",
    "AETOXGR": 2,
    "ATOXGRN": 2,
    "AESER": "N",
    "AEREL": "RELATED",
    "RELGR1": "Y",
    "RELGR1N": 1,
    "ASTDT": "2013-07-22",
    "AENDT": "2013-08-01",
    "ASTDY": 25,
    "AENDY": 35,
    "ADURN": 11,
    "ADURU": "DAY",
    "TRTEMFL": "Y",
    "AOCCFL": "Y",
    "AOCC01FL": "Y",
    "AGE": 76,
    "AGEGR1": "65-80",
    "SEX": "F",
    "MMSETOT": 14,
    "SAFFL": "Y"
  },
  {
    "STUDYID": "CDISCPILOT01",
    "USUBJID": "01-701-007",
    "AESEQ": 1,
    "TRTP": "Placebo",
    "TRTPN": 0,
    "AETERM": "Cough",
    "AEDECOD": "Cough",
    "AEBODSYS": "Respiratory, thoracic and mediastinal disorders",
    "AECAT": "GENERAL",
    "AESEV": "MILD",
    "AETOXGR": 1,
    "ATOXGRN": 1,
    "AESER": "N",
    "AEREL": "POSSIBLY RELATED",
    "RELGR1": "Y",
    "RELGR1N": 1,
    "ASTDT": "2013-07-21",
    "AENDT": "2013-07-23",
    "ASTDY": 5,
    "AENDY": 7,
    "ADURN": 3,
    "ADURU": "DAY",
    "TRTEMFL": "Y",
    "AOCCFL": "Y",
    "AOCC01FL": "Y",
    "AGE": 65,
    "AGEGR1": "65-80",
    "SEX": "F",
    "MMSETOT": 22,
    "SAFFL": "Y"
  },
  {
    "STUDYID": "CDISCPILOT01",
    "USUBJID": "01-701-008",
    "AESEQ": 2,
    "TRTP": "Xanomeline Low Dose",
    "TRTPN": 1,
    "AETERM": "Application site erythema",
    "AEDECOD": "Application site erythema",
    "AEBODSYS": "General disorders and administration site conditions",
    "AECAT": "APPLICATION SITE",
    "AESEV": "MILD",
    "AETOXGR": 1,
    "ATOXGRN": 1,
    "AESER": "N",
    "AEREL": "RELATED",
    "RELGR1": "Y",
    "RELGR1N": 1,
    "ASTDT": "2013-12-02",
    "AENDT": "2013-12-16",
    "ASTDY": 8,
    "AENDY": 22,
    "ADURN": 15,
    "ADURU": "DAY",
    "TRTEMFL": "Y",
    "AOCCFL": "Y",
    "AOCC01FL": "Y",
    "CQ01NAM": "APPLICATION SITE REACTION",
    "AGE": 76,
    "AGEGR1": "65-80",
    "SEX": "M",
    "MMSETOT": 13,
    "SAFFL": "Y"
  },
  {
    "STUDYID": "CDISCPILOT01",
    "USUBJID": "01-701-008",
    "AESEQ": 1,
    "TRTP": "Xanomeline Low Dose",
    "TRTPN": 1,
    "AETERM": "Application site pruritus",
    "AEDECOD": "Application site pruritus",
    "AEBODSYS": "General disorders and administration site conditions",
    "AECAT": "APPLICATION SITE",
    "AESEV": "MILD",
    "AETOXGR": 1,
    "ATOXGRN": 1,
    "AESER": "N",
    "AEREL": "RELATED",
    "RELGR1": "Y",
    "RELGR1N": 1,
    "ASTDT": "2013-12-11",
    "AENDT": "2013-12-21",
    "ASTDY": 17,
    "AENDY": 27,
    "ADURN": 11,
    "ADURU": "DAY",
    "TRTEMFL": "Y",
    "AOCCFL": "Y",
    "CQ01NAM": "APPLICATION SITE REACTION",
    "AGE": 76,
    "AGEGR1": "65-80",
    "SEX": "M",
    "MMSETOT": 13,
    "SAFFL": "Y"
  },
  {
    "STUDYID": "CDISCPILOT01",
    "USUBJID": "01-701-008",
    "AESEQ": 4,
    "TRTP": "Xanomeline Low Dose",
    "TRTPN": 1,
    "AETERM": "Fatigue",
    "AEDECOD": "Fatigue",
    "AEBODSYS": "General disorders and administration site conditions",
    "AECAT": "GENERAL",
    "AESEV": "MODERATE",
    "AETOXGR": 2,
    "ATOXGRN": 2,
    "AESER": "N",
    "AEREL": "RELATED",
    "RELGR1": "Y",
    "RELGR1N": 1,
    "ASTDT": "2013-11-30",
    "AENDT": "2013-12-16",
    "ASTDY": 6,
    "AENDY": 22,
    "ADURN": 17,
    "ADURU": "DAY",
    "TRTEMFL": "Y",
    "AOCCFL": "Y",
    "AGE": 76,
    "AGEGR1": "65-80",
    "SEX": "M",
    "MMSETOT": 13,
    "SAFFL": "Y"
  },
  {
    "STUDYID": "CDISCPILOT01",
    "USUBJID": "01-701-008",
    "AESEQ": 3,
    "TRTP": "Xanomeline Low Dose",
    "TRTPN": 1,
    "AETERM": "Headache",
    "AEDECOD": "Headache",
    "AEBODSYS": "Nervous system disorders",
    "AECAT": "GENERAL",
    "AESEV": "MODERATE",
    "AETOXGR": 2,
    "ATOXGRN": 2,
    "AESER": "N",
    "AEREL": "NOT RELATED",
    "RELGR1": "N",
    "RELGR1N": 0,
    "ASTDT": "2014-03-05",
    "AENDT": "2014-03-20",
    "ASTDY": 101,
    "AENDY": 116,
    "ADURN": 16,
    "ADURU": "DAY",
    "TRTEMFL": "Y",
    "AOCCFL": "Y",
    "AOCC01FL": "Y",
    "AGE": 76,
    "AGEGR1": "65-80",
    "SEX": "M",
    "MMSETOT": 13,
    "SAFFL": "Y"
  },
  {
    "STUDYID": "CDISCPILOT01",
    "USUBJID": "01-701-010",
    "AESEQ": 2,
    "TRTP": "Xanomeline Low Dose",
    "TRTPN": 1,
    "AETERM": "Application site dermatitis",
    "AEDECOD": "Application site dermatitis",
    "AEBODSYS": "General disorders and administration site conditions",
    "AECAT": "APPLICATION SITE",
    "AESEV": "MODERATE",
    "AETOXGR": 2,
    "ATOXGRN": 2,
    "AESER": "N",
    "AEREL": "RELATED",
    "RELGR1": "Y",
    "RELGR1N": 1,
    "ASTDT": "2013-12-31",
    "AENDT": "2014-01-13",
    "ASTDY": 28,
    "AENDY": 41,
    "ADURN": 14,
    "ADURU": "DAY",
    "TRTEMFL": "Y",
    "AOCCFL": "Y",
    "AOCC01FL": "Y",
    "CQ01NAM": "APPLICATION SITE REACTION",
    "AGE": 59,
    "AGEGR1": "<65",
    "SEX": "M",
    "MMSETOT": 20,
    "SAFFL": "Y"
  },
  {
    "STUDYID": "CDISCPILOT01",
    "USUBJID": "01-701-010",
    "AESEQ": 1,
    "TRTP": "Xanomeline Low Dose",
    "TRTPN": 1,
    "AETERM": "Application site erythema",
    "AEDECOD": "Application site erythema",
    "AEBODSYS": "General disorders and administration site conditions",
    "AECAT": "APPLICATION SITE",
    "AESEV": "MODERATE",
    "AETOXGR": 2,
    "ATOXGRN": 2,
    "AESER": "N",
    "AEREL": "POSSIBLY RELATED",
    "RELGR1": "Y",
    "RELGR1N": 1,
    "ASTDT": "2013-12-10",
    "AENDT": "2013-12-19",
    "ASTDY": 7,
    "AENDY": 16,
    "ADURN": 10,
    "ADURU": "DAY",
    "TRTEMFL": "Y",
    "AOCCFL": "Y",
    "CQ01NAM": "APPLICATION SITE REACTION",
    "AGE": 59,
    "AGEGR1": "<65",
    "SEX": "M",
    "MMSETOT": 20,
    "SAFFL": "Y"
  },
  {
    "STUDYID": "CDISCPILOT01",
    "USUBJID": "01-701-010",
    "AESEQ": 4,
    "TRTP": "Xanomeline Low Dose",
    "TRTPN": 1,
    "AETERM": "Dizziness",
    "AEDECOD": "Dizziness",
    "AEBODSYS": "Nervous system disorders",
    "AECAT": "GENERAL",
    "AESEV": "MODERATE",
    "AETOXGR": 2,
    "ATOXGRN": 2,
    "AESER": "N",
    "AEREL": "POSSIBLY RELATED",
    "RELGR1": "Y",
    "RELGR1N": 1,
    "ASTDT": "2014-02-20",
    "AENDT": "2014-04-01",
    "ASTDY": 79,
    "AENDY": 119,
    "ADURN": 41,
    "ADURU": "DAY",
    "TRTEMFL": "Y",
    "AOCCFL": "Y",
    "AOCC01FL": "Y",
    "AGE": 59,
    "AGEGR1": "<65",
    "SEX": "M",
    "MMSETOT": 20,
    "SAFFL": "Y"
  },
  {
    "STUDYID": "CDISCPILOT01",
    "USUBJID": "01-701-010",
    "AESEQ": 5,
    "TRTP": "Xanomeline Low Dose",
    "TRTPN": 1,
    "AETERM": "Headache",
    "AEDECOD": "Headache",
    "AEBODSYS": "Nervous system disorders",
    "AECAT": "GENERAL",
    "AESEV": "MODERATE",
    "AETOXGR": 2,
    "ATOXGRN": 2,
    "AESER": "N",
    "AEREL": "NOT RELATED",
    "RELGR1": "N",
    "RELGR1N": 0,
    "ASTDT": "2014-01-22",
    "AENDT": "2014-02-04",
    "ASTDY": 50,
    "AENDY": 63,
    "ADURN": 14,
    "ADURU": "DAY",
    "TRTEMFL": "Y",
    "AOCCFL": "Y",
    "AGE": 59,
    "AGEGR1": "<65",
    "SEX": "M",
    "MMSETOT": 20,
    "SAFFL": "Y"
  },
  {
    "STUDYID": "CDISCPILOT01",
    "USUBJID": "01-701-010",
    "AESEQ": 3,
    "TRTP": "Xanomeline Low Dose",
    "TRTPN": 1,
    "AETERM": "Skin irritation",
    "AEDECOD": "Skin irritation",
    "AEBODSYS": "Skin and subcutaneous tissue disorders",
    "AECAT": "GENERAL",
    "AESEV": "MODERATE",
    "AETOXGR": 2,
    "ATOXGRN": 2,
    "AESER": "N",
    "AEREL": "NOT RELATED",
    "RELGR1": "N",
    "RELGR1N": 0,
    "ASTDT": "2014-01-11",
    "AENDT": "2014-02-04",
    "ASTDY": 39,
    "AENDY": 63,
    "ADURN": 25,
    "ADURU": "DAY",
    "TRTEMFL": "Y",
    "AOCCFL": "Y",
    "AOCC01FL": "Y",
    "CQ02NAM": "DERMATOLOGICAL AE",
    "AGE": 59,
    "AGEGR1": "<65",
    "SEX": "M",
    "MMSETOT": 20,
    "SAFFL": "Y"
  },
  {
    "STUDYID": "CDISCPILOT01",
    "USUBJID": "01-701-011",
    "AESEQ": 1,
    "TRTP": "Xanomeline High Dose",
    "TRTPN": 2,
    "AETERM": "Pruritus",
    "AEDECOD": "Pruritus",
    "AEBODSYS": "Skin and subcutaneous tissue disorders",
    "AECAT": "GENERAL",
    "AESEV": "MODERATE",
    "AETOXGR": 2,
    "ATOXGRN": 2,
    "AESER": "N",
    "AEREL": "RELATED",
    "RELGR1": "Y",
    "RELGR1N": 1,
    "ASTDT": "2013-09-24",
    "AENDT": "2013-09-27",
    "ASTDY": 54,
    "AENDY": 57,
    "ADURN": 4,
    "ADURU": "DAY",
    "TRTEMFL": "Y",
    "AOCCFL": "Y",
    "AOCC01FL": "Y",
    "CQ02NAM": "DERMATOLOGICAL AE",
    "AGE": 76,
    "AGEGR1": "65-80",
    "SEX": "F",
    "MMSETOT": 17,
    "SAFFL": "Y"
  },
  {
    "STUDYID": "CDISCPILOT01",
    "USUBJID": "01-701-012",
    "AESEQ": 1,
    "TRTP": "Placebo",
    "TRTPN": 0,
    "AETERM": "Somnolence",
    "AEDECOD": "Somnolence",
    "AEBODSYS": "Nervous system disorders",
    "AECAT": "GENERAL",
    "AESEV": "MILD",
    "AETOXGR": 1,
    "ATOXGRN": 1,
    "AESER": "N",
    "AEREL": "RELATED",
    "RELGR1": "Y",
    "RELGR1N": 1,
    "ASTDT": "2013-04-01",
    "AENDT": "2013-04-14",
    "ASTDY": 23,
    "AENDY": 36,
    "ADURN": 14,
    "ADURU": "DAY",
    "TRTEMFL": "Y",
    "AOCCFL": "Y",
    "AOCC01FL": "Y",
    "AGE": 67,
    "AGEGR1": "65-80",
    "SEX": "M",
    "MMSETOT": 22,
    "SAFFL": "Y"
  },
  {
    "STUDYID": "CDISCPILOT01",
    "USUBJID": "01-701-013",
    "AESEQ": 2,
    "TRTP": "Xanomeline High Dose",
    "TRTPN": 2,
    "AETERM": "Dizziness",
    "AEDECOD": "Dizziness",
    "AEBODSYS": "Nervous system disorders",
    "AECAT": "GENERAL",
    "AESEV": "MODERATE",
    "AETOXGR": 2,
    "ATOXGRN": 2,
    "AESER": "N",
    "AEREL": "NOT RELATED",
    "RELGR1": "N",
    "RELGR1N": 0,
    "ASTDT": "2014-01-07",
    "AENDT": "2014-02-09",
    "ASTDY": 77,
    "AENDY": 110,
    "ADURN": 34,
    "ADURU": "DAY",
    "TRTEMFL": "Y",
    "AOCCFL": "Y",
    "AOCC01FL": "Y",
    "AGE": 79,
    "AGEGR1": "65-80",
    "SEX": "F",
    "MMSETOT": 15,
    "SAFFL": "Y"
  },
  {
    "STUDYID": "CDISCPILOT01",
    "USUBJID": "01-701-013",
    "AESEQ": 3,
    "TRTP": "Xanomeline High Dose",
    "TRTPN": 2,
    "AETERM": "Nasopharyngitis",
    "AEDECOD": "Nasopharyngitis",
    "AEBODSYS": "Infections and infestations",
    "AECAT": "GENERAL",
    "AESEV": "MILD",
    "AETOXGR": 1,
    "ATOXGRN": 1,
    "AESER": "N",
    "AEREL": "RELATED",
    "RELGR1": "Y",
    "RELGR1N": 1,
    "ASTDT": "2013-12-29",
    "AENDT": "2014-01-24",
    "ASTDY": 68,
    "AENDY": 94,
    "ADURN": 27,
    "ADURU": "DAY",
    "TRTEMFL": "Y",
    "AOCCFL": "Y",
    "AOCC01FL": "Y",
    "AGE": 79,
    "AGEGR1": "65-80",
    "SEX": "F",
    "MMSETOT": 15,
    "SAFFL": "Y"
  },
  {
    "STUDYID": "CDISCPILOT01",
    "USUBJID": "01-701-013",
    "AESEQ": 1,
    "TRTP": "Xanomeline High Dose",
    "TRTPN": 2,
    "AETERM": "Pruritus",
    "AEDECOD": "Pruritus",
    "AEBODSYS": "Skin and subcutaneous tissue disorders",
    "AECAT": "GENERAL",
    "AESEV": "MODERATE",
    "AETOXGR": 2,
    "ATOXGRN": 2,
    "AESER": "N",
    "AEREL": "RELATED",
    "RELGR1": "Y",
    "RELGR1N": 1,
    "ASTDT": "2013-11-08",
    "AENDT": "2013-12-02",
    "ASTDY": 17,
    "AENDY": 41,
    "ADURN": 25,
    "ADURU": "DAY",
    "TRTEMFL": "Y",
    "AOCCFL": "Y",
    "AOCC01FL": "Y",
    "CQ02NAM": "DERMATOLOGICAL AE",
    "AGE": 79,
    "AGEGR1": "65-80",
    "SEX": "F",
    "MMSETOT": 15,
    "SAFFL": "Y"
  },
  {
    "STUDYID": "CDISCPILOT01",
    "USUBJID": "01-701-014",
    "AESEQ": 1,
    "TRTP": "Xanomeline Low Dose",
    "TRTPN": 1,
    "AETERM": "Application site dermatitis",
    "AEDECOD": "Application site dermatitis",
    "AEBODSYS": "General disorders and administration site conditions",
    "AECAT": "APPLICATION SITE",
    "AESEV": "MODERATE",
    "AETOXGR": 2,
    "ATOXGRN": 2,
    "AESER": "N",
    "AEREL": "RELATED",
    "RELGR1": "Y",
    "RELGR1N": 1,
    "ASTDT": "2013-12-17",
    "AENDT": "2013-12-31",
    "ASTDY": 9,
    "AENDY": 23,
    "ADURN": 15,
    "ADURU": "DAY",
    "TRTEMFL": "Y",
    "AOCCFL": "Y",
    "AOCC01FL": "Y",
    "CQ01NAM": "APPLICATION SITE REACTION",
    "AGE": 79,
    "AGEGR1": "65-80",
    "SEX": "F",
    "MMSETOT": 16,
    "SAFFL": "Y"
  },
  {
    "STUDYID": "CDISCPILOT01",
    "USUBJID": "01-701-015",
    "AESEQ": 1,
    "TRTP": "Placebo",
    "TRTPN": 0,
    "AETERM": "Nasopharyngitis",
    "AEDECOD": "Nasopharyngitis",
    "AEBODSYS": "Infections and infestations",
    "AECAT": "GENERAL",
    "AESEV": "MODERATE",
    "AETOXGR": 2,
    "ATOXGRN": 2,
    "AESER": "N",
    "AEREL": "NOT RELATED",
    "RELGR1": "N",
    "RELGR1N": 0,
    "ASTDT": "2013-07-20",
    "AENDT": "2013-08-23",
    "ASTDY": 19,
    "AENDY": 53,
    "ADURN": 35,
    "ADURU": "DAY",
    "TRTEMFL": "Y",
    "AOCCFL": "Y",
    "AOCC01FL": "Y",
    "AGE": 80,
    "AGEGR1": ">80",
    "SEX": "M",
    "MMSETOT": 22,
    "SAFFL": "Y"
  },
  {
    "STUDYID": "CDISCPILOT01",
    "USUBJID": "01-701-016",
    "AESEQ": 1,
    "TRTP": "Xanomeline High Dose",
    "TRTPN": 2,
    "AETERM": "Erythema",
    "AEDECOD": "Erythema",
    "AEBODSYS": "Skin and subcutaneous tissue disorders",
    "AECAT": "GENERAL",
    "AESEV": "MODERATE",
    "AETOXGR": 2,
    "ATOXGRN": 2,
    "AESER": "Y",
    "AEREL": "POSSIBLY RELATED",
    "RELGR1": "Y",
    "RELGR1N": 1,
    "ASTDT": "2013-10-01",
    "AENDT": "2013-10-13",
    "ASTDY": 17,
    "AENDY": 29,
    "ADURN": 13,
    "ADURU": "DAY",
    "TRTEMFL": "Y",
    "AOCCFL": "Y",
    "AOCC01FL": "Y",
    "AOCCPFL": "Y",
    "CQ02NAM": "DERMATOLOGICAL AE",
    "AGE": 63,
    "AGEGR1": "<65",
    "SEX": "F",
    "MMSETOT": 14,
    "SAFFL": "Y"
  },
  {
    "STUDYID": "CDISCPILOT01",
    "USUBJID": "01-701-017",
    "AESEQ": 1,
    "TRTP": "Placebo",
    "TRTPN": 0,
    "AETERM": "Erythema",
    "AEDECOD": "Erythema",
    "AEBODSYS": "Skin and subcutaneous tissue disorders",
    "AECAT": "GENERAL",
    "AESEV": "MODERATE",
    "AETOXGR": 2,
    "ATOXGRN": 2,
    "AESER": "N",
    "AEREL": "POSSIBLY RELATED",
    "RELGR1": "Y",
    "RELGR1N": 1,
    "ASTDT": "2013-07-20",
    "AENDT": "2013-07-31",
    "ASTDY": 52,
    "AENDY": 63,
    "ADURN": 12,
    "ADURU": "DAY",
    "TRTEMFL": "Y",
    "AOCCFL": "Y",
    "AOCC01FL": "Y",
    "CQ02NAM": "DERMATOLOGICAL AE",
    "AGE": 71,
    "AGEGR1": "65-80",
    "SEX": "F",
    "MMSETOT": 16,
    "SAFFL": "Y"
  },
  {
    "STUDYID": "CDISCPILOT01",
    "USUBJID": "01-701-018",
    "AESEQ": 2,
    "TRTP": "Placebo",
    "TRTPN": 0,
    "AETERM": "Headache",
    "AEDECOD": "Headache",
    "AEBODSYS": "Nervous system disorders",
    "AECAT": "GENERAL",
    "AESEV": "LIFE-THREATENING",
    "AETOXGR": 4,
    "ATOXGRN": 4,
    "AESER": "Y",
    "AEREL": "POSSIBLY RELATED",
    "RELGR1": "Y",
    "RELGR1N": 1,
    "ASTDT": "2013-06-25",
    "AENDT": "2013-07-05",
    "ASTDY": 72,
    "AENDY": 82,
    "ADURN": 11,
    "ADURU": "DAY",
    "TRTEMFL": "Y",
    "AOCCFL": "Y",
    "AOCC01FL": "Y",
    "AOCCPFL": "Y",
    "AGE": 69,
    "AGEGR1": "65-80",
    "SEX": "F",
    "MMSETOT": 14,
    "SAFFL": "Y"
  },
  {
    "STUDYID": "CDISCPILOT01",
    "USUBJID": "01-701-018",
    "AESEQ": 1,
    "TRTP": "Placebo",
    "TRTPN": 0,
    "AETERM": "Pruritus",
    "AEDECOD": "Pruritus",
    "AEBODSYS": "Skin and subcutaneous tissue disorders",
    "AECAT": "GENERAL",
    "AESEV": "MILD",
    "AETOXGR": 1,
    "ATOXGRN": 1,
    "AESER": "N",
    "AEREL": "POSSIBLY RELATED",
    "RELGR1": "Y",
    "RELGR1N": 1,
    "ASTDT": "2013-07-11",
    "AENDT": "2013-07-20",
    "ASTDY": 88,
    "AENDY": 97,
    "ADURN": 10,
    "ADURU": "DAY",
    "TRTEMFL": "Y",
    "AOCCFL": "Y",
    "AOCC01FL": "Y",
    "CQ02NAM": "DERMATOLOGICAL AE",
    "AGE": 69,
    "AGEGR1": "65-80",
    "SEX": "F",
    "MMSETOT": 14,
    "SAFFL": "Y"
  },
  {
    "STUDYID": "CDISCPILOT01",
    "USUBJID": "01-701-020",
    "AESEQ": 1,
    "TRTP": "Xanomeline Low Dose",
    "TRTPN": 1,
    "AETERM": "Application site pruritus",
    "AEDECOD": "Application site pruritus",
    "AEBODSYS": "General disorders and administration site conditions",
    "AECAT": "APPLICATION SITE",
    "AESEV": "MODERATE",
    "AETOXGR": 2,
    "ATOXGRN": 2,
    "AESER": "N",
    "AEREL": "RELATED",
    "RELGR1": "Y",
    "RELGR1N": 1,
    "ASTDT": "2013-04-13",
    "AENDT": "2013-04-16",
    "ASTDY": 3,
    "AENDY": 6,
    "ADURN": 4,
    "ADURU": "DAY",
    "TRTEMFL": "Y",
    "AOCCFL": "Y",
    "AOCC01FL": "Y",
    "CQ01NAM": "APPLICATION SITE REACTION",
    "AGE": 73,
    "AGEGR1": "65-80",
    "SEX": "F",
    "MMSETOT": 15,
    "SAFFL": "Y"
  },
  {
    "STUDYID": "CDISCPILOT01",
    "USUBJID": "01-701-021",
    "AESEQ": 1,
    "TRTP": "Placebo",
    "TRTPN": 0,
    "AETERM": "Diarrhoea",
    "AEDECOD": "Diarrhoea",
    "AEBODSYS": "Gastrointestinal disorders",
    "AECAT": "GENERAL",
    "AESEV": "MODERATE",
    "AETOXGR": 2,
    "ATOXGRN": 2,
    "AESER": "N",
    "AEREL": "NOT RELATED",
    "RELGR1": "N",
    "RELGR1N": 0,
    "ASTDT": "2013-06-10",
    "AENDT": "2013-06-18",
    "ASTDY": 58,
    "AENDY": 66,
    "ADURN": 9,
    "ADURU": "DAY",
    "TRTEMFL": "Y",
    "AOCCFL": "Y",
    "AOCC01FL": "Y",
    "AGE": 62,
    "AGEGR1": "<65",
    "SEX": "M",
    "MMSETOT": 18,
    "SAFFL": "Y"
  },
  {
    "STUDYID": "CDISCPILOT01",
    "USUBJID": "01-701-022",
    "AESEQ": 1,
    "TRTP": "Xanomeline High Dose",
    "TRTPN": 2,
    "AETERM": "Application site irritation",
    "AEDECOD": "Application site irritation",
    "AEBODSYS": "General disorders and administration site conditions",
    "AECAT": "APPLICATION SITE",
    "AESEV": "MODERATE",
    "AETOXGR": 2,
    "ATOXGRN": 2,
    "AESER": "N",
    "AEREL": "RELATED",
    "RELGR1": "Y",
    "RELGR1N": 1,
    "ASTDT": "2013-10-14",
    "AENDT": "2013-10-20",
    "ASTDY": 14,
    "AENDY": 20,
    "ADURN": 7,
    "ADURU": "DAY",
    "TRTEMFL": "Y",
    "AOCCFL": "Y",
    "AOCC01FL": "Y",
    "CQ01NAM": "APPLICATION SITE REACTION",
    "AGE": 82,
    "AGEGR1": ">80",
    "SEX": "F",
    "MMSETOT": 19,
    "SAFFL": "Y"
  },
  {
    "STUDYID": "CDISCPILOT01",
    "USUBJID": "01-701-022",
    "AESEQ": 2,
    "TRTP": "Xanomeline High Dose",
    "TRTPN": 2,
    "AETERM": "Dizziness",
    "AEDECOD": "Dizziness",
    "AEBODSYS": "Nervous system disorders",
    "AECAT": "GENERAL",
    "AESEV": "MILD",
    "AETOXGR": 1,
    "ATOXGRN": 1,
    "AESER": "N",
    "AEREL": "NOT RELATED",
    "RELGR1": "N",
    "RELGR1N": 0,
    "ASTDT": "2013-11-07",
    "AENDT": "2013-11-13",
    "ASTDY": 38,
    "AENDY": 44,
    "ADURN": 7,
    "ADURU": "DAY",
    "TRTEMFL": "Y",
    "AOCCFL": "Y",
    "AOCC01FL": "Y",
    "AGE": 82,
    "AGEGR1": ">80",
    "SEX": "F",
    "MMSETOT": 19,
    "SAFFL": "Y"
  },
  {
    "STUDYID": "CDISCPILOT01",
    "USUBJID": "01-701-022",
    "AESEQ": 3,
    "TRTP": "Xanomeline High Dose",
    "TRTPN": 2,
    "AETERM": "Nasal congestion",
    "AEDECOD": "Nasal congestion",
    "AEBODSYS": "Respiratory, thoracic and mediastinal disorders",
    "AECAT": "GENERAL",
    "AESEV": "MILD",
    "AETOXGR": 1,
    "ATOXGRN": 1,
    "AESER": "N",
    "AEREL": "POSSIBLY RELATED",
    "RELGR1": "Y",
    "RELGR1N": 1,
    "ASTDT": "2013-12-01",
    "AENDT": "2013-12-24",
    "ASTDY": 62,
    "AENDY": 85,
    "ADURN": 24,
    "ADURU": "DAY",
    "TRTEMFL": "Y",
    "AOCCFL": "Y",
    "AOCC01FL": "Y",
    "AGE": 82,
    "AGEGR1": ">80",
    "SEX": "F",
    "MMSETOT": 19,
    "SAFFL": "Y"
  },
  {
    "STUDYID": "CDISCPILOT01",
    "USUBJID": "01-701-023",
    "AESEQ": 1,
    "TRTP": "Xanomeline High Dose",
    "TRTPN": 2,
    "AETERM": "Application site irritation",
    "AEDECOD": "Application site irritation",
    "AEBODSYS": "General disorders and administration site conditions",
    "AECAT": "APPLICATION SITE",
    "AESEV": "MODERATE",
    "AETOXGR": 2,
    "ATOXGRN": 2,
    "AESER": "N",
    "AEREL": "RELATED",
    "RELGR1": "Y",
    "RELGR1N": 1,
    "ASTDT": "2013-07-29",
    "AENDT": "2013-08-05",
    "ASTDY": 3,
    "AENDY": 10,
    "ADURN": 8,
    "ADURU": "DAY",
    "TRTEMFL": "Y",
    "AOCCFL": "Y",
    "AOCC01FL": "Y",
    "CQ01NAM": "APPLICATION SITE REACTION",
    "AGE": 73,
    "AGEGR1": "65-80",
    "SEX": "M",
    "MMSETOT": 23,
    "SAFFL": "Y"
  },
  {
    "STUDYID": "CDISCPILOT01",
    "USUBJID": "01-701-023",
    "AESEQ": 2,
    "TRTP": "Xanomeline High Dose",
    "TRTPN": 2,
    "AETERM": "Pruritus",
    "AEDECOD": "Pruritus",
    "AEBODSYS": "Skin and subcutaneous tissue disorders",
    "AECAT": "GENERAL",
    "AESEV": "MILD",
    "AETOXGR": 1,
    "ATOXGRN": 1,
    "AESER": "N",
    "AEREL": "RELATED",
    "RELGR1": "Y",
    "RELGR1N": 1,
    "ASTDT": "2013-08-30",
    "AENDT": "2013-09-04",
    "ASTDY": 35,
    "AENDY": 40,
    "ADURN": 6,
    "ADURU": "DAY",
    "TRTEMFL": "Y",
    "AOCCFL": "Y",
    "AOCC01FL": "Y",
    "CQ02NAM": "DERMATOLOGICAL AE",
    "AGE": 73,
    "AGEGR1": "65-80",
    "SEX": "M",
    "MMSETOT": 23,
    "SAFFL": "Y"
  },
  {
    "STUDYID": "CDISCPILOT01",
    "USUBJID": "01-701-024",
    "AESEQ": 1,
    "TRTP": "Placebo",
    "TRTPN": 0,
    "AETERM": "Application site pruritus",
    "AEDECOD": "Application site pruritus",
    "AEBODSYS": "General disorders and administration site conditions",
    "AECAT": "APPLICATION SITE",
    "AESEV": "SEVERE",
    "AETOXGR": 3,
    "ATOXGRN": 3,
    "AESER": "Y",
    "AEREL": "RELATED",
    "RELGR1": "Y",
    "RELGR1N": 1,
    "ASTDT": "2014-01-09",
    "AENDT": "2014-01-16",
    "ASTDY": 20,
    "AENDY": 27,
    "ADURN": 8,
    "ADURU": "DAY",
    "TRTEMFL": "Y",
    "AOCCFL": "Y",
    "AOCC01FL": "Y",
    "AOCCPFL": "Y",
    "CQ01NAM": "APPLICATION SITE REACTION",
    "AGE": 83,
    "AGEGR1": ">80",
    "SEX": "M",
    "MMSETOT": 15,
    "SAFFL": "Y"
  },
  {
    "STUDYID": "CDISCPILOT01",
    "USUBJID": "01-701-024",
    "AESEQ": 2,
    "TRTP": "Placebo",
    "TRTPN": 0,
    "AETERM": "Upper respiratory tract infection",
    "AEDECOD": "Upper respiratory tract infection",
    "AEBODSYS": "Infections and infestations",
    "AECAT": "GENERAL",
    "AESEV": "MODERATE",
    "AETOXGR": 2,
    "ATOXGRN": 2,
    "AESER": "N",
    "AEREL": "POSSIBLY RELATED",
    "RELGR1": "Y",
    "RELGR1N": 1,
    "ASTDT": "2014-02-04",
    "AENDT": "2014-02-26",
    "ASTDY": 46,
    "AENDY": 68,
    "ADURN": 23,
    "ADURU": "DAY",
    "TRTEMFL": "Y",
    "AOCCFL": "Y",
    "AOCC01FL": "Y",
    "AGE": 83,
    "AGEGR1": ">80",
    "SEX": "M",
    "MMSETOT": 15,
    "SAFFL": "Y"
  },
  {
    "STUDYID": "CDISCPILOT01",
    "USUBJID": "01-701-026",
    "AESEQ": 3,
    "TRTP": "Xanomeline Low Dose",
    "TRTPN": 1,
    "AETERM": "Dizziness",
    "AEDECOD": "Dizziness",
    "AEBODSYS": "Nervous system disorders",
    "AECAT": "GENERAL",
    "AESEV": "MODERATE",
    "AETOXGR": 2,
    "ATOXGRN": 2,
    "AESER": "N",
    "AEREL": "NOT RELATED",
    "RELGR1": "N",
    "RELGR1N": 0,
    "ASTDT": "2013-05-11",
    "AENDT": "2013-05-21",
    "ASTDY": 66,
    "AENDY": 76,
    "ADURN": 11,
    "ADURU": "DAY",
    "TRTEMFL": "Y",
    "AOCCFL": "Y",
    "AOCC01FL": "Y",
    "AGE": 84,
    "AGEGR1": ">80",
    "SEX": "F",
    "MMSETOT": 10,
    "SAFFL": "Y"
  },
  {
    "STUDYID": "CDISCPILOT01",
    "USUBJID": "01-701-026",
    "AESEQ": 2,
    "TRTP": "Xanomeline Low Dose",
    "TRTPN": 1,
    "AETERM": "Erythema",
    "AEDECOD": "Erythema",
    "AEBODSYS": "Skin and subcutaneous tissue disorders",
    "AECAT": "GENERAL",
    "AESEV": "MODERATE",
    "AETOXGR": 2,
    "ATOXGRN": 2,
    "AESER": "N",
    "AEREL": "RELATED",
    "RELGR1": "Y",
    "RELGR1N": 1,
    "ASTDT": "2013-03-28",
    "AENDT": "2013-04-06",
    "ASTDY": 22,
    "AENDY": 31,
    "ADURN": 10,
    "ADURU": "DAY",
    "TRTEMFL": "Y",
    "AOCCFL": "Y",
    "AOCC01FL": "Y",
    "CQ02NAM": "DERMATOLOGICAL AE",
    "AGE": 84,
    "AGEGR1": ">80",
    "SEX": "F",
    "MMSETOT": 10,
    "SAFFL": "Y"
  },
  {
    "STUDYID": "CDISCPILOT01",
    "USUBJID": "01-701-026",
    "AESEQ": 1,
    "TRTP": "Xanomeline Low Dose",
    "TRTPN": 1,
    "AETERM": "Pruritus",
    "AEDECOD": "Pruritus",
    "AEBODSYS": "Skin and subcutaneous tissue disorders",
    "AECAT": "GENERAL",
    "AESEV": "MILD",
    "AETOXGR": 1,
    "ATOXGRN": 1,
    "AESER": "N",
    "AEREL": "POSSIBLY RELATED",
    "RELGR1": "Y",
    "RELGR1N": 1,
    "ASTDT": "2013-05-14",
    "AENDT": "2013-05-21",
    "ASTDY": 69,
    "AENDY": 76,
    "ADURN": 8,
    "ADURU": "DAY",
    "TRTEMFL": "Y",
    "AOCCFL": "Y",
    "CQ02NAM": "DERMATOLOGICAL AE",
    "AGE": 84,
    "AGEGR1": ">80",
    "SEX": "F",
    "MMSETOT": 10,
    "SAFFL": "Y"
  },
  {
    "STUDYID": "CDISCPILOT01",
    "USUBJID": "01-701-027",
    "AESEQ": 1,
    "TRTP": "Xanomeline High Dose",
    "TRTPN": 2,
    "AETERM": "Nasopharyngitis",
    "AEDECOD": "Nasopharyngitis",
    "AEBODSYS": "Infections and infestations",
    "AECAT": "GENERAL",
    "AESEV": "MILD",
    "AETOXGR": 1,
    "ATOXGRN": 1,
    "AESER": "N",
    "AEREL": "POSSIBLY RELATED",
    "RELGR1": "Y",
    "RELGR1N": 1,
    "ASTDT": "2014-01-08",
    "AENDT": "2014-02-05",
    "ASTDY": 41,
    "AENDY": 69,
    "ADURN": 29,
    "ADURU": "DAY",
    "TRTEMFL": "Y",
    "AOCCFL": "Y",
    "AOCC01FL": "Y",
    "AGE": 83,
    "AGEGR1": ">80",
    "SEX": "M",
    "MMSETOT": 14,
    "SAFFL": "Y"
  },
  {
    "STUDYID": "CDISCPILOT01",
    "USUBJID": "01-701-028",
    "AESEQ": 1,
    "TRTP": "Xanomeline High Dose",
    "TRTPN": 2,
    "AETERM": "Application site irritation",
    "AEDECOD": "Application site irritation",
    "AEBODSYS": "General disorders and administration site conditions",
    "AECAT": "APPLICATION SITE",
    "AESEV": "MILD",
    "AETOXGR": 1,
    "ATOXGRN": 1,
    "AESER": "N",
    "AEREL": "POSSIBLY RELATED",
    "RELGR1": "Y",
    "RELGR1N": 1,
    "ASTDT": "2013-08-20",
    "AENDT": "2013-09-03",
    "ASTDY": 24,
    "AENDY": 38,
    "ADURN": 15,
    "ADURU": "DAY",
    "TRTEMFL": "Y",
    "AOCCFL": "Y",
    "AOCC01FL": "Y",
    "CQ01NAM": "APPLICATION SITE REACTION",
    "AGE": 68,
    "AGEGR1": "65-80",
    "SEX": "F",
    "MMSETOT": 24,
    "SAFFL": "Y"
  },
  {
    "STUDYID": "CDISCPILOT01",
    "USUBJID": "01-701-028",
    "AESEQ": 4,
    "TRTP": "Xanomeline High Dose",
    "TRTPN": 2,
    "AETERM": "Dizziness",
    "AEDECOD": "Dizziness",
    "AEBODSYS": "Nervous system disorders",
    "AECAT": "GENERAL",
    "AESEV": "MILD",
    "AETOXGR": 1,
    "ATOXGRN": 1,
    "AESER": "N",
    "AEREL": "NOT RELATED",
    "RELGR1": "N",
    "RELGR1N": 0,
    "ASTDT": "2013-08-24",
    "AENDT": "2013-08-24",
    "ASTDY": 28,
    "AENDY": 28,
    "ADURN": 1,
    "ADURU": "DAY",
    "TRTEMFL": "Y",
    "AOCCFL": "Y",
    "AOCC01FL": "Y",
    "AGE": 68,
    "AGEGR1": "65-80",
    "SEX": "F",
    "MMSETOT": 24,
    "SAFFL": "Y"
  },
  {
    "STUDYID": "CDISCPILOT01",
    "USUBJID": "01-701-028",
    "AESEQ": 3,
    "TRTP": "Xanomeline High Dose",
    "TRTPN": 2,
    "AETERM": "Erythema",
    "AEDECOD": "Erythema",
    "AEBODSYS": "Skin and subcutaneous tissue disorders",
    "AECAT": "GENERAL",
    "AESEV": "MILD",
    "AETOXGR": 1,
    "ATOXGRN": 1,
    "AESER": "N",
    "AEREL": "NOT RELATED",
    "RELGR1": "N",
    "RELGR1N": 0,
    "ASTDT": "2013-08-16",
    "AENDT": "2013-09-12",
    "ASTDY": 20,
    "AENDY": 47,
    "ADURN": 28,
    "ADURU": "DAY",
    "TRTEMFL": "Y",
    "AOCCFL": "Y",
    "AOCC01FL": "Y",
    "CQ02NAM": "DERMATOLOGICAL AE",
    "AGE": 68,
    "AGEGR1": "65-80",
    "SEX": "F",
    "MMSETOT": 24,
    "SAFFL": "Y"
  },
  {
    "STUDYID": "CDISCPILOT01",
    "USUBJID": "01-701-028",
    "AESEQ": 5,
    "TRTP": "Xanomeline High Dose",
    "TRTPN": 2,
    "AETERM": "Nausea",
    "AEDECOD": "Nausea",
    "AEBODSYS": "Gastrointestinal disorders",
    "AECAT": "GENERAL",
    "AESEV": "MILD",
    "AETOXGR": 1,
    "ATOXGRN": 1,
    "AESER": "N",
    "AEREL": "POSSIBLY RELATED",
    "RELGR1": "Y",
    "RELGR1N": 1,
    "ASTDT": "2013-08-20",
    "AENDT": "2013-10-08",
    "ASTDY": 24,
    "AENDY": 73,
    "ADURN": 50,
    "ADURU": "DAY",
    "TRTEMFL": "Y",
    "AOCCFL": "Y",
    "AOCC01FL": "Y",
    "AGE": 68,
    "AGEGR1": "65-80",
    "SEX": "F",
    "MMSETOT": 24,
    "SAFFL": "Y"
  },
  {
    "STUDYID": "CDISCPILOT01",
    "USUBJID": "01-701-028",
    "AESEQ": 2,
    "TRTP": "Xanomeline High Dose",
    "TRTPN": 2,
    "AETERM": "Pruritus",
    "AEDECOD": "Pruritus",
    "AEBODSYS": "Skin and subcutaneous tissue disorders",
    "AECAT": "GENERAL",
    "AESEV": "MILD",
    "AETOXGR": 1,
    "ATOXGRN": 1,
    "AESER": "N",
    "AEREL": "POSSIBLY RELATED",
    "RELGR1": "Y",
    "RELGR1N": 1,
    "ASTDT": "2013-08-11",
    "AENDT": "2013-08-25",
    "ASTDY": 15,
    "AENDY": 29,
    "ADURN": 15,
    "ADURU": "DAY",
    "TRTEMFL": "Y",
    "AOCCFL": "Y",
    "CQ02NAM": "DERMATOLOGICAL AE",
    "AGE": 68,
    "AGEGR1": "65-80",
    "SEX": "F",
    "MMSETOT": 24,
    "SAFFL": "Y"
  },
  {
    "STUDYID": "CDISCPILOT01",
    "USUBJID": "01-701-028",
    "AESEQ": 6,
    "TRTP": "Xanomeline High Dose",
    "TRTPN": 2,
    "AETERM": "Sinus bradycardia",
    "AEDECOD": "Sinus bradycardia",
    "AEBODSYS": "Cardiac disorders",
    "AECAT": "GENERAL",
    "AESEV": "MODERATE",
    "AETOXGR": 2,
    "ATOXGRN": 2,
    "AESER": "N",
    "AEREL": "NOT RELATED",
    "RELGR1": "N",
    "RELGR1N": 0,
    "ASTDT": "2013-08-11",
    "AENDT": "2013-08-30",
    "ASTDY": 15,
    "AENDY": 34,
    "ADURN": 20,
    "ADURU": "DAY",
    "TRTEMFL": "Y",
    "AOCCFL": "Y",
    "AOCC01FL": "Y",
    "AGE": 68,
    "AGEGR1": "65-80",
    "SEX": "F",
    "MMSETOT": 24,
    "SAFFL": "Y"
  },
  {
    "STUDYID": "CDISCPILOT01",
    "USUBJID": "01-701-029",
    "AESEQ": 1,
    "TRTP": "Xanomeline High Dose",
    "TRTPN": 2,
    "AETERM": "Upper respiratory tract infection",
    "AEDECOD": "Upper respiratory tract infection",
    "AEBODSYS": "Infections and infestations",
    "AECAT": "GENERAL",
    "AESEV": "MODERATE",
    "AETOXGR": 2,
    "ATOXGRN": 2,
    "AESER": "N",
    "AEREL": "RELATED",
    "RELGR1": "Y",
    "RELGR1N": 1,
    "ASTDT": "2013-12-03",
    "AENDT": "2013-12-19",
    "ASTDY": 35,
    "AENDY": 51,
    "ADURN": 17,
    "ADURU": "DAY",
    "TRTEMFL": "Y",
    "AOCCFL": "Y",
    "AOCC01FL": "Y",
    "AGE": 74,
    "AGEGR1": "65-80",
    "SEX": "F",
    "MMSETOT": 19,
    "SAFFL": "Y"
  },
  {
    "STUDYID": "CDISCPILOT01",
    "USUBJID": "01-701-030",
    "AESEQ": 3,
    "TRTP": "Xanomeline Low Dose",
    "TRTPN": 1,
    "AETERM": "Confusional state",
    "AEDECOD": "Confusional state",
    "AEBODSYS": "Psychiatric disorders",
    "AECAT": "GENERAL",
    "AESEV": "MILD",
    "AETOXGR": 1,
    "ATOXGRN": 1,
    "AESER": "N",
    "AEREL": "RELATED",
    "RELGR1": "Y",
    "RELGR1N": 1,
    "ASTDT": "2013-07-27",
    "AENDT": "2013-08-09",
    "ASTDY": 27,
    "AENDY": 40,
    "ADURN": 14,
    "ADURU": "DAY",
    "TRTEMFL": "Y",
    "AOCCFL": "Y",
    "AOCC01FL": "Y",
    "AGE": 72,
    "AGEGR1": "65-80",
    "SEX": "F",
    "MMSETOT": 14,
    "SAFFL": "Y"
  },
  {
    "STUDYID": "CDISCPILOT01",
    "USUBJID": "01-701-030",
    "AESEQ": 1,
    "TRTP": "Xanomeline Low Dose",
    "TRTPN": 1,
    "AETERM": "Headache",
    "AEDECOD": "Headache",
    "AEBODSYS": "Nervous system disorders",
    "AECAT": "GENERAL",
    "AESEV": "MODERATE",
    "AETOXGR": 2,
    "ATOXGRN": 2,
    "AESER": "N",
    "AEREL": "NOT RELATED",
    "RELGR1": "N",
    "RELGR1N": 0,
    "ASTDT": "2013-08-07",
    "AENDT": "2013-08-18",
    "ASTDY": 38,
    "AENDY": 49,
    "ADURN": 12,
    "ADURU": "DAY",
    "TRTEMFL": "Y",
    "AOCCFL": "Y",
    "AOCC01FL": "Y",
    "AGE": 72,
    "AGEGR1": "65-80",
    "SEX": "F",
    "MMSETOT": 14,
    "SAFFL": "Y"
  },
  {
    "STUDYID": "CDISCPILOT01",
    "USUBJID": "01-701-030",
    "AESEQ": 2,
    "TRTP": "Xanomeline Low Dose",
    "TRTPN": 1,
    "AETERM": "Sinus bradycardia",
    "AEDECOD": "Sinus bradycardia",
    "AEBODSYS": "Cardiac disorders",
    "AECAT": "GENERAL",
    "AESEV": "MODERATE",
    "AETOXGR": 2,
    "ATOXGRN": 2,
    "AESER": "N",
    "AEREL": "RELATED",
    "RELGR1": "Y",
    "RELGR1N": 1,
    "ASTDT": "2013-07-07",
    "AENDT": "2013-07-22",
    "ASTDY": 7,
    "AENDY": 22,
    "ADURN": 16,
    "ADURU": "DAY",
    "TRTEMFL": "Y",
    "AOCCFL": "Y",
    "AOCC01FL": "Y",
    "AGE": 72,
    "AGEGR1": "65-80",
    "SEX": "F",
    "MMSETOT": 14,
    "SAFFL": "Y"
  },
  {
    "STUDYID": "CDISCPILOT01",
    "USUBJID": "01-701-031",
    "AESEQ": 1,
    "TRTP": "Xanomeline High Dose",
    "TRTPN": 2,
    "AETERM": "Nausea",
    "AEDECOD": "Nausea",
    "AEBODSYS": "Gastrointestinal disorders",
    "AECAT": "GENERAL",
    "AESEV": "MODERATE",
    "AETOXGR": 2,
    "ATOXGRN": 2,
    "AESER": "N",
    "AEREL": "POSSIBLY RELATED",
    "RELGR1": "Y",
    "RELGR1N": 1,
    "ASTDT": "2013-10-14",
    "AENDT": "2013-11-03",
    "ASTDY": 28,
    "AENDY": 48,
    "ADURN": 21,
    "ADURU": "DAY",
    "TRTEMFL": "Y",
    "AOCCFL": "Y",
    "AOCC01FL": "Y",
    "AGE": 79,
    "AGEGR1": "65-80",
    "SEX": "F",
    "MMSETOT": 23,
    "SAFFL": "Y"
  },
  {
    "STUDYID": "CDISCPILOT01",
    "USUBJID": "01-701-034",
    "AESEQ": 1,
    "TRTP": "Xanomeline Low Dose",
    "TRTPN": 1,
    "AETERM": "Hyperhidrosis",
    "AEDECOD": "Hyperhidrosis",
    "AEBODSYS": "Skin and subcutaneous tissue disorders",
    "AECAT": "GENERAL",
    "AESEV": "MODERATE",
    "AETOXGR": 2,
    "ATOXGRN": 2,
    "AESER": "N",
    "AEREL": "RELATED",
    "RELGR1": "Y",
    "RELGR1N": 1,
    "ASTDT": "2013-09-11",
    "AENDT": "2013-10-28",
    "ASTDY": 27,
    "AENDY": 74,
    "ADURN": 48,
    "ADURU": "DAY",
    "TRTEMFL": "Y",
    "AOCCFL": "Y",
    "AOCC01FL": "Y",
    "CQ02NAM": "DERMATOLOGICAL AE",
    "AGE": 83,
    "AGEGR1": ">80",
    "SEX": "F",
    "MMSETOT": 15,
    "SAFFL": "Y"
  },
  {
    "STUDYID": "CDISCPILOT01",
    "USUBJID": "01-701-034",
    "AESEQ": 2,
    "TRTP": "Xanomeline Low Dose",
    "TRTPN": 1,
    "AETERM": "Myocardial infarction",
    "AEDECOD": "Myocardial infarction",
    "AEBODSYS": "Cardiac disorders",
    "AECAT": "GENERAL",
    "AESEV": "MODERATE",
    "AETOXGR": 2,
    "ATOXGRN": 2,
    "AESER": "N",
    "AEREL": "NOT RELATED",
    "RELGR1": "N",
    "RELGR1N": 0,
    "ASTDT": "2013-09-11",
    "AENDT": "2013-10-24",
    "ASTDY": 27,
    "AENDY": 70,
    "ADURN": 44,
    "ADURU": "DAY",
    "TRTEMFL": "Y",
    "AOCCFL": "Y",
    "AOCC01FL": "Y",
    "AGE": 83,
    "AGEGR1": ">80",
    "SEX": "F",
    "MMSETOT": 15,
    "SAFFL": "Y"
  },
  {
    "STUDYID": "CDISCPILOT01",
    "USUBJID": "01-701-035",
    "AESEQ": 3,
    "TRTP": "Xanomeline High Dose",
    "TRTPN": 2,
    "AETERM": "Cough",
    "AEDECOD": "Cough",
    "AEBODSYS": "Respiratory, thoracic and mediastinal disorders",
    "AECAT": "GENERAL",
    "AESEV": "MILD",
    "AETOXGR": 1,
    "ATOXGRN": 1,
    "AESER": "N",
    "AEREL": "RELATED",
    "RELGR1": "Y",
    "RELGR1N": 1,
    "ASTDT": "2013-06-13",
    "AENDT": "2013-07-01",
    "ASTDY": 49,
    "AENDY": 67,
    "ADURN": 19,
    "ADURU": "DAY",
    "TRTEMFL": "Y",
    "AOCCFL": "Y",
    "AOCC01FL": "Y",
    "AGE": 79,
    "AGEGR1": "65-80",
    "SEX": "F",
    "MMSETOT": 12,
    "SAFFL": "Y"
  },
  {
    "STUDYID": "CDISCPILOT01",
    "USUBJID": "01-701-035",
    "AESEQ": 4,
    "TRTP": "Xanomeline High Dose",
    "TRTPN": 2,
    "AETERM": "Fatigue",
    "AEDECOD": "Fatigue",
    "AEBODSYS": "General disorders and administration site conditions",
    "AECAT": "GENERAL",
    "AESEV": "MILD",
    "AETOXGR": 1,
    "ATOXGRN": 1,
    "AESER": "N",
    "AEREL": "RELATED",
    "RELGR1": "Y",
    "RELGR1N": 1,
    "ASTDT": "2013-06-01",
    "AENDT": "2013-07-01",
    "ASTDY": 37,
    "AENDY": 67,
    "ADURN": 31,
    "ADURU": "DAY",
    "TRTEMFL": "Y",
    "AOCCFL": "Y",
    "AOCC01FL": "Y",
    "AGE": 79,
    "AGEGR1": "65-80",
    "SEX": "F",
    "MMSETOT": 12,
    "SAFFL": "Y"
  },
  {
    "STUDYID": "CDISCPILOT01",
    "USUBJID": "01-701-035",
    "AESEQ": 1,
    "TRTP": "Xanomeline High Dose",
    "TRTPN": 2,
    "AETERM": "Rash",
    "AEDECOD": "Rash",
    "AEBODSYS": "Skin and subcutaneous tissue disorders",
    "AECAT": "GENERAL",
    "AESEV": "MODERATE",
    "AETOXGR": 2,
    "ATOXGRN": 2,
    "AESER": "N",
    "AEREL": "RELATED",
    "RELGR1": "Y",
    "RELGR1N": 1,
    "ASTDT": "2013-06-13",
    "AENDT": "2013-06-26",
    "ASTDY": 49,
    "AENDY": 62,
    "ADURN": 14,
    "ADURU": "DAY",
    "TRTEMFL": "Y",
    "AOCCFL": "Y",
    "AOCC01FL": "Y",
    "CQ02NAM": "DERMATOLOGICAL AE",
    "AGE": 79,
    "AGEGR1": "65-80",
    "SEX": "F",
    "MMSETOT": 12,
    "SAFFL": "Y"
  },
  {
    "STUDYID": "CDISCPILOT01",
    "USUBJID": "01-701-035",
    "AESEQ": 2,
    "TRTP": "Xanomeline High Dose",
    "TRTPN": 2,
    "AETERM": "Sinus bradycardia",
    "AEDECOD": "Sinus bradycardia",
    "AEBODSYS": "Cardiac disorders",
    "AECAT": "GENERAL",
    "AESEV": "SEVERE",
    "AETOXGR": 3,
    "ATOXGRN": 3,
    "AESER": "Y",
    "AEREL": "POSSIBLY RELATED",
    "RELGR1": "Y",
    "RELGR1N": 1,
    "ASTDT": "2013-06-04",
    "AENDT": "2013-06-25",
    "ASTDY": 40,
    "AENDY": 61,
    "ADURN": 22,
    "ADURU": "DAY",
    "TRTEMFL": "Y",
    "AOCCFL": "Y",
    "AOCC01FL": "Y",
    "AOCCPFL": "Y",
    "AGE": 79,
    "AGEGR1": "65-80",
    "SEX": "F",
    "MMSETOT": 12,
    "SAFFL": "Y"
  },
  {
    "STUDYID": "CDISCPILOT01",
    "USUBJID": "01-701-036",
    "AESEQ": 1,
    "TRTP": "Xanomeline Low Dose",
    "TRTPN": 1,
    "AETERM": "Application site erythema",
    "AEDECOD": "Application site erythema",
    "AEBODSYS": "General disorders and administration site conditions",
    "AECAT": "APPLICATION SITE",
    "AESEV": "MILD",
    "AETOXGR": 1,
    "ATOXGRN": 1,
    "AESER": "N",
    "AEREL": "RELATED",
    "RELGR1": "Y",
    "RELGR1N": 1,
    "ASTDT": "2013-08-29",
    "AENDT": "2013-09-04",
    "ASTDY": 13,
    "AENDY": 19,
    "ADURN": 7,
    "ADURU": "DAY",
    "TRTEMFL": "Y",
    "AOCCFL": "Y",
    "AOCC01FL": "Y",
    "CQ01NAM": "APPLICATION SITE REACTION",
    "AGE": 76,
    "AGEGR1": "65-80",
    "SEX": "F",
    "MMSETOT": 21,
    "SAFFL": "Y"
  },
  {
    "STUDYID": "CDISCPILOT01",
    "USUBJID": "01-701-037",
    "AESEQ": 1,
    "TRTP": "Xanomeline Low Dose",
    "TRTPN": 1,
    "AETERM": "Application site erythema",
    "AEDECOD": "Application site erythema",
    "AEBODSYS": "General disorders and administration site conditions",
    "AECAT": "APPLICATION SITE",
    "AESEV": "MODERATE",
    "AETOXGR": 2,
    "ATOXGRN": 2,
    "AESER": "N",
    "AEREL": "RELATED",
    "RELGR1": "Y",
    "RELGR1N": 1,
    "ASTDT": "2013-01-22",
    "AENDT": "2013-01-25",
    "ASTDY": 17,
    "AENDY": 20,
    "ADURN": 4,
    "ADURU": "DAY",
    "TRTEMFL": "Y",
    "AOCCFL": "Y",
    "AOCC01FL": "Y",
    "CQ01NAM": "APPLICATION SITE REACTION",
    "AGE": 70,
    "AGEGR1": "65-80",
    "SEX": "M",
    "MMSETOT": 24,
    "SAFFL": "Y"
  },
  {
    "STUDYID": "CDISCPILOT01",
    "USUBJID": "01-701-037",
    "AESEQ": 2,
    "TRTP": "Xanomeline Low Dose",
    "TRTPN": 1,
    "AETERM": "Sinus bradycardia",
    "AEDECOD": "Sinus bradycardia",
    "AEBODSYS": "Cardiac disorders",
    "AECAT": "GENERAL",
    "AESEV": "MILD",
    "AETOXGR": 1,
    "ATOXGRN": 1,
    "AESER": "N",
    "AEREL": "POSSIBLY RELATED",
    "RELGR1": "Y",
    "RELGR1N": 1,
    "ASTDT": "2013-02-28",
    "AENDT": "2013-03-17",
    "ASTDY": 54,
    "AENDY": 71,
    "ADURN": 18,
    "ADURU": "DAY",
    "TRTEMFL": "Y",
    "AOCCFL": "Y",
    "AOCC01FL": "Y",
    "AGE": 70,
    "AGEGR1": "65-80",
    "SEX": "M",
    "MMSETOT": 24,
    "SAFFL": "Y"
  },
  {
    "STUDYID": "CDISCPILOT01",
    "USUBJID": "01-701-038",
    "AESEQ": 1,
    "TRTP": "Xanomeline High Dose",
    "TRTPN": 2,
    "AETERM": "Application site erythema",
    "AEDECOD": "Application site erythema",
    "AEBODSYS": "General disorders and administration site conditions",
    "AECAT": "APPLICATION SITE",
    "AESEV": "MODERATE",
    "AETOXGR": 2,
    "ATOXGRN": 2,
    "AESER": "N",
    "AEREL": "RELATED",
    "RELGR1": "Y",
    "RELGR1N": 1,
    "ASTDT": "2013-06-27",
    "AENDT": "2013-06-30",
    "ASTDY": 13,
    "AENDY": 16,
    "ADURN": 4,
    "ADURU": "DAY",
    "TRTEMFL": "Y",
    "AOCCFL": "Y",
    "AOCC01FL": "Y",
    "CQ01NAM": "APPLICATION SITE REACTION",
    "AGE": 68,
    "AGEGR1": "65-80",
    "SEX": "M",
    "MMSETOT": 20,
    "SAFFL": "Y"
  },
  {
    "STUDYID": "CDISCPILOT01",
    "USUBJID": "01-701-040",
    "AESEQ": 1,
    "TRTP": "Xanomeline Low Dose",
    "TRTPN": 1,
    "AETERM": "Pruritus",
    "AEDECOD": "Pruritus",
    "AEBODSYS": "Skin and subcutaneous tissue disorders",
    "AECAT": "GENERAL",
    "AESEV": "SEVERE",
    "AETOXGR": 3,
    "ATOXGRN": 3,
    "AESER": "Y",
    "AEREL": "NOT RELATED",
    "RELGR1": "N",
    "RELGR1N": 0,
    "ASTDT": "2013-10-30",
    "AENDT": "2013-11-19",
    "ASTDY": 27,
    "AENDY": 47,
    "ADURN": 21,
    "ADURU": "DAY",
    "TRTEMFL": "Y",
    "AOCCFL": "Y",
    "AOCC01FL": "Y",
    "AOCCPFL": "Y",
    "CQ02NAM": "DERMATOLOGICAL AE",
    "AGE": 82,
    "AGEGR1": ">80",
    "SEX": "F",
    "MMSETOT": 17,
    "SAFFL": "Y"
  },
  {
    "STUDYID": "CDISCPILOT01",
    "USUBJID": "01-701-041",
    "AESEQ": 1,
    "TRTP": "Xanomeline High Dose",
    "TRTPN": 2,
    "AETERM": "Application site pruritus",
    "AEDECOD": "Application site pruritus",
    "AEBODSYS": "General disorders and administration site conditions",
    "AECAT": "APPLICATION SITE",
    "AESEV": "MILD",
    "AETOXGR": 1,
    "ATOXGRN": 1,
    "AESER": "N",
    "AEREL": "RELATED",
    "RELGR1": "Y",
    "RELGR1N": 1,
    "ASTDT": "2013-11-19",
    "AENDT": "2013-11-23",
    "ASTDY": 13,
    "AENDY": 17,
    "ADURN": 5,
    "ADURU": "DAY",
    "TRTEMFL": "Y",
    "AOCCFL": "Y",
    "AOCC01FL": "Y",
    "CQ01NAM": "APPLICATION SITE REACTION",
    "AGE": 64,
    "AGEGR1": "<65",
    "SEX": "M",
    "MMSETOT": 14,
    "SAFFL": "Y"
  },
  {
    "STUDYID": "CDISCPILOT01",
    "USUBJID": "01-701-041",
    "AESEQ": 2,
    "TRTP": "Xanomeline High Dose",
    "TRTPN": 2,
    "AETERM": "Application site vesicles",
    "AEDECOD": "Application site vesicles",
    "AEBODSYS": "General disorders and administration site conditions",
    "AECAT": "APPLICATION SITE",
    "AESEV": "MILD",
    "AETOXGR": 1,
    "ATOXGRN": 1,
    "AESER": "N",
    "AEREL": "RELATED",
    "RELGR1": "Y",
    "RELGR1N": 1,
    "ASTDT": "2013-11-15",
    "AENDT": "2013-12-05",
    "ASTDY": 9,
    "AENDY": 29,
    "ADURN": 21,
    "ADURU": "DAY",
    "TRTEMFL": "Y",
    "AOCCFL": "Y",
    "CQ01NAM": "APPLICATION SITE REACTION",
    "AGE": 64,
    "AGEGR1": "<65",
    "SEX": "M",
    "MMSETOT": 14,
    "SAFFL": "Y"
  },
  {
    "STUDYID": "CDISCPILOT01",
    "USUBJID": "01-701-042",
    "AESEQ": 1,
    "TRTP": "Placebo",
    "TRTPN": 0,
    "AETERM": "Application site pruritus",
    "AEDECOD": "Application site pruritus",
    "AEBODSYS": "General disorders and administration site conditions",
    "AECAT": "APPLICATION SITE",
    "AESEV": "MODERATE",
    "AETOXGR": 2,
    "ATOXGRN": 2,
    "AESER": "N",
    "AEREL": "RELATED",
    "RELGR1": "Y",
    "RELGR1N": 1,
    "ASTDT": "2013-09-13",
    "AENDT": "2013-09-15",
    "ASTDY": 10,
    "AENDY": 12,
    "ADURN": 3,
    "ADURU": "DAY",
    "TRTEMFL": "Y",
    "AOCCFL": "Y",
    "AOCC01FL": "Y",
    "CQ01NAM": "APPLICATION SITE REACTION",
    "AGE": 72,
    "AGEGR1": "65-80",
    "SEX": "M",
    "MMSETOT": 13,
    "SAFFL": "Y"
  },
  {
    "STUDYID": "CDISCPILOT01",
    "USUBJID": "01-701-042",
    "AESEQ": 2,
    "TRTP": "Placebo",
    "TRTPN": 0,
    "AETERM": "Somnolence",
    "AEDECOD": "Somnolence",
    "AEBODSYS": "Nervous system disorders",
    "AECAT": "GENERAL",
    "AESEV": "MODERATE",
    "AETOXGR": 2,
    "ATOXGRN": 2,
    "AESER": "N",
    "AEREL": "RELATED",
    "RELGR1": "Y",
    "RELGR1N": 1,
    "ASTDT": "2013-09-18",
    "AENDT": "2013-10-13",
    "ASTDY": 15,
    "AENDY": 40,
    "ADURN": 26,
    "ADURU": "DAY",
    "TRTEMFL": "Y",
    "AOCCFL": "Y",
    "AOCC01FL": "Y",
    "AGE": 72,
    "AGEGR1": "65-80",
    "SEX": "M",
    "MMSETOT": 13,
    "SAFFL": "Y"
  },
  {
    "STUDYID": "CDISCPILOT01",
    "USUBJID": "01-703-001",
    "AESEQ": 1,
    "TRTP": "Placebo",
    "TRTPN": 0,
    "AETERM": "Application site vesicles",
    "AEDECOD": "Application site vesicles",
    "AEBODSYS": "General disorders and administration site conditions",
    "AECAT": "APPLICATION SITE",
    "AESEV": "MODERATE",
    "AETOXGR": 2,
    "ATOXGRN": 2,
    "AESER": "N",
    "AEREL": "POSSIBLY RELATED",
    "RELGR1": "Y",
    "RELGR1N": 1,
    "ASTDT": "2013-01-28",
    "AENDT": "2013-02-19",
    "ASTDY": 16,
    "AENDY": 38,
    "ADURN": 23,
    "ADURU": "DAY",
    "TRTEMFL": "Y",
    "AOCCFL": "Y",
    "AOCC01FL": "Y",
    "CQ01NAM": "APPLICATION SITE REACTION",
    "AGE": 70,
    "AGEGR1": "65-80",
    "SEX": "M",
    "MMSETOT": 21,
    "SAFFL": "Y"
  },
  {
    "STUDYID": "CDISCPILOT01",
    "USUBJID": "01-703-002",
    "AESEQ": 1,
    "TRTP": "Xanomeline High Dose",
    "TRTPN": 2,
    "AETERM": "Headache",
    "AEDECOD": "Headache",
    "AEBODSYS": "Nervous system disorders",
    "AECAT": "GENERAL",
    "AESEV": "MODERATE",
    "AETOXGR": 2,
    "ATOXGRN": 2,
    "AESER": "N",
    "AEREL": "NOT RELATED",
    "RELGR1": "N",
    "RELGR1N": 0,
    "ASTDT": "2013-03-08",
    "AENDT": "2013-04-21",
    "ASTDY": 33,
    "AENDY": 77,
    "ADURN": 45,
    "ADURU": "DAY",
    "TRTEMFL": "Y",
    "AOCCFL": "Y",
    "AOCC01FL": "Y",
    "AGE": 72,
    "AGEGR1": "65-80",
    "SEX": "F",
    "MMSETOT": 20,
    "SAFFL": "Y"
  },
  {
    "STUDYID": "CDISCPILOT01",
    "USUBJID": "01-703-003",
    "AESEQ": 1,
    "TRTP": "Xanomeline High Dose",
    "TRTPN": 2,
    "AETERM": "Application site irritation",
    "AEDECOD": "Application site irritation",
    "AEBODSYS": "General disorders and administration site conditions",
    "AECAT": "APPLICATION SITE",
    "AESEV": "MILD",
    "AETOXGR": 1,
    "ATOXGRN": 1,
    "AESER": "N",
    "AEREL": "RELATED",
    "RELGR1": "Y",
    "RELGR1N": 1,
    "ASTDT": "2013-08-27",
    "AENDT": "2013-09-20",
    "ASTDY": 15,
    "AENDY": 39,
    "ADURN": 25,
    "ADURU": "DAY",
    "TRTEMFL": "Y",
    "AOCCFL": "Y",
    "AOCC01FL": "Y",
    "CQ01NAM": "APPLICATION SITE REACTION",
    "AGE": 78,
    "AGEGR1": "65-80",
    "SEX": "F",
    "MMSETOT": 24,
    "SAFFL": "Y"
  },
  {
    "STUDYID": "CDISCPILOT01",
    "USUBJID": "01-703-003",
    "AESEQ": 2,
    "TRTP": "Xanomeline High Dose",
    "TRTPN": 2,
    "AETERM": "Syncope",
    "AEDECOD": "Syncope",
    "AEBODSYS": "Nervous system disorders",
    "AECAT": "GENERAL",
    "AESEV": "MODERATE",
    "AETOXGR": 2,
    "ATOXGRN": 2,
    "AESER": "N",
    "AEREL": "RELATED",
    "RELGR1": "Y",
    "RELGR1N": 1,
    "ASTDT": "2013-10-25",
    "AENDT": "2013-11-20",
    "ASTDY": 74,
    "AENDY": 100,
    "ADURN": 27,
    "ADURU": "DAY",
    "TRTEMFL": "Y",
    "AOCCFL": "Y",
    "AOCC01FL": "Y",
    "AGE": 78,
    "AGEGR1": "65-80",
    "SEX": "F",
    "MMSETOT": 24,
    "SAFFL": "Y"
  },
  {
    "STUDYID": "CDISCPILOT01",
    "USUBJID": "01-703-004",
    "AESEQ": 1,
    "TRTP": "Placebo",
    "TRTPN": 0,
    "AETERM": "Application site erythema",
    "AEDECOD": "Application site erythema",
    "AEBODSYS": "General disorders and administration site conditions",
    "AECAT": "APPLICATION SITE",
    "AESEV": "MODERATE",
    "AETOXGR": 2,
    "ATOXGRN": 2,
    "AESER": "N",
    "AEREL": "RELATED",
    "RELGR1": "Y",
    "RELGR1N": 1,
    "ASTDT": "2013-08-08",
    "AENDT": "2013-08-10",
    "ASTDY": 9,
    "AENDY": 11,
    "ADURN": 3,
    "ADURU": "DAY",
    "TRTEMFL": "Y",
    "AOCCFL": "Y",
    "AOCC01FL": "Y",
    "CQ01NAM": "APPLICATION SITE REACTION",
    "AGE": 75,
    "AGEGR1": "65-80",
    "SEX": "F",
    "MMSETOT": 15,
    "SAFFL": "Y"
  },
  {
    "STUDYID": "CDISCPILOT01",
    "USUBJID": "01-703-004",
    "AESEQ": 3,
    "TRTP": "Placebo",
    "TRTPN": 0,
    "AETERM": "Diarrhoea",
    "AEDECOD": "Diarrhoea",
    "AEBODSYS": "Gastrointestinal disorders",
    "AECAT": "GENERAL",
    "AESEV": "MODERATE",
    "AETOXGR": 2,
    "ATOXGRN": 2,
    "AESER": "N",
    "AEREL": "NOT RELATED",
    "RELGR1": "N",
    "RELGR1N": 0,
    "ASTDT": "2013-08-14",
    "AENDT": "2013-08-25",
    "ASTDY": 15,
    "AENDY": 26,
    "ADURN": 12,
    "ADURU": "DAY",
    "TRTEMFL": "Y",
    "AOCCFL": "Y",
    "AOCC01FL": "Y",
    "AGE": 75,
    "AGEGR1": "65-80",
    "SEX": "F",
    "MMSETOT": 15,
    "SAFFL": "Y"
  },
  {
    "STUDYID": "CDISCPILOT01",
    "USUBJID": "01-703-004",
    "AESEQ": 2,
    "TRTP": "Placebo",
    "TRTPN": 0,
    "AETERM": "Erythema",
    "AEDECOD": "Erythema",
    "AEBODSYS": "Skin and subcutaneous tissue disorders",
    "AECAT": "GENERAL",
    "AESEV": "MILD",
    "AETOXGR": 1,
    "ATOXGRN": 1,
    "AESER": "N",
    "AEREL": "POSSIBLY RELATED",
    "RELGR1": "Y",
    "RELGR1N": 1,
    "ASTDT": "2013-09-29",
    "AENDT": "2013-11-01",
    "ASTDY": 61,
    "AENDY": 94,
    "ADURN": 34,
    "ADURU": "DAY",
    "TRTEMFL": "Y",
    "AOCCFL": "Y",
    "AOCC01FL": "Y",
    "CQ02NAM": "DERMATOLOGICAL AE",
    "AGE": 75,
    "AGEGR1": "65-80",
    "SEX": "F",
    "MMSETOT": 15,
    "SAFFL": "Y"
  },
  {
    "STUDYID": "CDISCPILOT01",
    "USUBJID": "01-703-004",
    "AESEQ": 4,
    "TRTP": "Placebo",
    "TRTPN": 0,
    "AETERM": "Nasopharyngitis",
    "AEDECOD": "Nasopharyngitis",
    "AEBODSYS": "Infections and infestations",
    "AECAT": "GENERAL",
    "AESEV": "MILD",
    "AETOXGR": 1,
    "ATOXGRN": 1,
    "AESER": "N",
    "AEREL": "POSSIBLY RELATED",
    "RELGR1": "Y",
    "RELGR1N": 1,
    "ASTDT": "2013-10-24",
    "AENDT": "2013-12-05",
    "ASTDY": 86,
    "AENDY": 128,
    "ADURN": 43,
    "ADURU": "DAY",
    "TRTEMFL": "Y",
    "AOCCFL": "Y",
    "AOCC01FL": "Y",
    "AGE": 75,
    "AGEGR1": "65-80",
    "SEX": "F",
    "MMSETOT": 15,
    "SAFFL": "Y"
  },
  {
    "STUDYID": "CDISCPILOT01",
    "USUBJID": "01-703-008",
    "AESEQ": 1,
    "TRTP": "Xanomeline Low Dose",
    "TRTPN": 1,
    "AETERM": "Erythema",
    "AEDECOD": "Erythema",
    "AEBODSYS": "Skin and subcutaneous tissue disorders",
    "AECAT": "GENERAL",
    "AESEV": "MODERATE",
    "AETOXGR": 2,
    "ATOXGRN": 2,
    "AESER": "N",
    "AEREL": "NOT RELATED",
    "RELGR1": "N",
    "RELGR1N": 0,
    "ASTDT": "2014-02-13",
    "AENDT": "2014-03-09",
    "ASTDY": 43,
    "AENDY": 67,
    "ADURN": 25,
    "ADURU": "DAY",
    "TRTEMFL": "Y",
    "AOCCFL": "Y",
    "AOCC01FL": "Y",
    "CQ02NAM": "DERMATOLOGICAL AE",
    "AGE": 54,
    "AGEGR1": "<65",
    "SEX": "F",
    "MMSETOT": 13,
    "SAFFL": "Y"
  },
  {
    "STUDYID": "CDISCPILOT01",
    "USUBJID": "01-703-011",
    "AESEQ": 1,
    "TRTP": "Xanomeline High Dose",
    "TRTPN": 2,
    "AETERM": "Diarrhoea",
    "AEDECOD": "Diarrhoea",
    "AEBODSYS": "Gastrointestinal disorders",
    "AECAT": "GENERAL",
    "AESEV": "MODERATE",
    "AETOXGR": 2,
    "ATOXGRN": 2,
    "AESER": "N",
    "AEREL": "POSSIBLY RELATED",
    "RELGR1": "Y",
    "RELGR1N": 1,
    "ASTDT": "2014-01-07",
    "AENDT": "2014-01-15",
    "ASTDY": 16,
    "AENDY": 24,
    "ADURN": 9,
    "ADURU": "DAY",
    "TRTEMFL": "Y",
    "AOCCFL": "Y",
    "AOCC01FL": "Y",
    "AGE": 89,
    "AGEGR1": ">80",
    "SEX": "M",
    "MMSETOT": 15,
    "SAFFL": "Y"
  },
  {
    "STUDYID": "CDISCPILOT01",
    "USUBJID": "01-703-011",
    "AESEQ": 2,
    "TRTP": "Xanomeline High Dose",
    "TRTPN": 2,
    "AETERM": "Nasopharyngitis",
    "AEDECOD": "Nasopharyngitis",
    "AEBODSYS": "Infections and infestations",
    "AECAT": "GENERAL",
    "AESEV": "MILD",
    "AETOXGR": 1,
    "ATOXGRN": 1,
    "AESER": "N",
    "AEREL": "NOT RELATED",
    "RELGR1": "N",
    "RELGR1N": 0,
    "ASTDT": "2013-12-28",
    "AENDT": "2014-01-20",
    "ASTDY": 6,
    "AENDY": 29,
    "ADURN": 24,
    "ADURU": "DAY",
    "TRTEMFL": "Y",
    "AOCCFL": "Y",
    "AOCC01FL": "Y",
    "AGE": 89,
    "AGEGR1": ">80",
    "SEX": "M",
    "MMSETOT": 15,
    "SAFFL": "Y"
  },
  {
    "STUDYID": "CDISCPILOT01",
    "USUBJID": "01-703-013",
    "AESEQ": 1,
    "TRTP": "Xanomeline Low Dose",
    "TRTPN": 1,
    "AETERM": "Rash",
    "AEDECOD": "Rash",
    "AEBODSYS": "Skin and subcutaneous tissue disorders",
    "AECAT": "GENERAL",
    "AESEV": "MODERATE",
    "AETOXGR": 2,
    "ATOXGRN": 2,
    "AESER": "N",
    "AEREL": "NOT RELATED",
    "RELGR1": "N",
    "RELGR1N": 0,
    "ASTDT": "2013-05-20",
    "AENDT": "2013-05-26",
    "ASTDY": 22,
    "AENDY": 28,
    "ADURN": 7,
    "ADURU": "DAY",
    "TRTEMFL": "Y",
    "AOCCFL": "Y",
    "AOCC01FL": "Y",
    "CQ02NAM": "DERMATOLOGICAL AE",
    "AGE": 78,
    "AGEGR1": "65-80",
    "SEX": "M",
    "MMSETOT": 14,
    "SAFFL": "Y"
  },
  {
    "STUDYID": "CDISCPILOT01",
    "USUBJID": "01-703-015",
    "AESEQ": 4,
    "TRTP": "Xanomeline Low Dose",
    "TRTPN": 1,
    "AETERM": "Agitation",
    "AEDECOD": "Agitation",
    "AEBODSYS": "Psychiatric disorders",
    "AECAT": "GENERAL",
    "AESEV": "SEVERE",
    "AETOXGR": 3,
    "ATOXGRN": 3,
    "AESER": "Y",
    "AEREL": "NOT RELATED",
    "RELGR1": "N",
    "RELGR1N": 0,
    "ASTDT": "2013-03-30",
    "AENDT": "2013-04-23",
    "ASTDY": 47,
    "AENDY": 71,
    "ADURN": 25,
    "ADURU": "DAY",
    "TRTEMFL": "Y",
    "AOCCFL": "Y",
    "AOCC01FL": "Y",
    "AOCCPFL": "Y",
    "AGE": 87,
    "AGEGR1": ">80",
    "SEX": "F",
    "MMSETOT": 21,
    "SAFFL": "Y"
  },
  {
    "STUDYID": "CDISCPILOT01",
    "USUBJID": "01-703-015",
    "AESEQ": 1,
    "TRTP": "Xanomeline Low Dose",
    "TRTPN": 1,
    "AETERM": "Application site erythema",
    "AEDECOD": "Application site erythema",
    "AEBODSYS": "General disorders and administration site conditions",
    "AECAT": "APPLICATION SITE",
    "AESEV": "MILD",
    "AETOXGR": 1,
    "ATOXGRN": 1,
    "AESER": "N",
    "AEREL": "RELATED",
    "RELGR1": "Y",
    "RELGR1N": 1,
    "ASTDT": "2013-02-23",
    "AENDT": "2013-03-13",
    "ASTDY": 12,
    "AENDY": 30,
    "ADURN": 19,
    "ADURU": "DAY",
    "TRTEMFL": "Y",
    "AOCCFL": "Y",
    "AOCC01FL": "Y",
    "CQ01NAM": "APPLICATION SITE REACTION",
    "AGE": 87,
    "AGEGR1": ">80",
    "SEX": "F",
    "MMSETOT": 21,
    "SAFFL": "Y"
  },
  {
    "STUDYID": "CDISCPILOT01",
    "USUBJID": "01-703-015",
    "AESEQ": 5,
    "TRTP": "Xanomeline Low Dose",
    "TRTPN": 1,
    "AETERM": "Cough",
    "AEDECOD": "Cough",
    "AEBODSYS": "Respiratory, thoracic and mediastinal disorders",
    "AECAT": "GENERAL",
    "AESEV": "MILD",
    "AETOXGR": 1,
    "ATOXGRN": 1,
    "AESER": "N",
    "AEREL": "RELATED",
    "RELGR1": "Y",
    "RELGR1N": 1,
    "ASTDT": "2013-06-12",
    "AENDT": "2013-06-28",
    "ASTDY": 121,
    "AENDY": 137,
    "ADURN": 17,
    "ADURU": "DAY",
    "TRTEMFL": "Y",
    "AOCCFL": "Y",
    "AOCC01FL": "Y",
    "AGE": 87,
    "AGEGR1": ">80",
    "SEX": "F",
    "MMSETOT": 21,
    "SAFFL": "Y"
  },
  {
    "STUDYID": "CDISCPILOT01",
    "USUBJID": "01-703-015",
    "AESEQ": 3,
    "TRTP": "Xanomeline Low Dose",
    "TRTPN": 1,
    "AETERM": "Diarrhoea",
    "AEDECOD": "Diarrhoea",
    "AEBODSYS": "Gastrointestinal disorders",
    "AECAT": "GENERAL",
    "AESEV": "MILD",
    "AETOXGR": 1,
    "ATOXGRN": 1,
    "AESER": "N",
    "AEREL": "RELATED",
    "RELGR1": "Y",
    "RELGR1N": 1,
    "ASTDT": "2013-05-13",
    "AENDT": "2013-05-13",
    "ASTDY": 91,
    "AENDY": 91,
    "ADURN": 1,
    "ADURU": "DAY",
    "TRTEMFL": "Y",
    "AOCCFL": "Y",
    "AOCC01FL": "Y",
    "AGE": 87,
    "AGEGR1": ">80",
    "SEX": "F",
    "MMSETOT": 21,
    "SAFFL": "Y"
  },
  {
    "STUDYID": "CDISCPILOT01",
    "USUBJID": "01-703-015",
    "AESEQ": 2,
    "TRTP": "Xanomeline Low Dose",
    "TRTPN": 1,
    "AETERM": "Erythema",
    "AEDECOD": "Erythema",
    "AEBODSYS": "Skin and subcutaneous tissue disorders",
    "AECAT": "GENERAL",
    "AESEV": "MILD",
    "AETOXGR": 1,
    "ATOXGRN": 1,
    "AESER": "Y",
    "AEREL": "POSSIBLY RELATED",
    "RELGR1": "Y",
    "RELGR1N": 1,
    "ASTDT": "2013-05-10",
    "AENDT": "2013-05-12",
    "ASTDY": 88,
    "AENDY": 90,
    "ADURN": 3,
    "ADURU": "DAY",
    "TRTEMFL": "Y",
    "AOCCFL": "Y",
    "AOCC01FL": "Y",
    "AOCCPFL": "Y",
    "CQ02NAM": "DERMATOLOGICAL AE",
    "AGE": 87,
    "AGEGR1": ">80",
    "SEX": "F",
    "MMSETOT": 21,
    "SAFFL": "Y"
  },
  {
    "STUDYID": "CDISCPILOT01",
    "USUBJID": "01-703-017",
    "AESEQ": 2,
    "TRTP": "Xanomeline Low Dose",
    "TRTPN": 1,
    "AETERM": "Dizziness",
    "AEDECOD": "Dizziness",
    "AEBODSYS": "Nervous system disorders",
    "AECAT": "GENERAL",
    "AESEV": "MODERATE",
    "AETOXGR": 2,
    "ATOXGRN": 2,
    "AESER": "N",
    "AEREL": "NOT RELATED",
    "RELGR1": "N",
    "RELGR1N": 0,
    "ASTDT": "2013-12-16",
    "AENDT": "2014-01-25",
    "ASTDY": 28,
    "AENDY": 68,
    "ADURN": 41,
    "ADURU": "DAY",
    "TRTEMFL": "Y",
    "AOCCFL": "Y",
    "AOCC01FL": "Y",
    "AGE": 61,
    "AGEGR1": "<65",
    "SEX": "F",
    "MMSETOT": 18,
    "SAFFL": "Y"
  },
  {
    "STUDYID": "CDISCPILOT01",
    "USUBJID": "01-703-017",
    "AESEQ": 1,
    "TRTP": "Xanomeline Low Dose",
    "TRTPN": 1,
    "AETERM": "Erythema",
    "AEDECOD": "Erythema",
    "AEBODSYS": "Skin and subcutaneous tissue disorders",
    "AECAT": "GENERAL",
    "AESEV": "MODERATE",
    "AETOXGR": 2,
    "ATOXGRN": 2,
    "AESER": "N",
    "AEREL": "NOT RELATED",
    "RELGR1": "N",
    "RELGR1N": 0,
    "ASTDT": "2013-11-23",
    "AENDT": "2014-01-04",
    "ASTDY": 5,
    "AENDY": 47,
    "ADURN": 43,
    "ADURU": "DAY",
    "TRTEMFL": "Y",
    "AOCCFL": "Y",
    "AOCC01FL": "Y",
    "CQ02NAM": "DERMATOLOGICAL AE",
    "AGE": 61,
    "AGEGR1": "<65",
    "SEX": "F",
    "MMSETOT": 18,
    "SAFFL": "Y"
  },
  {
    "STUDYID": "CDISCPILOT01",
    "USUBJID": "01-703-019",
    "AESEQ": 1,
    "TRTP": "Xanomeline High Dose",
    "TRTPN": 2,
    "AETERM": "Erythema",
    "AEDECOD": "Erythema",
    "AEBODSYS": "Skin and subcutaneous tissue disorders",
    "AECAT": "GENERAL",
    "AESEV": "MODERATE",
    "AETOXGR": 2,
    "ATOXGRN": 2,
    "AESER": "N",
    "AEREL": "NOT RELATED",
    "RELGR1": "N",
    "RELGR1N": 0,
    "ASTDT": "2013-11-27",
    "AENDT": "2013-12-15",
    "ASTDY": 24,
    "AENDY": 42,
    "ADURN": 19,
    "ADURU": "DAY",
    "TRTEMFL": "Y",
    "AOCCFL": "Y",
    "AOCC01FL": "Y",
    "CQ02NAM": "DERMATOLOGICAL AE",
    "AGE": 62,
    "AGEGR1": "<65",
    "SEX": "F",
    "MMSETOT": 17,
    "SAFFL": "Y"
  },
  {
    "STUDYID": "CDISCPILOT01",
    "USUBJID": "01-703-019",
    "AESEQ": 2,
    "TRTP": "Xanomeline High Dose",
    "TRTPN": 2,
    "AETERM": "Skin irritation",
    "AEDECOD": "Skin irritation",
    "AEBODSYS": "Skin and subcutaneous tissue disorders",
    "AECAT": "GENERAL",
    "AESEV": "MODERATE",
    "AETOXGR": 2,
    "ATOXGRN": 2,
    "AESER": "N",
    "AEREL": "RELATED",
    "RELGR1": "Y",
    "RELGR1N": 1,
    "ASTDT": "2013-11-07",
    "AENDT": "2013-11-10",
    "ASTDY": 4,
    "AENDY": 7,
    "ADURN": 4,
    "ADURU": "DAY",
    "TRTEMFL": "Y",
    "AOCCFL": "Y",
    "CQ02NAM": "DERMATOLOGICAL AE",
    "AGE": 62,
    "AGEGR1": "<65",
    "SEX": "F",
    "MMSETOT": 17,
    "SAFFL": "Y"
  },
  {
    "STUDYID": "CDISCPILOT01",
    "USUBJID": "01-703-020",
    "AESEQ": 1,
    "TRTP": "Xanomeline Low Dose",
    "TRTPN": 1,
    "AETERM": "Pruritus",
    "AEDECOD": "Pruritus",
    "AEBODSYS": "Skin and subcutaneous tissue disorders",
    "AECAT": "GENERAL",
    "AESEV": "MILD",
    "AETOXGR": 1,
    "ATOXGRN": 1,
    "AESER": "N",
    "AEREL": "RELATED",
    "RELGR1": "Y",
    "RELGR1N": 1,
    "ASTDT": "2013-07-08",
    "AENDT": "2013-07-31",
    "ASTDY": 1,
    "AENDY": 24,
    "ADURN": 24,
    "ADURU": "DAY",
    "TRTEMFL": "Y",
    "AOCCFL": "Y",
    "AOCC01FL": "Y",
    "CQ02NAM": "DERMATOLOGICAL AE",
    "AGE": 72,
    "AGEGR1": "65-80",
    "SEX": "F",
    "MMSETOT": 24,
    "SAFFL": "Y"
  },
  {
    "STUDYID": "CDISCPILOT01",
    "USUBJID": "01-704-002",
    "AESEQ": 1,
    "TRTP": "Placebo",
    "TRTPN": 0,
    "AETERM": "Diarrhoea",
    "AEDECOD": "Diarrhoea",
    "AEBODSYS": "Gastrointestinal disorders",
    "AECAT": "GENERAL",
    "AESEV": "MODERATE",
    "AETOXGR": 2,
    "ATOXGRN": 2,
    "AESER": "N",
    "AEREL": "POSSIBLY RELATED",
    "RELGR1": "Y",
    "RELGR1N": 1,
    "ASTDT": "2013-03-13",
    "AENDT": "2013-05-01",
    "ASTDY": 20,
    "AENDY": 69,
    "ADURN": 50,
    "ADURU": "DAY",
    "TRTEMFL": "Y",
    "AOCCFL": "Y",
    "AOCC01FL": "Y",
    "AGE": 89,
    "AGEGR1": ">80",
    "SEX": "M",
    "MMSETOT": 18,
    "SAFFL": "Y"
  },
  {
    "STUDYID": "CDISCPILOT01",
    "USUBJID": "01-704-003",
    "AESEQ": 1,
    "TRTP": "Xanomeline Low Dose",
    "TRTPN": 1,
    "AETERM": "Application site erythema",
    "AEDECOD": "Application site erythema",
    "AEBODSYS": "General disorders and administration site conditions",
    "AECAT": "APPLICATION SITE",
    "AESEV": "MILD",
    "AETOXGR": 1,
    "ATOXGRN": 1,
    "AESER": "N",
    "AEREL": "RELATED",
    "RELGR1": "Y",
    "RELGR1N": 1,
    "ASTDT": "2013-07-01",
    "AENDT": "2013-07-13",
    "ASTDY": 9,
    "AENDY": 21,
    "ADURN": 13,
    "ADURU": "DAY",
    "TRTEMFL": "Y",
    "AOCCFL": "Y",
    "AOCC01FL": "Y",
    "CQ01NAM": "APPLICATION SITE REACTION",
    "AGE": 78,
    "AGEGR1": "65-80",
    "SEX": "M",
    "MMSETOT": 14,
    "SAFFL": "Y"
  },
  {
    "STUDYID": "CDISCPILOT01",
    "USUBJID": "01-704-003",
    "AESEQ": 2,
    "TRTP": "Xanomeline Low Dose",
    "TRTPN": 1,
    "AETERM": "Erythema",
    "AEDECOD": "Erythema",
    "AEBODSYS": "Skin and subcutaneous tissue disorders",
    "AECAT": "GENERAL",
    "AESEV": "MODERATE",
    "AETOXGR": 2,
    "ATOXGRN": 2,
    "AESER": "N",
    "AEREL": "NOT RELATED",
    "RELGR1": "N",
    "RELGR1N": 0,
    "ASTDT": "2013-08-06",
    "AENDT": "2013-08-25",
    "ASTDY": 45,
    "AENDY": 64,
    "ADURN": 20,
    "ADURU": "DAY",
    "TRTEMFL": "Y",
    "AOCCFL": "Y",
    "AOCC01FL": "Y",
    "CQ02NAM": "DERMATOLOGICAL AE",
    "AGE": 78,
    "AGEGR1": "65-80",
    "SEX": "M",
    "MMSETOT": 14,
    "SAFFL": "Y"
  },
  {
    "STUDYID": "CDISCPILOT01",
    "USUBJID": "01-704-007",
    "AESEQ": 1,
    "TRTP": "Placebo",
    "TRTPN": 0,
    "AETERM": "Diarrhoea",
    "AEDECOD": "Diarrhoea",
    "AEBODSYS": "Gastrointestinal disorders",
    "AECAT": "GENERAL",
    "AESEV": "MODERATE",
    "AETOXGR": 2,
    "ATOXGRN": 2,
    "AESER": "N",
    "AEREL": "RELATED",
    "RELGR1": "Y",
    "RELGR1N": 1,
    "ASTDT": "2014-01-11",
    "AENDT": "2014-02-08",
    "ASTDY": 26,
    "AENDY": 54,
    "ADURN": 29,
    "ADURU": "DAY",
    "TRTEMFL": "Y",
    "AOCCFL": "Y",
    "AOCC01FL": "Y",
    "AGE": 73,
    "AGEGR1": "65-80",
    "SEX": "F",
    "MMSETOT": 19,
    "SAFFL": "Y"
  },
  {
    "STUDYID": "CDISCPILOT01",
    "USUBJID": "01-704-008",
    "AESEQ": 1,
    "TRTP": "Xanomeline High Dose",
    "TRTPN": 2,
    "AETERM": "Application site irritation",
    "AEDECOD": "Application site irritation",
    "AEBODSYS": "General disorders and administration site conditions",
    "AECAT": "APPLICATION SITE",
    "AESEV": "MODERATE",
    "AETOXGR": 2,
    "ATOXGRN": 2,
    "AESER": "N",
    "AEREL": "POSSIBLY RELATED",
    "RELGR1": "Y",
    "RELGR1N": 1,
    "ASTDT": "2013-07-20",
    "AENDT": "2013-07-31",
    "ASTDY": 15,
    "AENDY": 26,
    "ADURN": 12,
    "ADURU": "DAY",
    "TRTEMFL": "Y",
    "AOCCFL": "Y",
    "AOCC01FL": "Y",
    "CQ01NAM": "APPLICATION SITE REACTION",
    "AGE": 78,
    "AGEGR1": "65-80",
    "SEX": "F",
    "MMSETOT": 24,
    "SAFFL": "Y"
  },
  {
    "STUDYID": "CDISCPILOT01",
    "USUBJID": "01-704-008",
    "AESEQ": 2,
    "TRTP": "Xanomeline High Dose",
    "TRTPN": 2,
    "AETERM": "Hyperhidrosis",
    "AEDECOD": "Hyperhidrosis",
    "AEBODSYS": "Skin and subcutaneous tissue disorders",
    "AECAT": "GENERAL",
    "AESEV": "MODERATE",
    "AETOXGR": 2,
    "ATOXGRN": 2,
    "AESER": "N",
    "AEREL": "NOT RELATED",
    "RELGR1": "N",
    "RELGR1N": 0,
    "ASTDT": "2013-10-13",
    "AENDT": "2013-10-28",
    "ASTDY": 100,
    "AENDY": 115,
    "ADURN": 16,
    "ADURU": "DAY",
    "TRTEMFL": "Y",
    "AOCCFL": "Y",
    "AOCC01FL": "Y",
    "CQ02NAM": "DERMATOLOGICAL AE",
    "AGE": 78,
    "AGEGR1": "65-80",
    "SEX": "F",
    "MMSETOT": 24,
    "SAFFL": "Y"
  },
  {
    "STUDYID": "CDISCPILOT01",
    "USUBJID": "01-704-009",
    "AESEQ": 1,
    "TRTP": "Xanomeline High Dose",
    "TRTPN": 2,
    "AETERM": "Rash",
    "AEDECOD": "Rash",
    "AEBODSYS": "Skin and subcutaneous tissue disorders",
    "AECAT": "GENERAL",
    "AESEV": "MODERATE",
    "AETOXGR": 2,
    "ATOXGRN": 2,
    "AESER": "N",
    "AEREL": "NOT RELATED",
    "RELGR1": "N",
    "RELGR1N": 0,
    "ASTDT": "2013-07-25",
    "AENDT": "2013-07-28",
    "ASTDY": 14,
    "AENDY": 17,
    "ADURN": 4,
    "ADURU": "DAY",
    "TRTEMFL": "Y",
    "AOCCFL": "Y",
    "AOCC01FL": "Y",
    "CQ02NAM": "DERMATOLOGICAL AE",
    "AGE": 75,
    "AGEGR1": "65-80",
    "SEX": "M",
    "MMSETOT": 11,
    "SAFFL": "Y"
  },
  {
    "STUDYID": "CDISCPILOT01",
    "USUBJID": "01-704-010",
    "AESEQ": 1,
    "TRTP": "Xanomeline High Dose",
    "TRTPN": 2,
    "AETERM": "Application site dermatitis",
    "AEDECOD": "Application site dermatitis",
    "AEBODSYS": "General disorders and administration site conditions",
    "AECAT": "APPLICATION SITE",
    "AESEV": "MODERATE",
    "AETOXGR": 2,
    "ATOXGRN": 2,
    "AESER": "N",
    "AEREL": "RELATED",
    "RELGR1": "Y",
    "RELGR1N": 1,
    "ASTDT": "2013-09-25",
    "AENDT": "2013-10-19",
    "ASTDY": 4,
    "AENDY": 28,
    "ADURN": 25,
    "ADURU": "DAY",
    "TRTEMFL": "Y",
    "AOCCFL": "Y",
    "AOCC01FL": "Y",
    "CQ01NAM": "APPLICATION SITE REACTION",
    "AGE": 72,
    "AGEGR1": "65-80",
    "SEX": "F",
    "MMSETOT": 18,
    "SAFFL": "Y"
  },
  {
    "STUDYID": "CDISCPILOT01",
    "USUBJID": "01-704-010",
    "AESEQ": 4,
    "TRTP": "Xanomeline High Dose",
    "TRTPN": 2,
    "AETERM": "Myocardial infarction",
    "AEDECOD": "Myocardial infarction",
    "AEBODSYS": "Cardiac disorders",
    "AECAT": "GENERAL",
    "AESEV": "SEVERE",
    "AETOXGR": 3,
    "ATOXGRN": 3,
    "AESER": "Y",
    "AEREL": "NOT RELATED",
    "RELGR1": "N",
    "RELGR1N": 0,
    "ASTDT": "2013-10-30",
    "AENDT": "2013-11-29",
    "ASTDY": 39,
    "AENDY": 69,
    "ADURN": 31,
    "ADURU": "DAY",
    "TRTEMFL": "Y",
    "AOCCFL": "Y",
    "AOCC01FL": "Y",
    "AOCCPFL": "Y",
    "AGE": 72,
    "AGEGR1": "65-80",
    "SEX": "F",
    "MMSETOT": 18,
    "SAFFL": "Y"
  },
  {
    "STUDYID": "CDISCPILOT01",
    "USUBJID": "01-704-010",
    "AESEQ": 3,
    "TRTP": "Xanomeline High Dose",
    "TRTPN": 2,
    "AETERM": "Nausea",
    "AEDECOD": "Nausea",
    "AEBODSYS": "Gastrointestinal disorders",
    "AECAT": "GENERAL",
    "AESEV": "MILD",
    "AETOXGR": 1,
    "ATOXGRN": 1,
    "AESER": "N",
    "AEREL": "NOT RELATED",
    "RELGR1": "N",
    "RELGR1N": 0,
    "ASTDT": "2013-10-23",
    "AENDT": "2013-11-14",
    "ASTDY": 32,
    "AENDY": 54,
    "ADURN": 23,
    "ADURU": "DAY",
    "TRTEMFL": "Y",
    "AOCCFL": "Y",
    "AOCC01FL": "Y",
    "AGE": 72,
    "AGEGR1": "65-80",
    "SEX": "F",
    "MMSETOT": 18,
    "SAFFL": "Y"
  },
  {
    "STUDYID": "CDISCPILOT01",
    "USUBJID": "01-704-010",
    "AESEQ": 2,
    "TRTP": "Xanomeline High Dose",
    "TRTPN": 2,
    "AETERM": "Pruritus",
    "AEDECOD": "Pruritus",
    "AEBODSYS": "Skin and subcutaneous tissue disorders",
    "AECAT": "GENERAL",
    "AESEV": "MILD",
    "AETOXGR": 1,
    "ATOXGRN": 1,
    "AESER": "N",
    "AEREL": "NOT RELATED",
    "RELGR1": "N",
    "RELGR1N": 0,
    "ASTDT": "2013-10-10",
    "AENDT": "2013-10-29",
    "ASTDY": 19,
    "AENDY": 38,
    "ADURN": 20,
    "ADURU": "DAY",
    "TRTEMFL": "Y",
    "AOCCFL": "Y",
    "AOCC01FL": "Y",
    "CQ02NAM": "DERMATOLOGICAL AE",
    "AGE": 72,
    "AGEGR1": "65-80",
    "SEX": "F",
    "MMSETOT": 18,
    "SAFFL": "Y"
  },
  {
    "STUDYID": "CDISCPILOT01",
    "USUBJID": "01-704-013",
    "AESEQ": 1,
    "TRTP": "Placebo",
    "TRTPN": 0,
    "AETERM": "Dizziness",
    "AEDECOD": "Dizziness",
    "AEBODSYS": "Nervous system disorders",
    "AECAT": "GENERAL",
    "AESEV": "MODERATE",
    "AETOXGR": 2,
    "ATOXGRN": 2,
    "AESER": "N",
    "AEREL": "RELATED",
    "RELGR1": "Y",
    "RELGR1N": 1,
    "ASTDT": "2013-05-23",
    "AENDT": "2013-05-29",
    "ASTDY": 17,
    "AENDY": 23,
    "ADURN": 7,
    "ADURU": "DAY",
    "TRTEMFL": "Y",
    "AOCCFL": "Y",
    "AOCC01FL": "Y",
    "AGE": 66,
    "AGEGR1": "65-80",
    "SEX": "F",
    "MMSETOT": 20,
    "SAFFL": "Y"
  },
  {
    "STUDYID": "CDISCPILOT01",
    "USUBJID": "01-704-016",
    "AESEQ": 2,
    "TRTP": "Xanomeline Low Dose",
    "TRTPN": 1,
    "AETERM": "Fatigue",
    "AEDECOD": "Fatigue",
    "AEBODSYS": "General disorders and administration site conditions",
    "AECAT": "GENERAL",
    "AESEV": "MILD",
    "AETOXGR": 1,
    "ATOXGRN": 1,
    "AESER": "N",
    "AEREL": "POSSIBLY RELATED",
    "RELGR1": "Y",
    "RELGR1N": 1,
    "ASTDT": "2013-09-19",
    "AENDT": "2013-10-04",
    "ASTDY": 17,
    "AENDY": 32,
    "ADURN": 16,
    "ADURU": "DAY",
    "TRTEMFL": "Y",
    "AOCCFL": "Y",
    "AOCC01FL": "Y",
    "AGE": 89,
    "AGEGR1": ">80",
    "SEX": "M",
    "MMSETOT": 21,
    "SAFFL": "Y"
  },
  {
    "STUDYID": "CDISCPILOT01",
    "USUBJID": "01-704-016",
    "AESEQ": 1,
    "TRTP": "Xanomeline Low Dose",
    "TRTPN": 1,
    "AETERM": "Nasal congestion",
    "AEDECOD": "Nasal congestion",
    "AEBODSYS": "Respiratory, thoracic and mediastinal disorders",
    "AECAT": "GENERAL",
    "AESEV": "MILD",
    "AETOXGR": 1,
    "ATOXGRN": 1,
    "AESER": "N",
    "AEREL": "NOT RELATED",
    "RELGR1": "N",
    "RELGR1N": 0,
    "ASTDT": "2013-09-10",
    "AENDT": "2013-10-05",
    "ASTDY": 8,
    "AENDY": 33,
    "ADURN": 26,
    "ADURU": "DAY",
    "TRTEMFL": "Y",
    "AOCCFL": "Y",
    "AOCC01FL": "Y",
    "AGE": 89,
    "AGEGR1": ">80",
    "SEX": "M",
    "MMSETOT": 21,
    "SAFFL": "Y"
  },
  {
    "STUDYID": "CDISCPILOT01",
    "USUBJID": "01-704-017",
    "AESEQ": 1,
    "TRTP": "Placebo",
    "TRTPN": 0,
    "AETERM": "Application site pruritus",
    "AEDECOD": "Application site pruritus",
    "AEBODSYS": "General disorders and administration site conditions",
    "AECAT": "APPLICATION SITE",
    "AESEV": "MILD",
    "AETOXGR": 1,
    "ATOXGRN": 1,
    "AESER": "N",
    "AEREL": "POSSIBLY RELATED",
    "RELGR1": "Y",
    "RELGR1N": 1,
    "ASTDT": "2013-01-16",
    "AENDT": "2013-02-15",
    "ASTDY": 5,
    "AENDY": 35,
    "ADURN": 31,
    "ADURU": "DAY",
    "TRTEMFL": "Y",
    "AOCCFL": "Y",
    "AOCC01FL": "Y",
    "CQ01NAM": "APPLICATION SITE REACTION",
    "AGE": 62,
    "AGEGR1": "<65",
    "SEX": "F",
    "MMSETOT": 21,
    "SAFFL": "Y"
  },
  {
    "STUDYID": "CDISCPILOT01",
    "USUBJID": "01-704-017",
    "AESEQ": 2,
    "TRTP": "Placebo",
    "TRTPN": 0,
    "AETERM": "Hyperhidrosis",
    "AEDECOD": "Hyperhidrosis",
    "AEBODSYS": "Skin and subcutaneous tissue disorders",
    "AECAT": "GENERAL",
    "AESEV": "MILD",
    "AETOXGR": 1,
    "ATOXGRN": 1,
    "AESER": "N",
    "AEREL": "POSSIBLY RELATED",
    "RELGR1": "Y",
    "RELGR1N": 1,
    "ASTDT": "2013-03-10",
    "AENDT": "2013-04-05",
    "ASTDY": 58,
    "AENDY": 84,
    "ADURN": 27,
    "ADURU": "DAY",
    "TRTEMFL": "Y",
    "AOCCFL": "Y",
    "AOCC01FL": "Y",
    "CQ02NAM": "DERMATOLOGICAL AE",
    "AGE": 62,
    "AGEGR1": "<65",
    "SEX": "F",
    "MMSETOT": 21,
    "SAFFL": "Y"
  },
  {
    "STUDYID": "CDISCPILOT01",
    "USUBJID": "01-704-017",
    "AESEQ": 3,
    "TRTP": "Placebo",
    "TRTPN": 0,
    "AETERM": "Nausea",
    "AEDECOD": "Nausea",
    "AEBODSYS": "Gastrointestinal disorders",
    "AECAT": "GENERAL",
    "AESEV": "MODERATE",
    "AETOXGR": 2,
    "ATOXGRN": 2,
    "AESER": "N",
    "AEREL": "NOT RELATED",
    "RELGR1": "N",
    "RELGR1N": 0,
    "ASTDT": "2013-06-08",
    "AENDT": "2013-06-24",
    "ASTDY": 148,
    "AENDY": 164,
    "ADURN": 17,
    "ADURU": "DAY",
    "TRTEMFL": "Y",
    "AOCCFL": "Y",
    "AOCC01FL": "Y",
    "AGE": 62,
    "AGEGR1": "<65",
    "SEX": "F",
    "MMSETOT": 21,
    "SAFFL": "Y"
  },
  {
    "STUDYID": "CDISCPILOT01",
    "USUBJID": "01-704-018",
    "AESEQ": 1,
    "TRTP": "Placebo",
    "TRTPN": 0,
    "AETERM": "Application site irritation",
    "AEDECOD": "Application site irritation",
    "AEBODSYS": "General disorders and administration site conditions",
    "AECAT": "APPLICATION SITE",
    "AESEV": "MODERATE",
    "AETOXGR": 2,
    "ATOXGRN": 2,
    "AESER": "N",
    "AEREL": "RELATED",
    "RELGR1": "Y",
    "RELGR1N": 1,
    "ASTDT": "2013-06-30",
    "AENDT": "2013-07-14",
    "ASTDY": 9,
    "AENDY": 23,
    "ADURN": 15,
    "ADURU": "DAY",
    "TRTEMFL": "Y",
    "AOCCFL": "Y",
    "AOCC01FL": "Y",
    "CQ01NAM": "APPLICATION SITE REACTION",
    "AGE": 61,
    "AGEGR1": "<65",
    "SEX": "F",
    "MMSETOT": 19,
    "SAFFL": "Y"
  },
  {
    "STUDYID": "CDISCPILOT01",
    "USUBJID": "01-704-019",
    "AESEQ": 1,
    "TRTP": "Xanomeline Low Dose",
    "TRTPN": 1,
    "AETERM": "Application site pruritus",
    "AEDECOD": "Application site pruritus",
    "AEBODSYS": "General disorders and administration site conditions",
    "AECAT": "APPLICATION SITE",
    "AESEV": "MILD",
    "AETOXGR": 1,
    "ATOXGRN": 1,
    "AESER": "N",
    "AEREL": "RELATED",
    "RELGR1": "Y",
    "RELGR1N": 1,
    "ASTDT": "2013-08-17",
    "AENDT": "2013-08-21",
    "ASTDY": 10,
    "AENDY": 14,
    "ADURN": 5,
    "ADURU": "DAY",
    "TRTEMFL": "Y",
    "AOCCFL": "Y",
    "AOCC01FL": "Y",
    "CQ01NAM": "APPLICATION SITE REACTION",
    "AGE": 75,
    "AGEGR1": "65-80",
    "SEX": "F",
    "MMSETOT": 24,
    "SAFFL": "Y"
  },
  {
    "STUDYID": "CDISCPILOT01",
    "USUBJID": "01-704-019",
    "AESEQ": 2,
    "TRTP": "Xanomeline Low Dose",
    "TRTPN": 1,
    "AETERM": "Application site vesicles",
    "AEDECOD": "Application site vesicles",
    "AEBODSYS": "General disorders and administration site conditions",
    "AECAT": "APPLICATION SITE",
    "AESEV": "MODERATE",
    "AETOXGR": 2,
    "ATOXGRN": 2,
    "AESER": "N",
    "AEREL": "RELATED",
    "RELGR1": "Y",
    "RELGR1N": 1,
    "ASTDT": "2013-08-10",
    "AENDT": "2013-08-22",
    "ASTDY": 3,
    "AENDY": 15,
    "ADURN": 13,
    "ADURU": "DAY",
    "TRTEMFL": "Y",
    "AOCCFL": "Y",
    "CQ01NAM": "APPLICATION SITE REACTION",
    "AGE": 75,
    "AGEGR1": "65-80",
    "SEX": "F",
    "MMSETOT": 24,
    "SAFFL": "Y"
  },
  {
    "STUDYID": "CDISCPILOT01",
    "USUBJID": "01-704-019",
    "AESEQ": 5,
    "TRTP": "Xanomeline Low Dose",
    "TRTPN": 1,
    "AETERM": "Fatigue",
    "AEDECOD": "Fatigue",
    "AEBODSYS": "General disorders and administration site conditions",
    "AECAT": "GENERAL",
    "AESEV": "MODERATE",
    "AETOXGR": 2,
    "ATOXGRN": 2,
    "AESER": "N",
    "AEREL": "NOT RELATED",
    "RELGR1": "N",
    "RELGR1N": 0,
    "ASTDT": "2013-09-15",
    "AENDT": "2013-09-22",
    "ASTDY": 39,
    "AENDY": 46,
    "ADURN": 8,
    "ADURU": "DAY",
    "TRTEMFL": "Y",
    "AOCCFL": "Y",
    "AGE": 75,
    "AGEGR1": "65-80",
    "SEX": "F",
    "MMSETOT": 24,
    "SAFFL": "Y"
  },
  {
    "STUDYID": "CDISCPILOT01",
    "USUBJID": "01-704-019",
    "AESEQ": 4,
    "TRTP": "Xanomeline Low Dose",
    "TRTPN": 1,
    "AETERM": "Headache",
    "AEDECOD": "Headache",
    "AEBODSYS": "Nervous system disorders",
    "AECAT": "GENERAL",
    "AESEV": "MILD",
    "AETOXGR": 1,
    "ATOXGRN": 1,
    "AESER": "N",
    "AEREL": "NOT RELATED",
    "RELGR1": "N",
    "RELGR1N": 0,
    "ASTDT": "2013-08-27",
    "AENDT": "2013-09-02",
    "ASTDY": 20,
    "AENDY": 26,
    "ADURN": 7,
    "ADURU": "DAY",
    "TRTEMFL": "Y",
    "AOCCFL": "Y",
    "AOCC01FL": "Y",
    "AGE": 75,
    "AGEGR1": "65-80",
    "SEX": "F",
    "MMSETOT": 24,
    "SAFFL": "Y"
  },
  {
    "STUDYID": "CDISCPILOT01",
    "USUBJID": "01-704-019",
    "AESEQ": 3,
    "TRTP": "Xanomeline Low Dose",
    "TRTPN": 1,
    "AETERM": "Pruritus",
    "AEDECOD": "Pruritus",
    "AEBODSYS": "Skin and subcutaneous tissue disorders",
    "AECAT": "GENERAL",
    "AESEV": "MILD",
    "AETOXGR": 1,
    "ATOXGRN": 1,
    "AESER": "N",
    "AEREL": "RELATED",
    "RELGR1": "Y",
    "RELGR1N": 1,
    "ASTDT": "2013-09-23",
    "AENDT": "2013-10-07",
    "ASTDY": 47,
    "AENDY": 61,
    "ADURN": 15,
    "ADURU": "DAY",
    "TRTEMFL": "Y",
    "AOCCFL": "Y",
    "AOCC01FL": "Y",
    "CQ02NAM": "DERMATOLOGICAL AE",
    "AGE": 75,
    "AGEGR1": "65-80",
    "SEX": "F",
    "MMSETOT": 24,
    "SAFFL": "Y"
  },
  {
    "STUDYID": "CDISCPILOT01",
    "USUBJID": "01-704-021",
    "AESEQ": 1,
    "TRTP": "Placebo",
    "TRTPN": 0,
    "AETERM": "Dizziness",
    "AEDECOD": "Dizziness",
    "AEBODSYS": "Nervous system disorders",
    "AECAT": "GENERAL",
    "AESEV": "MILD",
    "AETOXGR": 1,
    "ATOXGRN": 1,
    "AESER": "N",
    "AEREL": "NOT RELATED",
    "RELGR1": "N",
    "RELGR1N": 0,
    "ASTDT": "2013-07-08",
    "AENDT": "2013-07-27",
    "ASTDY": 39,
    "AENDY": 58,
    "ADURN": 20,
    "ADURU": "DAY",
    "TRTEMFL": "Y",
    "AOCCFL": "Y",
    "AOCC01FL": "Y",
    "AGE": 84,
    "AGEGR1": ">80",
    "SEX": "M",
    "MMSETOT": 11,
    "SAFFL": "Y"
  },
  {
    "STUDYID": "CDISCPILOT01",
    "USUBJID": "01-704-022",
    "AESEQ": 1,
    "TRTP": "Xanomeline Low Dose",
    "TRTPN": 1,
    "AETERM": "Diarrhoea",
    "AEDECOD": "Diarrhoea",
    "AEBODSYS": "Gastrointestinal disorders",
    "AECAT": "GENERAL",
    "AESEV": "MILD",
    "AETOXGR": 1,
    "ATOXGRN": 1,
    "AESER": "N",
    "AEREL": "NOT RELATED",
    "RELGR1": "N",
    "RELGR1N": 0,
    "ASTDT": "2013-03-01",
    "AENDT": "2013-03-24",
    "ASTDY": 31,
    "AENDY": 54,
    "ADURN": 24,
    "ADURU": "DAY",
    "TRTEMFL": "Y",
    "AOCCFL": "Y",
    "AOCC01FL": "Y",
    "AGE": 74,
    "AGEGR1": "65-80",
    "SEX": "M",
    "MMSETOT": 17,
    "SAFFL": "Y"
  },
  {
    "STUDYID": "CDISCPILOT01",
    "USUBJID": "01-704-023",
    "AESEQ": 1,
    "TRTP": "Xanomeline High Dose",
    "TRTPN": 2,
    "AETERM": "Sinus bradycardia",
    "AEDECOD": "Sinus bradycardia",
    "AEBODSYS": "Cardiac disorders",
    "AECAT": "GENERAL",
    "AESEV": "MILD",
    "AETOXGR": 1,
    "ATOXGRN": 1,
    "AESER": "N",
    "AEREL": "POSSIBLY RELATED",
    "RELGR1": "Y",
    "RELGR1N": 1,
    "ASTDT": "2013-09-18",
    "AENDT": "2013-09-30",
    "ASTDY": 12,
    "AENDY": 24,
    "ADURN": 13,
    "ADURU": "DAY",
    "TRTEMFL": "Y",
    "AOCCFL": "Y",
    "AOCC01FL": "Y",
    "AGE": 68,
    "AGEGR1": "65-80",
    "SEX": "M",
    "MMSETOT": 15,
    "SAFFL": "Y"
  },
  {
    "STUDYID": "CDISCPILOT01",
    "USUBJID": "01-705-001",
    "AESEQ": 1,
    "TRTP": "Xanomeline High Dose",
    "TRTPN": 2,
    "AETERM": "Dizziness",
    "AEDECOD": "Dizziness",
    "AEBODSYS": "Nervous system disorders",
    "AECAT": "GENERAL",
    "AESEV": "MODERATE",
    "AETOXGR": 2,
    "ATOXGRN": 2,
    "AESER": "N",
    "AEREL": "POSSIBLY RELATED",
    "RELGR1": "Y",
    "RELGR1N": 1,
    "ASTDT": "2013-09-23",
    "AENDT": "2013-11-05",
    "ASTDY": 52,
    "AENDY": 95,
    "ADURN": 44,
    "ADURU": "DAY",
    "TRTEMFL": "Y",
    "AOCCFL": "Y",
    "AOCC01FL": "Y",
    "AGE": 62,
    "AGEGR1": "<65",
    "SEX": "M",
    "MMSETOT": 15,
    "SAFFL": "Y"
  },
  {
    "STUDYID": "CDISCPILOT01",
    "USUBJID": "01-705-002",
    "AESEQ": 1,
    "TRTP": "Xanomeline High Dose",
    "TRTPN": 2,
    "AETERM": "Vomiting",
    "AEDECOD": "Vomiting",
    "AEBODSYS": "Gastrointestinal disorders",
    "AECAT": "GENERAL",
    "AESEV": "MILD",
    "AETOXGR": 1,
    "ATOXGRN": 1,
    "AESER": "N",
    "AEREL": "POSSIBLY RELATED",
    "RELGR1": "Y",
    "RELGR1N": 1,
    "ASTDT": "2013-09-26",
    "AENDT": "2013-09-30",
    "ASTDY": 42,
    "AENDY": 46,
    "ADURN": 5,
    "ADURU": "DAY",
    "TRTEMFL": "Y",
    "AOCCFL": "Y",
    "AOCC01FL": "Y",
    "AGE": 68,
    "AGEGR1": "65-80",
    "SEX": "M",
    "MMSETOT": 23,
    "SAFFL": "Y"
  },
  {
    "STUDYID": "CDISCPILOT01",
    "USUBJID": "01-705-004",
    "AESEQ": 1,
    "TRTP": "Xanomeline High Dose",
    "TRTPN": 2,
    "AETERM": "Application site pruritus",
    "AEDECOD": "Application site pruritus",
    "AEBODSYS": "General disorders and administration site conditions",
    "AECAT": "APPLICATION SITE",
    "AESEV": "MODERATE",
    "AETOXGR": 2,
    "ATOXGRN": 2,
    "AESER": "N",
    "AEREL": "POSSIBLY RELATED",
    "RELGR1": "Y",
    "RELGR1N": 1,
    "ASTDT": "2013-09-19",
    "AENDT": "2013-09-28",
    "ASTDY": 11,
    "AENDY": 20,
    "ADURN": 10,
    "ADURU": "DAY",
    "TRTEMFL": "Y",
    "AOCCFL": "Y",
    "AOCC01FL": "Y",
    "CQ01NAM": "APPLICATION SITE REACTION",
    "AGE": 76,
    "AGEGR1": "65-80",
    "SEX": "F",
    "MMSETOT": 23,
    "SAFFL": "Y"
  },
  {
    "STUDYID": "CDISCPILOT01",
    "USUBJID": "01-705-008",
    "AESEQ": 1,
    "TRTP": "Placebo",
    "TRTPN": 0,
    "AETERM": "Application site pruritus",
    "AEDECOD": "Application site pruritus",
    "AEBODSYS": "General disorders and administration site conditions",
    "AECAT": "APPLICATION SITE",
    "AESEV": "MILD",
    "AETOXGR": 1,
    "ATOXGRN": 1,
    "AESER": "N",
    "AEREL": "RELATED",
    "RELGR1": "Y",
    "RELGR1N": 1,
    "ASTDT": "2013-06-05",
    "AENDT": "2013-06-07",
    "ASTDY": 20,
    "AENDY": 22,
    "ADURN": 3,
    "ADURU": "DAY",
    "TRTEMFL": "Y",
    "AOCCFL": "Y",
    "AOCC01FL": "Y",
    "CQ01NAM": "APPLICATION SITE REACTION",
    "AGE": 82,
    "AGEGR1": ">80",
    "SEX": "F",
    "MMSETOT": 18,
    "SAFFL": "Y"
  },
  {
    "STUDYID": "CDISCPILOT01",
    "USUBJID": "01-705-009",
    "AESEQ": 1,
    "TRTP": "Placebo",
    "TRTPN": 0,
    "AETERM": "Application site irritation",
    "AEDECOD": "Application site irritation",
    "AEBODSYS": "General disorders and administration site conditions",
    "AECAT": "APPLICATION SITE",
    "AESEV": "MODERATE",
    "AETOXGR": 2,
    "ATOXGRN": 2,
    "AESER": "N",
    "AEREL": "POSSIBLY RELATED",
    "RELGR1": "Y",
    "RELGR1N": 1,
    "ASTDT": "2013-09-09",
    "AENDT": "2013-10-05",
    "ASTDY": 2,
    "AENDY": 28,
    "ADURN": 27,
    "ADURU": "DAY",
    "TRTEMFL": "Y",
    "AOCCFL": "Y",
    "AOCC01FL": "Y",
    "CQ01NAM": "APPLICATION SITE REACTION",
    "AGE": 84,
    "AGEGR1": ">80",
    "SEX": "F",
    "MMSETOT": 21,
    "SAFFL": "Y"
  },
  {
    "STUDYID": "CDISCPILOT01",
    "USUBJID": "01-705-010",
    "AESEQ": 1,
    "TRTP": "Placebo",
    "TRTPN": 0,
    "AETERM": "Application site dermatitis",
    "AEDECOD": "Application site dermatitis",
    "AEBODSYS": "General disorders and administration site conditions",
    "AECAT": "APPLICATION SITE",
    "AESEV": "MODERATE",
    "AETOXGR": 2,
    "ATOXGRN": 2,
    "AESER": "N",
    "AEREL": "RELATED",
    "RELGR1": "Y",
    "RELGR1N": 1,
    "ASTDT": "2013-08-17",
    "AENDT": "2013-08-18",
    "ASTDY": 15,
    "AENDY": 16,
    "ADURN": 2,
    "ADURU": "DAY",
    "TRTEMFL": "Y",
    "AOCCFL": "Y",
    "AOCC01FL": "Y",
    "CQ01NAM": "APPLICATION SITE REACTION",
    "AGE": 86,
    "AGEGR1": ">80",
    "SEX": "F",
    "MMSETOT": 21,
    "SAFFL": "Y"
  },
  {
    "STUDYID": "CDISCPILOT01",
    "USUBJID": "01-705-010",
    "AESEQ": 2,
    "TRTP": "Placebo",
    "TRTPN": 0,
    "AETERM": "Diarrhoea",
    "AEDECOD": "Diarrhoea",
    "AEBODSYS": "Gastrointestinal disorders",
    "AECAT": "GENERAL",
    "AESEV": "MILD",
    "AETOXGR": 1,
    "ATOXGRN": 1,
    "AESER": "N",
    "AEREL": "POSSIBLY RELATED",
    "RELGR1": "Y",
    "RELGR1N": 1,
    "ASTDT": "2013-08-29",
    "AENDT": "2013-09-30",
    "ASTDY": 27,
    "AENDY": 59,
    "ADURN": 33,
    "ADURU": "DAY",
    "TRTEMFL": "Y",
    "AOCCFL": "Y",
    "AOCC01FL": "Y",
    "AGE": 86,
    "AGEGR1": ">80",
    "SEX": "F",
    "MMSETOT": 21,
    "SAFFL": "Y"
  },
  {
    "STUDYID": "CDISCPILOT01",
    "USUBJID": "01-705-013",
    "AESEQ": 1,
    "TRTP": "Placebo",
    "TRTPN": 0,
    "AETERM": "Application site pruritus",
    "AEDECOD": "Application site pruritus",
    "AEBODSYS": "General disorders and administration site conditions",
    "AECAT": "APPLICATION SITE",
    "AESEV": "MODERATE",
    "AETOXGR": 2,
    "ATOXGRN": 2,
    "AESER": "N",
    "AEREL": "RELATED",
    "RELGR1": "Y",
    "RELGR1N": 1,
    "ASTDT": "2013-02-21",
    "AENDT": "2013-03-12",
    "ASTDY": 14,
    "AENDY": 33,
    "ADURN": 20,
    "ADURU": "DAY",
    "TRTEMFL": "Y",
    "AOCCFL": "Y",
    "AOCC01FL": "Y",
    "CQ01NAM": "APPLICATION SITE REACTION",
    "AGE": 85,
    "AGEGR1": ">80",
    "SEX": "F",
    "MMSETOT": 12,
    "SAFFL": "Y"
  },
  {
    "STUDYID": "CDISCPILOT01",
    "USUBJID": "01-705-013",
    "AESEQ": 2,
    "TRTP": "Placebo",
    "TRTPN": 0,
    "AETERM": "Insomnia",
    "AEDECOD": "Insomnia",
    "AEBODSYS": "Psychiatric disorders",
    "AECAT": "GENERAL",
    "AESEV": "MODERATE",
    "AETOXGR": 2,
    "ATOXGRN": 2,
    "AESER": "N",
    "AEREL": "RELATED",
    "RELGR1": "Y",
    "RELGR1N": 1,
    "ASTDT": "2013-03-17",
    "AENDT": "2013-03-28",
    "ASTDY": 38,
    "AENDY": 49,
    "ADURN": 12,
    "ADURU": "DAY",
    "TRTEMFL": "Y",
    "AOCCFL": "Y",
    "AOCC01FL": "Y",
    "AGE": 85,
    "AGEGR1": ">80",
    "SEX": "F",
    "MMSETOT": 12,
    "SAFFL": "Y"
  },
  {
    "STUDYID": "CDISCPILOT01",
    "USUBJID": "01-705-014",
    "AESEQ": 1,
    "TRTP": "Xanomeline High Dose",
    "TRTPN": 2,
    "AETERM": "Nasopharyngitis",
    "AEDECOD": "Nasopharyngitis",
    "AEBODSYS": "Infections and infestations",
    "AECAT": "GENERAL",
    "AESEV": "MODERATE",
    "AETOXGR": 2,
    "ATOXGRN": 2,
    "AESER": "N",
    "AEREL": "POSSIBLY RELATED",
    "RELGR1": "Y",
    "RELGR1N": 1,
    "ASTDT": "2013-04-10",
    "AENDT": "2013-04-17",
    "ASTDY": 46,
    "AENDY": 53,
    "ADURN": 8,
    "ADURU": "DAY",
    "TRTEMFL": "Y",
    "AOCCFL": "Y",
    "AOCC01FL": "Y",
    "AGE": 77,
    "AGEGR1": "65-80",
    "SEX": "F",
    "MMSETOT": 18,
    "SAFFL": "Y"
  },
  {
    "STUDYID": "CDISCPILOT01",
    "USUBJID": "01-706-001",
    "AESEQ": 1,
    "TRTP": "Xanomeline High Dose",
    "TRTPN": 2,
    "AETERM": "Nasal congestion",
    "AEDECOD": "Nasal congestion",
    "AEBODSYS": "Respiratory, thoracic and mediastinal disorders",
    "AECAT": "GENERAL",
    "AESEV": "MILD",
    "AETOXGR": 1,
    "ATOXGRN": 1,
    "AESER": "N",
    "AEREL": "NOT RELATED",
    "RELGR1": "N",
    "RELGR1N": 0,
    "ASTDT": "2013-03-13",
    "AENDT": "2013-04-14",
    "ASTDY": 41,
    "AENDY": 73,
    "ADURN": 33,
    "ADURU": "DAY",
    "TRTEMFL": "Y",
    "AOCCFL": "Y",
    "AOCC01FL": "Y",
    "AGE": 80,
    "AGEGR1": ">80",
    "SEX": "M",
    "MMSETOT": 23,
    "SAFFL": "Y"
  },
  {
    "STUDYID": "CDISCPILOT01",
    "USUBJID": "01-706-002",
    "AESEQ": 2,
    "TRTP": "Placebo",
    "TRTPN": 0,
    "AETERM": "Hyperhidrosis",
    "AEDECOD": "Hyperhidrosis",
    "AEBODSYS": "Skin and subcutaneous tissue disorders",
    "AECAT": "GENERAL",
    "AESEV": "MODERATE",
    "AETOXGR": 2,
    "ATOXGRN": 2,
    "AESER": "N",
    "AEREL": "NOT RELATED",
    "RELGR1": "N",
    "RELGR1N": 0,
    "ASTDT": "2013-02-25",
    "AENDT": "2013-03-10",
    "ASTDY": 10,
    "AENDY": 23,
    "ADURN": 14,
    "ADURU": "DAY",
    "TRTEMFL": "Y",
    "AOCCFL": "Y",
    "AOCC01FL": "Y",
    "CQ02NAM": "DERMATOLOGICAL AE",
    "AGE": 63,
    "AGEGR1": "<65",
    "SEX": "F",
    "MMSETOT": 18,
    "SAFFL": "Y"
  },
  {
    "STUDYID": "CDISCPILOT01",
    "USUBJID": "01-706-002",
    "AESEQ": 1,
    "TRTP": "Placebo",
    "TRTPN": 0,
    "AETERM": "Pruritus",
    "AEDECOD": "Pruritus",
    "AEBODSYS": "Skin and subcutaneous tissue disorders",
    "AECAT": "GENERAL",
    "AESEV": "MODERATE",
    "AETOXGR": 2,
    "ATOXGRN": 2,
    "AESER": "N",
    "AEREL": "NOT RELATED",
    "RELGR1": "N",
    "RELGR1N": 0,
    "ASTDT": "2013-04-08",
    "AENDT": "2013-05-03",
    "ASTDY": 52,
    "AENDY": 77,
    "ADURN": 26,
    "ADURU": "DAY",
    "TRTEMFL": "Y",
    "AOCCFL": "Y",
    "CQ02NAM": "DERMATOLOGICAL AE",
    "AGE": 63,
    "AGEGR1": "<65",
    "SEX": "F",
    "MMSETOT": 18,
    "SAFFL": "Y"
  },
  {
    "STUDYID": "CDISCPILOT01",
    "USUBJID": "01-706-003",
    "AESEQ": 1,
    "TRTP": "Xanomeline Low Dose",
    "TRTPN": 1,
    "AETERM": "Erythema",
    "AEDECOD": "Erythema",
    "AEBODSYS": "Skin and subcutaneous tissue disorders",
    "AECAT": "GENERAL",
    "AESEV": "MODERATE",
    "AETOXGR": 2,
    "ATOXGRN": 2,
    "AESER": "N",
    "AEREL": "RELATED",
    "RELGR1": "Y",
    "RELGR1N": 1,
    "ASTDT": "2013-04-10",
    "AENDT": "2013-05-01",
    "ASTDY": 31,
    "AENDY": 52,
    "ADURN": 22,
    "ADURU": "DAY",
    "TRTEMFL": "Y",
    "AOCCFL": "Y",
    "AOCC01FL": "Y",
    "CQ02NAM": "DERMATOLOGICAL AE",
    "AGE": 69,
    "AGEGR1": "65-80",
    "SEX": "M",
    "MMSETOT": 23,
    "SAFFL": "Y"
  },
  {
    "STUDYID": "CDISCPILOT01",
    "USUBJID": "01-707-002",
    "AESEQ": 1,
    "TRTP": "Placebo",
    "TRTPN": 0,
    "AETERM": "Erythema",
    "AEDECOD": "Erythema",
    "AEBODSYS": "Skin and subcutaneous tissue disorders",
    "AECAT": "GENERAL",
    "AESEV": "MODERATE",
    "AETOXGR": 2,
    "ATOXGRN": 2,
    "AESER": "N",
    "AEREL": "RELATED",
    "RELGR1": "Y",
    "RELGR1N": 1,
    "ASTDT": "2013-12-03",
    "AENDT": "2013-12-21",
    "ASTDY": 103,
    "AENDY": 121,
    "ADURN": 19,
    "ADURU": "DAY",
    "TRTEMFL": "Y",
    "AOCCFL": "Y",
    "AOCC01FL": "Y",
    "CQ02NAM": "DERMATOLOGICAL AE",
    "AGE": 83,
    "AGEGR1": ">80",
    "SEX": "M",
    "MMSETOT": 24,
    "SAFFL": "Y"
  },
  {
    "STUDYID": "CDISCPILOT01",
    "USUBJID": "01-707-002",
    "AESEQ": 2,
    "TRTP": "Placebo",
    "TRTPN": 0,
    "AETERM": "Nasopharyngitis",
    "AEDECOD": "Nasopharyngitis",
    "AEBODSYS": "Infections and infestations",
    "AECAT": "GENERAL",
    "AESEV": "MILD",
    "AETOXGR": 1,
    "ATOXGRN": 1,
    "AESER": "N",
    "AEREL": "NOT RELATED",
    "RELGR1": "N",
    "RELGR1N": 0,
    "ASTDT": "2013-10-15",
    "AENDT": "2013-11-06",
    "ASTDY": 54,
    "AENDY": 76,
    "ADURN": 23,
    "ADURU": "DAY",
    "TRTEMFL": "Y",
    "AOCCFL": "Y",
    "AOCC01FL": "Y",
    "AGE": 83,
    "AGEGR1": ">80",
    "SEX": "M",
    "MMSETOT": 24,
    "SAFFL": "Y"
  },
  {
    "STUDYID": "CDISCPILOT01",
    "USUBJID": "01-708-001",
    "AESEQ": 1,
    "TRTP": "Placebo",
    "TRTPN": 0,
    "AETERM": "Application site pruritus",
    "AEDECOD": "Application site pruritus",
    "AEBODSYS": "General disorders and administration site conditions",
    "AECAT": "APPLICATION SITE",
    "AESEV": "MILD",
    "AETOXGR": 1,
    "ATOXGRN": 1,
    "AESER": "N",
    "AEREL": "POSSIBLY RELATED",
    "RELGR1": "Y",
    "RELGR1N": 1,
    "ASTDT": "2013-12-01",
    "AENDT": "2013-12-18",
    "ASTDY": 21,
    "AENDY": 38,
    "ADURN": 18,
    "ADURU": "DAY",
    "TRTEMFL": "Y",
    "AOCCFL": "Y",
    "AOCC01FL": "Y",
    "CQ01NAM": "APPLICATION SITE REACTION",
    "AGE": 87,
    "AGEGR1": ">80",
    "SEX": "F",
    "MMSETOT": 19,
    "SAFFL": "Y"
  },
  {
    "STUDYID": "CDISCPILOT01",
    "USUBJID": "01-708-001",
    "AESEQ": 3,
    "TRTP": "Placebo",
    "TRTPN": 0,
    "AETERM": "Diarrhoea",
    "AEDECOD": "Diarrhoea",
    "AEBODSYS": "Gastrointestinal disorders",
    "AECAT": "GENERAL",
    "AESEV": "MODERATE",
    "AETOXGR": 2,
    "ATOXGRN": 2,
    "AESER": "N",
    "AEREL": "NOT RELATED",
    "RELGR1": "N",
    "RELGR1N": 0,
    "ASTDT": "2014-01-04",
    "AENDT": "2014-02-09",
    "ASTDY": 55,
    "AENDY": 91,
    "ADURN": 37,
    "ADURU": "DAY",
    "TRTEMFL": "Y",
    "AOCCFL": "Y",
    "AOCC01FL": "Y",
    "AGE": 87,
    "AGEGR1": ">80",
    "SEX": "F",
    "MMSETOT": 19,
    "SAFFL": "Y"
  },
  {
    "STUDYID": "CDISCPILOT01",
    "USUBJID": "01-708-001",
    "AESEQ": 2,
    "TRTP": "Placebo",
    "TRTPN": 0,
    "AETERM": "Somnolence",
    "AEDECOD": "Somnolence",
    "AEBODSYS": "Nervous system disorders",
    "AECAT": "GENERAL",
    "AESEV": "MILD",
    "AETOXGR": 1,
    "ATOXGRN": 1,
    "AESER": "N",
    "AEREL": "NOT RELATED",
    "RELGR1": "N",
    "RELGR1N": 0,
    "ASTDT": "2013-11-21",
    "AENDT": "2013-12-05",
    "ASTDY": 11,
    "AENDY": 25,
    "ADURN": 15,
    "ADURU": "DAY",
    "TRTEMFL": "Y",
    "AOCCFL": "Y",
    "AOCC01FL": "Y",
    "AGE": 87,
    "AGEGR1": ">80",
    "SEX": "F",
    "MMSETOT": 19,
    "SAFFL": "Y"
  },
  {
    "STUDYID": "CDISCPILOT01",
    "USUBJID": "01-708-002",
    "AESEQ": 1,
    "TRTP": "Xanomeline Low Dose",
    "TRTPN": 1,
    "AETERM": "Application site pruritus",
    "AEDECOD": "Application site pruritus",
    "AEBODSYS": "General disorders and administration site conditions",
    "AECAT": "APPLICATION SITE",
    "AESEV": "MILD",
    "AETOXGR": 1,
    "ATOXGRN": 1,
    "AESER": "N",
    "AEREL": "RELATED",
    "RELGR1": "Y",
    "RELGR1N": 1,
    "ASTDT": "2013-09-03",
    "AENDT": "2013-09-25",
    "ASTDY": 7,
    "AENDY": 29,
    "ADURN": 23,
    "ADURU": "DAY",
    "TRTEMFL": "Y",
    "AOCCFL": "Y",
    "AOCC01FL": "Y",
    "CQ01NAM": "APPLICATION SITE REACTION",
    "AGE": 83,
    "AGEGR1": ">80",
    "SEX": "M",
    "MMSETOT": 24,
    "SAFFL": "Y"
  },
  {
    "STUDYID": "CDISCPILOT01",
    "USUBJID": "01-708-003",
    "AESEQ": 1,
    "TRTP": "Xanomeline High Dose",
    "TRTPN": 2,
    "AETERM": "Pruritus",
    "AEDECOD": "Pruritus",
    "AEBODSYS": "Skin and subcutaneous tissue disorders",
    "AECAT": "GENERAL",
    "AESEV": "MILD",
    "AETOXGR": 1,
    "ATOXGRN": 1,
    "AESER": "N",
    "AEREL": "RELATED",
    "RELGR1": "Y",
    "RELGR1N": 1,
    "ASTDT": "2013-11-05",
    "AENDT": "2013-11-20",
    "ASTDY": 8,
    "AENDY": 23,
    "ADURN": 16,
    "ADURU": "DAY",
    "TRTEMFL": "Y",
    "AOCCFL": "Y",
    "AOCC01FL": "Y",
    "CQ02NAM": "DERMATOLOGICAL AE",
    "AGE": 67,
    "AGEGR1": "65-80",
    "SEX": "M",
    "MMSETOT": 15,
    "SAFFL": "Y"
  },
  {
    "STUDYID": "CDISCPILOT01",
    "USUBJID": "01-708-006",
    "AESEQ": 1,
    "TRTP": "Xanomeline Low Dose",
    "TRTPN": 1,
    "AETERM": "Application site pruritus",
    "AEDECOD": "Application site pruritus",
    "AEBODSYS": "General disorders and administration site conditions",
    "AECAT": "APPLICATION SITE",
    "AESEV": "MODERATE",
    "AETOXGR": 2,
    "ATOXGRN": 2,
    "AESER": "N",
    "AEREL": "RELATED",
    "RELGR1": "Y",
    "RELGR1N": 1,
    "ASTDT": "2013-10-31",
    "AENDT": "2013-11-07",
    "ASTDY": 25,
    "AENDY": 32,
    "ADURN": 8,
    "ADURU": "DAY",
    "TRTEMFL": "Y",
    "AOCCFL": "Y",
    "AOCC01FL": "Y",
    "CQ01NAM": "APPLICATION SITE REACTION",
    "AGE": 70,
    "AGEGR1": "65-80",
    "SEX": "F",
    "MMSETOT": 23,
    "SAFFL": "Y"
  },
  {
    "STUDYID": "CDISCPILOT01",
    "USUBJID": "01-708-006",
    "AESEQ": 4,
    "TRTP": "Xanomeline Low Dose",
    "TRTPN": 1,
    "AETERM": "Fatigue",
    "AEDECOD": "Fatigue",
    "AEBODSYS": "General disorders and administration site conditions",
    "AECAT": "GENERAL",
    "AESEV": "MILD",
    "AETOXGR": 1,
    "ATOXGRN": 1,
    "AESER": "N",
    "AEREL": "NOT RELATED",
    "RELGR1": "N",
    "RELGR1N": 0,
    "ASTDT": "2013-11-03",
    "AENDT": "2013-11-26",
    "ASTDY": 28,
    "AENDY": 51,
    "ADURN": 24,
    "ADURU": "DAY",
    "TRTEMFL": "Y",
    "AOCCFL": "Y",
    "AGE": 70,
    "AGEGR1": "65-80",
    "SEX": "F",
    "MMSETOT": 23,
    "SAFFL": "Y"
  },
  {
    "STUDYID": "CDISCPILOT01",
    "USUBJID": "01-708-006",
    "AESEQ": 2,
    "TRTP": "Xanomeline Low Dose",
    "TRTPN": 1,
    "AETERM": "Pruritus",
    "AEDECOD": "Pruritus",
    "AEBODSYS": "Skin and subcutaneous tissue disorders",
    "AECAT": "GENERAL",
    "AESEV": "MODERATE",
    "AETOXGR": 2,
    "ATOXGRN": 2,
    "AESER": "N",
    "AEREL": "RELATED",
    "RELGR1": "Y",
    "RELGR1N": 1,
    "ASTDT": "2013-11-20",
    "AENDT": "2013-12-06",
    "ASTDY": 45,
    "AENDY": 61,
    "ADURN": 17,
    "ADURU": "DAY",
    "TRTEMFL": "Y",
    "AOCCFL": "Y",
    "AOCC01FL": "Y",
    "CQ02NAM": "DERMATOLOGICAL AE",
    "AGE": 70,
    "AGEGR1": "65-80",
    "SEX": "F",
    "MMSETOT": 23,
    "SAFFL": "Y"
  },
  {
    "STUDYID": "CDISCPILOT01",
    "USUBJID": "01-708-006",
    "AESEQ": 3,
    "TRTP": "Xanomeline Low Dose",
    "TRTPN": 1,
    "AETERM": "Rash",
    "AEDECOD": "Rash",
    "AEBODSYS": "Skin and subcutaneous tissue disorders",
    "AECAT": "GENERAL",
    "AESEV": "MODERATE",
    "AETOXGR": 2,
    "ATOXGRN": 2,
    "AESER": "N",
    "AEREL": "RELATED",
    "RELGR1": "Y",
    "RELGR1N": 1,
    "ASTDT": "2013-12-21",
    "AENDT": "2014-02-04",
    "ASTDY": 76,
    "AENDY": 121,
    "ADURN": 46,
    "ADURU": "DAY",
    "TRTEMFL": "Y",
    "AOCCFL": "Y",
    "CQ02NAM": "DERMATOLOGICAL AE",
    "AGE": 70,
    "AGEGR1": "65-80",
    "SEX": "F",
    "MMSETOT": 23,
    "SAFFL": "Y"
  },
  {
    "STUDYID": "CDISCPILOT01",
    "USUBJID": "01-708-007",
    "AESEQ": 3,
    "TRTP": "Xanomeline High Dose",
    "TRTPN": 2,
    "AETERM": "Application site dermatitis",
    "AEDECOD": "Application site dermatitis",
    "AEBODSYS": "General disorders and administration site conditions",
    "AECAT": "APPLICATION SITE",
    "AESEV": "MODERATE",
    "AETOXGR": 2,
    "ATOXGRN": 2,
    "AESER": "N",
    "AEREL": "RELATED",
    "RELGR1": "Y",
    "RELGR1N": 1,
    "ASTDT": "2013-05-30",
    "AENDT": "2013-06-08",
    "ASTDY": 11,
    "AENDY": 20,
    "ADURN": 10,
    "ADURU": "DAY",
    "TRTEMFL": "Y",
    "AOCCFL": "Y",
    "AOCC01FL": "Y",
    "CQ01NAM": "APPLICATION SITE REACTION",
    "AGE": 83,
    "AGEGR1": ">80",
    "SEX": "F",
    "MMSETOT": 21,
    "SAFFL": "Y"
  },
  {
    "STUDYID": "CDISCPILOT01",
    "USUBJID": "01-708-007",
    "AESEQ": 2,
    "TRTP": "Xanomeline High Dose",
    "TRTPN": 2,
    "AETERM": "Application site erythema",
    "AEDECOD": "Application site erythema",
    "AEBODSYS": "General disorders and administration site conditions",
    "AECAT": "APPLICATION SITE",
    "AESEV": "MODERATE",
    "AETOXGR": 2,
    "ATOXGRN": 2,
    "AESER": "N",
    "AEREL": "RELATED",
    "RELGR1": "Y",
    "RELGR1N": 1,
    "ASTDT": "2013-05-25",
    "AENDT": "2013-06-17",
    "ASTDY": 6,
    "AENDY": 29,
    "ADURN": 24,
    "ADURU": "DAY",
    "TRTEMFL": "Y",
    "AOCCFL": "Y",
    "CQ01NAM": "APPLICATION SITE REACTION",
    "AGE": 83,
    "AGEGR1": ">80",
    "SEX": "F",
    "MMSETOT": 21,
    "SAFFL": "Y"
  },
  {
    "STUDYID": "CDISCPILOT01",
    "USUBJID": "01-708-007",
    "AESEQ": 1,
    "TRTP": "Xanomeline High Dose",
    "TRTPN": 2,
    "AETERM": "Application site pruritus",
    "AEDECOD": "Application site pruritus",
    "AEBODSYS": "General disorders and administration site conditions",
    "AECAT": "APPLICATION SITE",
    "AESEV": "MILD",
    "AETOXGR": 1,
    "ATOXGRN": 1,
    "AESER": "N",
    "AEREL": "RELATED",
    "RELGR1": "Y",
    "RELGR1N": 1,
    "ASTDT": "2013-06-04",
    "AENDT": "2013-06-20",
    "ASTDY": 16,
    "AENDY": 32,
    "ADURN": 17,
    "ADURU": "DAY",
    "TRTEMFL": "Y",
    "AOCCFL": "Y",
    "CQ01NAM": "APPLICATION SITE REACTION",
    "AGE": 83,
    "AGEGR1": ">80",
    "SEX": "F",
    "MMSETOT": 21,
    "SAFFL": "Y"
  },
  {
    "STUDYID": "CDISCPILOT01",
    "USUBJID": "01-708-010",
    "AESEQ": 1,
    "TRTP": "Xanomeline Low Dose",
    "TRTPN": 1,
    "AETERM": "Application site erythema",
    "AEDECOD": "Application site erythema",
    "AEBODSYS": "General disorders and administration site conditions",
    "AECAT": "APPLICATION SITE",
    "AESEV": "MODERATE",
    "AETOXGR": 2,
    "ATOXGRN": 2,
    "AESER": "N",
    "AEREL": "RELATED",
    "RELGR1": "Y",
    "RELGR1N": 1,
    "ASTDT": "2013-08-01",
    "AENDT": "2013-08-08",
    "ASTDY": 27,
    "AENDY": 34,
    "ADURN": 8,
    "ADURU": "DAY",
    "TRTEMFL": "Y",
    "AOCCFL": "Y",
    "AOCC01FL": "Y",
    "CQ01NAM": "APPLICATION SITE REACTION",
    "AGE": 68,
    "AGEGR1": "65-80",
    "SEX": "F",
    "MMSETOT": 18,
    "SAFFL": "Y"
  },
  {
    "STUDYID": "CDISCPILOT01",
    "USUBJID": "01-708-011",
    "AESEQ": 1,
    "TRTP": "Xanomeline Low Dose",
    "TRTPN": 1,
    "AETERM": "Application site pruritus",
    "AEDECOD": "Application site pruritus",
    "AEBODSYS": "General disorders and administration site conditions",
    "AECAT": "APPLICATION SITE",
    "AESEV": "MILD",
    "AETOXGR": 1,
    "ATOXGRN": 1,
    "AESER": "N",
    "AEREL": "RELATED",
    "RELGR1": "Y",
    "RELGR1N": 1,
    "ASTDT": "2013-12-25",
    "AENDT": "2014-01-13",
    "ASTDY": 22,
    "AENDY": 41,
    "ADURN": 20,
    "ADURU": "DAY",
    "TRTEMFL": "Y",
    "AOCCFL": "Y",
    "AOCC01FL": "Y",
    "CQ01NAM": "APPLICATION SITE REACTION",
    "AGE": 63,
    "AGEGR1": "<65",
    "SEX": "F",
    "MMSETOT": 19,
    "SAFFL": "Y"
  },
  {
    "STUDYID": "CDISCPILOT01",
    "USUBJID": "01-708-012",
    "AESEQ": 1,
    "TRTP": "Placebo",
    "TRTPN": 0,
    "AETERM": "Application site vesicles",
    "AEDECOD": "Application site vesicles",
    "AEBODSYS": "General disorders and administration site conditions",
    "AECAT": "APPLICATION SITE",
    "AESEV": "MODERATE",
    "AETOXGR": 2,
    "ATOXGRN": 2,
    "AESER": "N",
    "AEREL": "POSSIBLY RELATED",
    "RELGR1": "Y",
    "RELGR1N": 1,
    "ASTDT": "2013-06-26",
    "AENDT": "2013-07-07",
    "ASTDY": 18,
    "AENDY": 29,
    "ADURN": 12,
    "ADURU": "DAY",
    "TRTEMFL": "Y",
    "AOCCFL": "Y",
    "AOCC01FL": "Y",
    "CQ01NAM": "APPLICATION SITE REACTION",
    "AGE": 89,
    "AGEGR1": ">80",
    "SEX": "F",
    "MMSETOT": 12,
    "SAFFL": "Y"
  },
  {
    "STUDYID": "CDISCPILOT01",
    "USUBJID": "01-708-012",
    "AESEQ": 2,
    "TRTP": "Placebo",
    "TRTPN": 0,
    "AETERM": "Confusional state",
    "AEDECOD": "Confusional state",
    "AEBODSYS": "Psychiatric disorders",
    "AECAT": "GENERAL",
    "AESEV": "MODERATE",
    "AETOXGR": 2,
    "ATOXGRN": 2,
    "AESER": "N",
    "AEREL": "POSSIBLY RELATED",
    "RELGR1": "Y",
    "RELGR1N": 1,
    "ASTDT": "2013-06-20",
    "AENDT": "2013-08-25",
    "ASTDY": 12,
    "AENDY": 78,
    "ADURN": 67,
    "ADURU": "DAY",
    "TRTEMFL": "Y",
    "AOCCFL": "Y",
    "AOCC01FL": "Y",
    "AGE": 89,
    "AGEGR1": ">80",
    "SEX": "F",
    "MMSETOT": 12,
    "SAFFL": "Y"
  },
  {
    "STUDYID": "CDISCPILOT01",
    "USUBJID": "01-708-013",
    "AESEQ": 2,
    "TRTP": "Xanomeline High Dose",
    "TRTPN": 2,
    "AETERM": "Dizziness",
    "AEDECOD": "Dizziness",
    "AEBODSYS": "Nervous system disorders",
    "AECAT": "GENERAL",
    "AESEV": "MODERATE",
    "AETOXGR": 2,
    "ATOXGRN": 2,
    "AESER": "N",
    "AEREL": "NOT RELATED",
    "RELGR1": "N",
    "RELGR1N": 0,
    "ASTDT": "2013-04-19",
    "AENDT": "2013-05-16",
    "ASTDY": 16,
    "AENDY": 43,
    "ADURN": 28,
    "ADURU": "DAY",
    "TRTEMFL": "Y",
    "AOCCFL": "Y",
    "AOCC01FL": "Y",
    "AGE": 81,
    "AGEGR1": ">80",
    "SEX": "M",
    "MMSETOT": 22,
    "SAFFL": "Y"
  },
  {
    "STUDYID": "CDISCPILOT01",
    "USUBJID": "01-708-013",
    "AESEQ": 1,
    "TRTP": "Xanomeline High Dose",
    "TRTPN": 2,
    "AETERM": "Erythema",
    "AEDECOD": "Erythema",
    "AEBODSYS": "Skin and subcutaneous tissue disorders",
    "AECAT": "GENERAL",
    "AESEV": "MILD",
    "AETOXGR": 1,
    "ATOXGRN": 1,
    "AESER": "Y",
    "AEREL": "POSSIBLY RELATED",
    "RELGR1": "Y",
    "RELGR1N": 1,
    "ASTDT": "2013-05-15",
    "AENDT": "2013-05-29",
    "ASTDY": 42,
    "AENDY": 56,
    "ADURN": 15,
    "ADURU": "DAY",
    "TRTEMFL": "Y",
    "AOCCFL": "Y",
    "AOCC01FL": "Y",
    "AOCCPFL": "Y",
    "CQ02NAM": "DERMATOLOGICAL AE",
    "AGE": 81,
    "AGEGR1": ">80",
    "SEX": "M",
    "MMSETOT": 22,
    "SAFFL": "Y"
  },
  {
    "STUDYID": "CDISCPILOT01",
    "USUBJID": "01-708-015",
    "AESEQ": 1,
    "TRTP": "Placebo",
    "TRTPN": 0,
    "AETERM": "Diarrhoea",
    "AEDECOD": "Diarrhoea",
    "AEBODSYS": "Gastrointestinal disorders",
    "AECAT": "GENERAL",
    "AESEV": "MODERATE",
    "AETOXGR": 2,
    "ATOXGRN": 2,
    "AESER": "N",
    "AEREL": "NOT RELATED",
    "RELGR1": "N",
    "RELGR1N": 0,
    "ASTDT": "2013-12-10",
    "AENDT": "2013-12-19",
    "ASTDY": 66,
    "AENDY": 75,
    "ADURN": 10,
    "ADURU": "DAY",
    "TRTEMFL": "Y",
    "AOCCFL": "Y",
    "AOCC01FL": "Y",
    "AGE": 80,
    "AGEGR1": ">80",
    "SEX": "M",
    "MMSETOT": 15,
    "SAFFL": "Y"
  },
  {
    "STUDYID": "CDISCPILOT01",
    "USUBJID": "01-708-015",
    "AESEQ": 2,
    "TRTP": "Placebo",
    "TRTPN": 0,
    "AETERM": "Myocardial infarction",
    "AEDECOD": "Myocardial infarction",
    "AEBODSYS": "Cardiac disorders",
    "AECAT": "GENERAL",
    "AESEV": "MILD",
    "AETOXGR": 1,
    "ATOXGRN": 1,
    "AESER": "N",
    "AEREL": "RELATED",
    "RELGR1": "Y",
    "RELGR1N": 1,
    "ASTDT": "2013-12-26",
    "AENDT": "2014-01-01",
    "ASTDY": 82,
    "AENDY": 88,
    "ADURN": 7,
    "ADURU": "DAY",
    "TRTEMFL": "Y",
    "AOCCFL": "Y",
    "AOCC01FL": "Y",
    "AGE": 80,
    "AGEGR1": ">80",
    "SEX": "M",
    "MMSETOT": 15,
    "SAFFL": "Y"
  },
  {
    "STUDYID": "CDISCPILOT01",
    "USUBJID": "01-708-017",
    "AESEQ": 1,
    "TRTP": "Xanomeline High Dose",
    "TRTPN": 2,
    "AETERM": "Application site erythema",
    "AEDECOD": "Application site erythema",
    "AEBODSYS": "General disorders and administration site conditions",
    "AECAT": "APPLICATION SITE",
    "AESEV": "MILD",
    "AETOXGR": 1,
    "ATOXGRN": 1,
    "AESER": "N",
    "AEREL": "RELATED",
    "RELGR1": "Y",
    "RELGR1N": 1,
    "ASTDT": "2013-10-19",
    "AENDT": "2013-10-30",
    "ASTDY": 9,
    "AENDY": 20,
    "ADURN": 12,
    "ADURU": "DAY",
    "TRTEMFL": "Y",
    "AOCCFL": "Y",
    "AOCC01FL": "Y",
    "CQ01NAM": "APPLICATION SITE REACTION",
    "AGE": 65,
    "AGEGR1": "65-80",
    "SEX": "F",
    "MMSETOT": 19,
    "SAFFL": "Y"
  },
  {
    "STUDYID": "CDISCPILOT01",
    "USUBJID": "01-708-017",
    "AESEQ": 2,
    "TRTP": "Xanomeline High Dose",
    "TRTPN": 2,
    "AETERM": "Pruritus",
    "AEDECOD": "Pruritus",
    "AEBODSYS": "Skin and subcutaneous tissue disorders",
    "AECAT": "GENERAL",
    "AESEV": "SEVERE",
    "AETOXGR": 3,
    "ATOXGRN": 3,
    "AESER": "Y",
    "AEREL": "POSSIBLY RELATED",
    "RELGR1": "Y",
    "RELGR1N": 1,
    "ASTDT": "2013-11-24",
    "AENDT": "2013-12-22",
    "ASTDY": 45,
    "AENDY": 73,
    "ADURN": 29,
    "ADURU": "DAY",
    "TRTEMFL": "Y",
    "AOCCFL": "Y",
    "AOCC01FL": "Y",
    "AOCCPFL": "Y",
    "CQ02NAM": "DERMATOLOGICAL AE",
    "AGE": 65,
    "AGEGR1": "65-80",
    "SEX": "F",
    "MMSETOT": 19,
    "SAFFL": "Y"
  },
  {
    "STUDYID": "CDISCPILOT01",
    "USUBJID": "01-708-017",
    "AESEQ": 3,
    "TRTP": "Xanomeline High Dose",
    "TRTPN": 2,
    "AETERM": "Rash",
    "AEDECOD": "Rash",
    "AEBODSYS": "Skin and subcutaneous tissue disorders",
    "AECAT": "GENERAL",
    "AESEV": "MILD",
    "AETOXGR": 1,
    "ATOXGRN": 1,
    "AESER": "N",
    "AEREL": "RELATED",
    "RELGR1": "Y",
    "RELGR1N": 1,
    "ASTDT": "2013-10-27",
    "AENDT": "2013-11-07",
    "ASTDY": 17,
    "AENDY": 28,
    "ADURN": 12,
    "ADURU": "DAY",
    "TRTEMFL": "Y",
    "AOCCFL": "Y",
    "CQ02NAM": "DERMATOLOGICAL AE",
    "AGE": 65,
    "AGEGR1": "65-80",
    "SEX": "F",
    "MMSETOT": 19,
    "SAFFL": "Y"
  },
  {
    "STUDYID": "CDISCPILOT01",
    "USUBJID": "01-708-020",
    "AESEQ": 1,
    "TRTP": "Placebo",
    "TRTPN": 0,
    "AETERM": "Erythema",
    "AEDECOD": "Erythema",
    "AEBODSYS": "Skin and subcutaneous tissue disorders",
    "AECAT": "GENERAL",
    "AESEV": "MODERATE",
    "AETOXGR": 2,
    "ATOXGRN": 2,
    "AESER": "N",
    "AEREL": "NOT RELATED",
    "RELGR1": "N",
    "RELGR1N": 0,
    "ASTDT": "2013-10-16",
    "AENDT": "2013-10-25",
    "ASTDY": 82,
    "AENDY": 91,
    "ADURN": 10,
    "ADURU": "DAY",
    "TRTEMFL": "Y",
    "AOCCFL": "Y",
    "AOCC01FL": "Y",
    "CQ02NAM": "DERMATOLOGICAL AE",
    "AGE": 73,
    "AGEGR1": "65-80",
    "SEX": "F",
    "MMSETOT": 11,
    "SAFFL": "Y"
  },
  {
    "STUDYID": "CDISCPILOT01",
    "USUBJID": "01-708-020",
    "AESEQ": 2,
    "TRTP": "Placebo",
    "TRTPN": 0,
    "AETERM": "Skin irritation",
    "AEDECOD": "Skin irritation",
    "AEBODSYS": "Skin and subcutaneous tissue disorders",
    "AECAT": "GENERAL",
    "AESEV": "MILD",
    "AETOXGR": 1,
    "ATOXGRN": 1,
    "AESER": "N",
    "AEREL": "RELATED",
    "RELGR1": "Y",
    "RELGR1N": 1,
    "ASTDT": "2013-11-03",
    "AENDT": "2013-11-06",
    "ASTDY": 100,
    "AENDY": 103,
    "ADURN": 4,
    "ADURU": "DAY",
    "TRTEMFL": "Y",
    "AOCCFL": "Y",
    "CQ02NAM": "DERMATOLOGICAL AE",
    "AGE": 73,
    "AGEGR1": "65-80",
    "SEX": "F",
    "MMSETOT": 11,
    "SAFFL": "Y"
  },
  {
    "STUDYID": "CDISCPILOT01",
    "USUBJID": "01-709-002",
    "AESEQ": 1,
    "TRTP": "Placebo",
    "TRTPN": 0,
    "AETERM": "Application site pruritus",
    "AEDECOD": "Application site pruritus",
    "AEBODSYS": "General disorders and administration site conditions",
    "AECAT": "APPLICATION SITE",
    "AESEV": "MILD",
    "AETOXGR": 1,
    "ATOXGRN": 1,
    "AESER": "N",
    "AEREL": "RELATED",
    "RELGR1": "Y",
    "RELGR1N": 1,
    "ASTDT": "2013-03-08",
    "AENDT": "2013-03-22",
    "ASTDY": 14,
    "AENDY": 28,
    "ADURN": 15,
    "ADURU": "DAY",
    "TRTEMFL": "Y",
    "AOCCFL": "Y",
    "AOCC01FL": "Y",
    "CQ01NAM": "APPLICATION SITE REACTION",
    "AGE": 84,
    "AGEGR1": ">80",
    "SEX": "M",
    "MMSETOT": 15,
    "SAFFL": "Y"
  },
  {
    "STUDYID": "CDISCPILOT01",
    "USUBJID": "01-709-002",
    "AESEQ": 2,
    "TRTP": "Placebo",
    "TRTPN": 0,
    "AETERM": "Erythema",
    "AEDECOD": "Erythema",
    "AEBODSYS": "Skin and subcutaneous tissue disorders",
    "AECAT": "GENERAL",
    "AESEV": "MILD",
    "AETOXGR": 1,
    "ATOXGRN": 1,
    "AESER": "N",
    "AEREL": "POSSIBLY RELATED",
    "RELGR1": "Y",
    "RELGR1N": 1,
    "ASTDT": "2013-03-04",
    "AENDT": "2013-03-23",
    "ASTDY": 10,
    "AENDY": 29,
    "ADURN": 20,
    "ADURU": "DAY",
    "TRTEMFL": "Y",
    "AOCCFL": "Y",
    "AOCC01FL": "Y",
    "CQ02NAM": "DERMATOLOGICAL AE",
    "AGE": 84,
    "AGEGR1": ">80",
    "SEX": "M",
    "MMSETOT": 15,
    "SAFFL": "Y"
  },
  {
    "STUDYID": "CDISCPILOT01",
    "USUBJID": "01-709-002",
    "AESEQ": 3,
    "TRTP": "Placebo",
    "TRTPN": 0,
    "AETERM": "Nausea",
    "AEDECOD": "Nausea",
    "AEBODSYS": "Gastrointestinal disorders",
    "AECAT": "GENERAL",
    "AESEV": "MODERATE",
    "AETOXGR": 2,
    "ATOXGRN": 2,
    "AESER": "N",
    "AEREL": "POSSIBLY RELATED",
    "RELGR1": "Y",
    "RELGR1N": 1,
    "ASTDT": "2013-05-25",
    "AENDT": "2013-07-04",
    "ASTDY": 92,
    "AENDY": 132,
    "ADURN": 41,
    "ADURU": "DAY",
    "TRTEMFL": "Y",
    "AOCCFL": "Y",
    "AOCC01FL": "Y",
    "AGE": 84,
    "AGEGR1": ">80",
    "SEX": "M",
    "MMSETOT": 15,
    "SAFFL": "Y"
  },
  {
    "STUDYID": "CDISCPILOT01",
    "USUBJID": "01-709-003",
    "AESEQ": 1,
    "TRTP": "Xanomeline High Dose",
    "TRTPN": 2,
    "AETERM": "Application site pruritus",
    "AEDECOD": "Application site pruritus",
    "AEBODSYS": "General disorders and administration site conditions",
    "AECAT": "APPLICATION SITE",
    "AESEV": "MILD",
    "AETOXGR": 1,
    "ATOXGRN": 1,
    "AESER": "N",
    "AEREL": "RELATED",
    "RELGR1": "Y",
    "RELGR1N": 1,
    "ASTDT": "2013-11-03",
    "AENDT": "2013-11-07",
    "ASTDY": 14,
    "AENDY": 18,
    "ADURN": 5,
    "ADURU": "DAY",
    "TRTEMFL": "Y",
    "AOCCFL": "Y",
    "AOCC01FL": "Y",
    "CQ01NAM": "APPLICATION SITE REACTION",
    "AGE": 69,
    "AGEGR1": "65-80",
    "SEX": "F",
    "MMSETOT": 24,
    "SAFFL": "Y"
  },
  {
    "STUDYID": "CDISCPILOT01",
    "USUBJID": "01-709-003",
    "AESEQ": 3,
    "TRTP": "Xanomeline High Dose",
    "TRTPN": 2,
    "AETERM": "Dizziness",
    "AEDECOD": "Dizziness",
    "AEBODSYS": "Nervous system disorders",
    "AECAT": "GENERAL",
    "AESEV": "MODERATE",
    "AETOXGR": 2,
    "ATOXGRN": 2,
    "AESER": "N",
    "AEREL": "NOT RELATED",
    "RELGR1": "N",
    "RELGR1N": 0,
    "ASTDT": "2013-10-29",
    "AENDT": "2013-12-05",
    "ASTDY": 9,
    "AENDY": 46,
    "ADURN": 38,
    "ADURU": "DAY",
    "TRTEMFL": "Y",
    "AOCCFL": "Y",
    "AOCC01FL": "Y",
    "AGE": 69,
    "AGEGR1": "65-80",
    "SEX": "F",
    "MMSETOT": 24,
    "SAFFL": "Y"
  },
  {
    "STUDYID": "CDISCPILOT01",
    "USUBJID": "01-709-003",
    "AESEQ": 4,
    "TRTP": "Xanomeline High Dose",
    "TRTPN": 2,
    "AETERM": "Nasal congestion",
    "AEDECOD": "Nasal congestion",
    "AEBODSYS": "Respiratory, thoracic and mediastinal disorders",
    "AECAT": "GENERAL",
    "AESEV": "MODERATE",
    "AETOXGR": 2,
    "ATOXGRN": 2,
    "AESER": "Y",
    "AEREL": "POSSIBLY RELATED",
    "RELGR1": "Y",
    "RELGR1N": 1,
    "ASTDT": "2013-12-20",
    "AENDT": "2014-01-10",
    "ASTDY": 61,
    "AENDY": 82,
    "ADURN": 22,
    "ADURU": "DAY",
    "TRTEMFL": "Y",
    "AOCCFL": "Y",
    "AOCC01FL": "Y",
    "AOCCPFL": "Y",
    "AGE": 69,
    "AGEGR1": "65-80",
    "SEX": "F",
    "MMSETOT": 24,
    "SAFFL": "Y"
  },
  {
    "STUDYID": "CDISCPILOT01",
    "USUBJID": "01-709-003",
    "AESEQ": 2,
    "TRTP": "Xanomeline High Dose",
    "TRTPN": 2,
    "AETERM": "Rash",
    "AEDECOD": "Rash",
    "AEBODSYS": "Skin and subcutaneous tissue disorders",
    "AECAT": "GENERAL",
    "AESEV": "MODERATE",
    "AETOXGR": 2,
    "ATOXGRN": 2,
    "AESER": "N",
    "AEREL": "RELATED",
    "RELGR1": "Y",
    "RELGR1N": 1,
    "ASTDT": "2013-11-25",
    "AENDT": "2013-12-05",
    "ASTDY": 36,
    "AENDY": 46,
    "ADURN": 11,
    "ADURU": "DAY",
    "TRTEMFL": "Y",
    "AOCCFL": "Y",
    "AOCC01FL": "Y",
    "CQ02NAM": "DERMATOLOGICAL AE",
    "AGE": 69,
    "AGEGR1": "65-80",
    "SEX": "F",
    "MMSETOT": 24,
    "SAFFL": "Y"
  },
  {
    "STUDYID": "CDISCPILOT01",
    "USUBJID": "01-709-004",
    "AESEQ": 1,
    "TRTP": "Xanomeline High Dose",
    "TRTPN": 2,
    "AETERM": "Application site irritation",
    "AEDECOD": "Application site irritation",
    "AEBODSYS": "General disorders and administration site conditions",
    "AECAT": "APPLICATION SITE",
    "AESEV": "MODERATE",
    "AETOXGR": 2,
    "ATOXGRN": 2,
    "AESER": "N",
    "AEREL": "RELATED",
    "RELGR1": "Y",
    "RELGR1N": 1,
    "ASTDT": "2013-10-25",
    "AENDT": "2013-11-05",
    "ASTDY": 11,
    "AENDY": 22,
    "ADURN": 12,
    "ADURU": "DAY",
    "TRTEMFL": "Y",
    "AOCCFL": "Y",
    "AOCC01FL": "Y",
    "CQ01NAM": "APPLICATION SITE REACTION",
    "AGE": 75,
    "AGEGR1": "65-80",
    "SEX": "F",
    "MMSETOT": 11,
    "SAFFL": "Y"
  },
  {
    "STUDYID": "CDISCPILOT01",
    "USUBJID": "01-709-004",
    "AESEQ": 3,
    "TRTP": "Xanomeline High Dose",
    "TRTPN": 2,
    "AETERM": "Erythema",
    "AEDECOD": "Erythema",
    "AEBODSYS": "Skin and subcutaneous tissue disorders",
    "AECAT": "GENERAL",
    "AESEV": "MODERATE",
    "AETOXGR": 2,
    "ATOXGRN": 2,
    "AESER": "N",
    "AEREL": "NOT RELATED",
    "RELGR1": "N",
    "RELGR1N": 0,
    "ASTDT": "2013-11-07",
    "AENDT": "2013-11-22",
    "ASTDY": 24,
    "AENDY": 39,
    "ADURN": 16,
    "ADURU": "DAY",
    "TRTEMFL": "Y",
    "AOCCFL": "Y",
    "AOCC01FL": "Y",
    "CQ02NAM": "DERMATOLOGICAL AE",
    "AGE": 75,
    "AGEGR1": "65-80",
    "SEX": "F",
    "MMSETOT": 11,
    "SAFFL": "Y"
  },
  {
    "STUDYID": "CDISCPILOT01",
    "USUBJID": "01-709-004",
    "AESEQ": 4,
    "TRTP": "Xanomeline High Dose",
    "TRTPN": 2,
    "AETERM": "Fatigue",
    "AEDECOD": "Fatigue",
    "AEBODSYS": "General disorders and administration site conditions",
    "AECAT": "GENERAL",
    "AESEV": "MILD",
    "AETOXGR": 1,
    "ATOXGRN": 1,
    "AESER": "N",
    "AEREL": "RELATED",
    "RELGR1": "Y",
    "RELGR1N": 1,
    "ASTDT": "2013-12-03",
    "AENDT": "2013-12-20",
    "ASTDY": 50,
    "AENDY": 67,
    "ADURN": 18,
    "ADURU": "DAY",
    "TRTEMFL": "Y",
    "AOCCFL": "Y",
    "AGE": 75,
    "AGEGR1": "65-80",
    "SEX": "F",
    "MMSETOT": 11,
    "SAFFL": "Y"
  },
  {
    "STUDYID": "CDISCPILOT01",
    "USUBJID": "01-709-004",
    "AESEQ": 2,
    "TRTP": "Xanomeline High Dose",
    "TRTPN": 2,
    "AETERM": "Pruritus",
    "AEDECOD": "Pruritus",
    "AEBODSYS": "Skin and subcutaneous tissue disorders",
    "AECAT": "GENERAL",
    "AESEV": "MILD",
    "AETOXGR": 1,
    "ATOXGRN": 1,
    "AESER": "N",
    "AEREL": "RELATED",
    "RELGR1": "Y",
    "RELGR1N": 1,
    "ASTDT": "2013-10-23",
    "AENDT": "2013-12-07",
    "ASTDY": 9,
    "AENDY": 54,
    "ADURN": 46,
    "ADURU": "DAY",
    "TRTEMFL": "Y",
    "AOCCFL": "Y",
    "CQ02NAM": "DERMATOLOGICAL AE",
    "AGE": 75,
    "AGEGR1": "65-80",
    "SEX": "F",
    "MMSETOT": 11,
    "SAFFL": "Y"
  },
  {
    "STUDYID": "CDISCPILOT01",
    "USUBJID": "01-709-005",
    "AESEQ": 1,
    "TRTP": "Xanomeline High Dose",
    "TRTPN": 2,
    "AETERM": "Erythema",
    "AEDECOD": "Erythema",
    "AEBODSYS": "Skin and subcutaneous tissue disorders",
    "AECAT": "GENERAL",
    "AESEV": "MODERATE",
    "AETOXGR": 2,
    "ATOXGRN": 2,
    "AESER": "N",
    "AEREL": "NOT RELATED",
    "RELGR1": "N",
    "RELGR1N": 0,
    "ASTDT": "2013-04-17",
    "AENDT": "2013-05-09",
    "ASTDY": 35,
    "AENDY": 57,
    "ADURN": 23,
    "ADURU": "DAY",
    "TRTEMFL": "Y",
    "AOCCFL": "Y",
    "AOCC01FL": "Y",
    "CQ02NAM": "DERMATOLOGICAL AE",
    "AGE": 89,
    "AGEGR1": ">80",
    "SEX": "F",
    "MMSETOT": 17,
    "SAFFL": "Y"
  },
  {
    "STUDYID": "CDISCPILOT01",
    "USUBJID": "01-709-005",
    "AESEQ": 2,
    "TRTP": "Xanomeline High Dose",
    "TRTPN": 2,
    "AETERM": "Rash",
    "AEDECOD": "Rash",
    "AEBODSYS": "Skin and subcutaneous tissue disorders",
    "AECAT": "GENERAL",
    "AESEV": "MODERATE",
    "AETOXGR": 2,
    "ATOXGRN": 2,
    "AESER": "N",
    "AEREL": "RELATED",
    "RELGR1": "Y",
    "RELGR1N": 1,
    "ASTDT": "2013-03-22",
    "AENDT": "2013-04-11",
    "ASTDY": 9,
    "AENDY": 29,
    "ADURN": 21,
    "ADURU": "DAY",
    "TRTEMFL": "Y",
    "AOCCFL": "Y",
    "CQ02NAM": "DERMATOLOGICAL AE",
    "AGE": 89,
    "AGEGR1": ">80",
    "SEX": "F",
    "MMSETOT": 17,
    "SAFFL": "Y"
  },
  {
    "STUDYID": "CDISCPILOT01",
    "USUBJID": "01-709-006",
    "AESEQ": 1,
    "TRTP": "Xanomeline Low Dose",
    "TRTPN": 1,
    "AETERM": "Application site erythema",
    "AEDECOD": "Application site erythema",
    "AEBODSYS": "General disorders and administration site conditions",
    "AECAT": "APPLICATION SITE",
    "AESEV": "MODERATE",
    "AETOXGR": 2,
    "ATOXGRN": 2,
    "AESER": "N",
    "AEREL": "RELATED",
    "RELGR1": "Y",
    "RELGR1N": 1,
    "ASTDT": "2013-04-27",
    "AENDT": "2013-05-07",
    "ASTDY": 18,
    "AENDY": 28,
    "ADURN": 11,
    "ADURU": "DAY",
    "TRTEMFL": "Y",
    "AOCCFL": "Y",
    "AOCC01FL": "Y",
    "CQ01NAM": "APPLICATION SITE REACTION",
    "AGE": 60,
    "AGEGR1": "<65",
    "SEX": "M",
    "MMSETOT": 24,
    "SAFFL": "Y"
  },
  {
    "STUDYID": "CDISCPILOT01",
    "USUBJID": "01-709-006",
    "AESEQ": 2,
    "TRTP": "Xanomeline Low Dose",
    "TRTPN": 1,
    "AETERM": "Application site irritation",
    "AEDECOD": "Application site irritation",
    "AEBODSYS": "General disorders and administration site conditions",
    "AECAT": "APPLICATION SITE",
    "AESEV": "MILD",
    "AETOXGR": 1,
    "ATOXGRN": 1,
    "AESER": "N",
    "AEREL": "RELATED",
    "RELGR1": "Y",
    "RELGR1N": 1,
    "ASTDT": "2013-04-14",
    "AENDT": "2013-04-21",
    "ASTDY": 5,
    "AENDY": 12,
    "ADURN": 8,
    "ADURU": "DAY",
    "TRTEMFL": "Y",
    "AOCCFL": "Y",
    "CQ01NAM": "APPLICATION SITE REACTION",
    "AGE": 60,
    "AGEGR1": "<65",
    "SEX": "M",
    "MMSETOT": 24,
    "SAFFL": "Y"
  },
  {
    "STUDYID": "CDISCPILOT01",
    "USUBJID": "01-709-008",
    "AESEQ": 1,
    "TRTP": "Placebo",
    "TRTPN": 0,
    "AETERM": "Myocardial infarction",
    "AEDECOD": "Myocardial infarction",
    "AEBODSYS": "Cardiac disorders",
    "AECAT": "GENERAL",
    "AESEV": "SEVERE",
    "AETOXGR": 3,
    "ATOXGRN": 3,
    "AESER": "Y",
    "AEREL": "RELATED",
    "RELGR1": "Y",
    "RELGR1N": 1,
    "ASTDT": "2013-08-02",
    "AENDT": "2013-09-01",
    "ASTDY": 60,
    "AENDY": 90,
    "ADURN": 31,
    "ADURU": "DAY",
    "TRTEMFL": "Y",
    "AOCCFL": "Y",
    "AOCC01FL": "Y",
    "AOCCPFL": "Y",
    "AGE": 59,
    "AGEGR1": "<65",
    "SEX": "F",
    "MMSETOT": 19,
    "SAFFL": "Y"
  },
  {
    "STUDYID": "CDISCPILOT01",
    "USUBJID": "01-709-013",
    "AESEQ": 1,
    "TRTP": "Xanomeline High Dose",
    "TRTPN": 2,
    "AETERM": "Vomiting",
    "AEDECOD": "Vomiting",
    "AEBODSYS": "Gastrointestinal disorders",
    "AECAT": "GENERAL",
    "AESEV": "MODERATE",
    "AETOXGR": 2,
    "ATOXGRN": 2,
    "AESER": "N",
    "AEREL": "NOT RELATED",
    "RELGR1": "N",
    "RELGR1N": 0,
    "ASTDT": "2013-06-11",
    "AENDT": "2013-06-23",
    "ASTDY": 66,
    "AENDY": 78,
    "ADURN": 13,
    "ADURU": "DAY",
    "TRTEMFL": "Y",
    "AOCCFL": "Y",
    "AOCC01FL": "Y",
    "AGE": 73,
    "AGEGR1": "65-80",
    "SEX": "F",
    "MMSETOT": 12,
    "SAFFL": "Y"
  },
  {
    "STUDYID": "CDISCPILOT01",
    "USUBJID": "01-709-015",
    "AESEQ": 1,
    "TRTP": "Xanomeline Low Dose",
    "TRTPN": 1,
    "AETERM": "Pruritus",
    "AEDECOD": "Pruritus",
    "AEBODSYS": "Skin and subcutaneous tissue disorders",
    "AECAT": "GENERAL",
    "AESEV": "MODERATE",
    "AETOXGR": 2,
    "ATOXGRN": 2,
    "AESER": "N",
    "AEREL": "NOT RELATED",
    "RELGR1": "N",
    "RELGR1N": 0,
    "ASTDT": "2013-07-13",
    "AENDT": "2013-07-28",
    "ASTDY": 70,
    "AENDY": 85,
    "ADURN": 16,
    "ADURU": "DAY",
    "TRTEMFL": "Y",
    "AOCCFL": "Y",
    "AOCC01FL": "Y",
    "CQ02NAM": "DERMATOLOGICAL AE",
    "AGE": 78,
    "AGEGR1": "65-80",
    "SEX": "F",
    "MMSETOT": 19,
    "SAFFL": "Y"
  },
  {
    "STUDYID": "CDISCPILOT01",
    "USUBJID": "01-709-015",
    "AESEQ": 2,
    "TRTP": "Xanomeline Low Dose",
    "TRTPN": 1,
    "AETERM": "Rash",
    "AEDECOD": "Rash",
    "AEBODSYS": "Skin and subcutaneous tissue disorders",
    "AECAT": "GENERAL",
    "AESEV": "MODERATE",
    "AETOXGR": 2,
    "ATOXGRN": 2,
    "AESER": "N",
    "AEREL": "NOT RELATED",
    "RELGR1": "N",
    "RELGR1N": 0,
    "ASTDT": "2013-05-30",
    "AENDT": "2013-06-11",
    "ASTDY": 26,
    "AENDY": 38,
    "ADURN": 13,
    "ADURU": "DAY",
    "TRTEMFL": "Y",
    "AOCCFL": "Y",
    "CQ02NAM": "DERMATOLOGICAL AE",
    "AGE": 78,
    "AGEGR1": "65-80",
    "SEX": "F",
    "MMSETOT": 19,
    "SAFFL": "Y"
  },
  {
    "STUDYID": "CDISCPILOT01",
    "USUBJID": "01-709-015",
    "AESEQ": 3,
    "TRTP": "Xanomeline Low Dose",
    "TRTPN": 1,
    "AETERM": "Sinus bradycardia",
    "AEDECOD": "Sinus bradycardia",
    "AEBODSYS": "Cardiac disorders",
    "AECAT": "GENERAL",
    "AESEV": "MODERATE",
    "AETOXGR": 2,
    "ATOXGRN": 2,
    "AESER": "N",
    "AEREL": "POSSIBLY RELATED",
    "RELGR1": "Y",
    "RELGR1N": 1,
    "ASTDT": "2013-06-16",
    "AENDT": "2013-07-09",
    "ASTDY": 43,
    "AENDY": 66,
    "ADURN": 24,
    "ADURU": "DAY",
    "TRTEMFL": "Y",
    "AOCCFL": "Y",
    "AOCC01FL": "Y",
    "AGE": 78,
    "AGEGR1": "65-80",
    "SEX": "F",
    "MMSETOT": 19,
    "SAFFL": "Y"
  },
  {
    "STUDYID": "CDISCPILOT01",
    "USUBJID": "01-709-016",
    "AESEQ": 1,
    "TRTP": "Xanomeline High Dose",
    "TRTPN": 2,
    "AETERM": "Skin irritation",
    "AEDECOD": "Skin irritation",
    "AEBODSYS": "Skin and subcutaneous tissue disorders",
    "AECAT": "GENERAL",
    "AESEV": "SEVERE",
    "AETOXGR": 3,
    "ATOXGRN": 3,
    "AESER": "Y",
    "AEREL": "NOT RELATED",
    "RELGR1": "N",
    "RELGR1N": 0,
    "ASTDT": "2013-04-26",
    "AENDT": "2013-05-09",
    "ASTDY": 22,
    "AENDY": 35,
    "ADURN": 14,
    "ADURU": "DAY",
    "TRTEMFL": "Y",
    "AOCCFL": "Y",
    "AOCC01FL": "Y",
    "AOCCPFL": "Y",
    "CQ02NAM": "DERMATOLOGICAL AE",
    "AGE": 83,
    "AGEGR1": ">80",
    "SEX": "F",
    "MMSETOT": 10,
    "SAFFL": "Y"
  },
  {
    "STUDYID": "CDISCPILOT01",
    "USUBJID": "01-709-017",
    "AESEQ": 1,
    "TRTP": "Xanomeline High Dose",
    "TRTPN": 2,
    "AETERM": "Erythema",
    "AEDECOD": "Erythema",
    "AEBODSYS": "Skin and subcutaneous tissue disorders",
    "AECAT": "GENERAL",
    "AESEV": "MODERATE",
    "AETOXGR": 2,
    "ATOXGRN": 2,
    "AESER": "N",
    "AEREL": "RELATED",
    "RELGR1": "Y",
    "RELGR1N": 1,
    "ASTDT": "2013-03-08",
    "AENDT": "2013-03-17",
    "ASTDY": 65,
    "AENDY": 74,
    "ADURN": 10,
    "ADURU": "DAY",
    "TRTEMFL": "Y",
    "AOCCFL": "Y",
    "AOCC01FL": "Y",
    "CQ02NAM": "DERMATOLOGICAL AE",
    "AGE": 79,
    "AGEGR1": "65-80",
    "SEX": "M",
    "MMSETOT": 18,
    "SAFFL": "Y"
  },
  {
    "STUDYID": "CDISCPILOT01",
    "USUBJID": "01-709-018",
    "AESEQ": 1,
    "TRTP": "Placebo",
    "TRTPN": 0,
    "AETERM": "Sinus bradycardia",
    "AEDECOD": "Sinus bradycardia",
    "AEBODSYS": "Cardiac disorders",
    "AECAT": "GENERAL",
    "AESEV": "SEVERE",
    "AETOXGR": 3,
    "ATOXGRN": 3,
    "AESER": "Y",
    "AEREL": "NOT RELATED",
    "RELGR1": "N",
    "RELGR1N": 0,
    "ASTDT": "2013-03-01",
    "AENDT": "2013-04-03",
    "ASTDY": 30,
    "AENDY": 63,
    "ADURN": 34,
    "ADURU": "DAY",
    "TRTEMFL": "Y",
    "AOCCFL": "Y",
    "AOCC01FL": "Y",
    "AOCCPFL": "Y",
    "AGE": 74,
    "AGEGR1": "65-80",
    "SEX": "F",
    "MMSETOT": 18,
    "SAFFL": "Y"
  },
  {
    "STUDYID": "CDISCPILOT01",
    "USUBJID": "01-709-021",
    "AESEQ": 1,
    "TRTP": "Placebo",
    "TRTPN": 0,
    "AETERM": "Pruritus",
    "AEDECOD": "Pruritus",
    "AEBODSYS": "Skin and subcutaneous tissue disorders",
    "AECAT": "GENERAL",
    "AESEV": "MODERATE",
    "AETOXGR": 2,
    "ATOXGRN": 2,
    "AESER": "N",
    "AEREL": "POSSIBLY RELATED",
    "RELGR1": "Y",
    "RELGR1N": 1,
    "ASTDT": "2013-04-10",
    "AENDT": "2013-05-08",
    "ASTDY": 2,
    "AENDY": 30,
    "ADURN": 29,
    "ADURU": "DAY",
    "TRTEMFL": "Y",
    "AOCCFL": "Y",
    "AOCC01FL": "Y",
    "CQ02NAM": "DERMATOLOGICAL AE",
    "AGE": 81,
    "AGEGR1": ">80",
    "SEX": "M",
    "MMSETOT": 17,
    "SAFFL": "Y"
  },
  {
    "STUDYID": "CDISCPILOT01",
    "USUBJID": "01-709-023",
    "AESEQ": 2,
    "TRTP": "Xanomeline Low Dose",
    "TRTPN": 1,
    "AETERM": "Dizziness",
    "AEDECOD": "Dizziness",
    "AEBODSYS": "Nervous system disorders",
    "AECAT": "GENERAL",
    "AESEV": "MODERATE",
    "AETOXGR": 2,
    "ATOXGRN": 2,
    "AESER": "N",
    "AEREL": "RELATED",
    "RELGR1": "Y",
    "RELGR1N": 1,
    "ASTDT": "2013-09-01",
    "AENDT": "2013-09-29",
    "ASTDY": 62,
    "AENDY": 90,
    "ADURN": 29,
    "ADURU": "DAY",
    "TRTEMFL": "Y",
    "AOCCFL": "Y",
    "AOCC01FL": "Y",
    "AGE": 74,
    "AGEGR1": "65-80",
    "SEX": "F",
    "MMSETOT": 22,
    "SAFFL": "Y"
  },
  {
    "STUDYID": "CDISCPILOT01",
    "USUBJID": "01-709-023",
    "AESEQ": 1,
    "TRTP": "Xanomeline Low Dose",
    "TRTPN": 1,
    "AETERM": "Erythema",
    "AEDECOD": "Erythema",
    "AEBODSYS": "Skin and subcutaneous tissue disorders",
    "AECAT": "GENERAL",
    "AESEV": "MILD",
    "AETOXGR": 1,
    "ATOXGRN": 1,
    "AESER": "N",
    "AEREL": "NOT RELATED",
    "RELGR1": "N",
    "RELGR1N": 0,
    "ASTDT": "2013-08-26",
    "AENDT": "2013-08-30",
    "ASTDY": 56,
    "AENDY": 60,
    "ADURN": 5,
    "ADURU": "DAY",
    "TRTEMFL": "Y",
    "AOCCFL": "Y",
    "AOCC01FL": "Y",
    "CQ02NAM": "DERMATOLOGICAL AE",
    "AGE": 74,
    "AGEGR1": "65-80",
    "SEX": "F",
    "MMSETOT": 22,
    "SAFFL": "Y"
  },
  {
    "STUDYID": "CDISCPILOT01",
    "USUBJID": "01-710-001",
    "AESEQ": 1,
    "TRTP": "Xanomeline High Dose",
    "TRTPN": 2,
    "AETERM": "Application site pruritus",
    "AEDECOD": "Application site pruritus",
    "AEBODSYS": "General disorders and administration site conditions",
    "AECAT": "APPLICATION SITE",
    "AESEV": "MODERATE",
    "AETOXGR": 2,
    "ATOXGRN": 2,
    "AESER": "N",
    "AEREL": "RELATED",
    "RELGR1": "Y",
    "RELGR1N": 1,
    "ASTDT": "2013-04-16",
    "AENDT": "2013-05-04",
    "ASTDY": 17,
    "AENDY": 35,
    "ADURN": 19,
    "ADURU": "DAY",
    "TRTEMFL": "Y",
    "AOCCFL": "Y",
    "AOCC01FL": "Y",
    "CQ01NAM": "APPLICATION SITE REACTION",
    "AGE": 76,
    "AGEGR1": "65-80",
    "SEX": "M",
    "MMSETOT": 11,
    "SAFFL": "Y"
  },
  {
    "STUDYID": "CDISCPILOT01",
    "USUBJID": "01-710-001",
    "AESEQ": 2,
    "TRTP": "Xanomeline High Dose",
    "TRTPN": 2,
    "AETERM": "Application site vesicles",
    "AEDECOD": "Application site vesicles",
    "AEBODSYS": "General disorders and administration site conditions",
    "AECAT": "APPLICATION SITE",
    "AESEV": "MILD",
    "AETOXGR": 1,
    "ATOXGRN": 1,
    "AESER": "N",
    "AEREL": "RELATED",
    "RELGR1": "Y",
    "RELGR1N": 1,
    "ASTDT": "2013-04-04",
    "AENDT": "2013-04-12",
    "ASTDY": 5,
    "AENDY": 13,
    "ADURN": 9,
    "ADURU": "DAY",
    "TRTEMFL": "Y",
    "AOCCFL": "Y",
    "CQ01NAM": "APPLICATION SITE REACTION",
    "AGE": 76,
    "AGEGR1": "65-80",
    "SEX": "M",
    "MMSETOT": 11,
    "SAFFL": "Y"
  },
  {
    "STUDYID": "CDISCPILOT01",
    "USUBJID": "01-710-001",
    "AESEQ": 3,
    "TRTP": "Xanomeline High Dose",
    "TRTPN": 2,
    "AETERM": "Cough",
    "AEDECOD": "Cough",
    "AEBODSYS": "Respiratory, thoracic and mediastinal disorders",
    "AECAT": "GENERAL",
    "AESEV": "MODERATE",
    "AETOXGR": 2,
    "ATOXGRN": 2,
    "AESER": "N",
    "AEREL": "RELATED",
    "RELGR1": "Y",
    "RELGR1N": 1,
    "ASTDT": "2013-04-28",
    "AENDT": "2013-05-13",
    "ASTDY": 29,
    "AENDY": 44,
    "ADURN": 16,
    "ADURU": "DAY",
    "TRTEMFL": "Y",
    "AOCCFL": "Y",
    "AOCC01FL": "Y",
    "AGE": 76,
    "AGEGR1": "65-80",
    "SEX": "M",
    "MMSETOT": 11,
    "SAFFL": "Y"
  },
  {
    "STUDYID": "CDISCPILOT01",
    "USUBJID": "01-710-001",
    "AESEQ": 4,
    "TRTP": "Xanomeline High Dose",
    "TRTPN": 2,
    "AETERM": "Fatigue",
    "AEDECOD": "Fatigue",
    "AEBODSYS": "General disorders and administration site conditions",
    "AECAT": "GENERAL",
    "AESEV": "MILD",
    "AETOXGR": 1,
    "ATOXGRN": 1,
    "AESER": "N",
    "AEREL": "RELATED",
    "RELGR1": "Y",
    "RELGR1N": 1,
    "ASTDT": "2013-06-14",
    "AENDT": "2013-06-15",
    "ASTDY": 76,
    "AENDY": 77,
    "ADURN": 2,
    "ADURU": "DAY",
    "TRTEMFL": "Y",
    "AOCCFL": "Y",
    "AGE": 76,
    "AGEGR1": "65-80",
    "SEX": "M",
    "MMSETOT": 11,
    "SAFFL": "Y"
  },
  {
    "STUDYID": "CDISCPILOT01",
    "USUBJID": "01-710-003",
    "AESEQ": 2,
    "TRTP": "Xanomeline Low Dose",
    "TRTPN": 1,
    "AETERM": "Agitation",
    "AEDECOD": "Agitation",
    "AEBODSYS": "Psychiatric disorders",
    "AECAT": "GENERAL",
    "AESEV": "MODERATE",
    "AETOXGR": 2,
    "ATOXGRN": 2,
    "AESER": "N",
    "AEREL": "POSSIBLY RELATED",
    "RELGR1": "Y",
    "RELGR1N": 1,
    "ASTDT": "2014-02-03",
    "AENDT": "2014-03-12",
    "ASTDY": 71,
    "AENDY": 108,
    "ADURN": 38,
    "ADURU": "DAY",
    "TRTEMFL": "Y",
    "AOCCFL": "Y",
    "AOCC01FL": "Y",
    "AGE": 77,
    "AGEGR1": "65-80",
    "SEX": "M",
    "MMSETOT": 13,
    "SAFFL": "Y"
  },
  {
    "STUDYID": "CDISCPILOT01",
    "USUBJID": "01-710-003",
    "AESEQ": 1,
    "TRTP": "Xanomeline Low Dose",
    "TRTPN": 1,
    "AETERM": "Skin irritation",
    "AEDECOD": "Skin irritation",
    "AEBODSYS": "Skin and subcutaneous tissue disorders",
    "AECAT": "GENERAL",
    "AESEV": "MILD",
    "AETOXGR": 1,
    "ATOXGRN": 1,
    "AESER": "N",
    "AEREL": "NOT RELATED",
    "RELGR1": "N",
    "RELGR1N": 0,
    "ASTDT": "2014-02-11",
    "AENDT": "2014-02-24",
    "ASTDY": 79,
    "AENDY": 92,
    "ADURN": 14,
    "ADURU": "DAY",
    "TRTEMFL": "Y",
    "AOCCFL": "Y",
    "AOCC01FL": "Y",
    "CQ02NAM": "DERMATOLOGICAL AE",
    "AGE": 77,
    "AGEGR1": "65-80",
    "SEX": "M",
    "MMSETOT": 13,
    "SAFFL": "Y"
  },
  {
    "STUDYID": "CDISCPILOT01",
    "USUBJID": "01-710-004",
    "AESEQ": 1,
    "TRTP": "Placebo",
    "TRTPN": 0,
    "AETERM": "Application site dermatitis",
    "AEDECOD": "Application site dermatitis",
    "AEBODSYS": "General disorders and administration site conditions",
    "AECAT": "APPLICATION SITE",
    "AESEV": "MODERATE",
    "AETOXGR": 2,
    "ATOXGRN": 2,
    "AESER": "N",
    "AEREL": "RELATED",
    "RELGR1": "Y",
    "RELGR1N": 1,
    "ASTDT": "2013-04-22",
    "AENDT": "2013-05-18",
    "ASTDY": 4,
    "AENDY": 30,
    "ADURN": 27,
    "ADURU": "DAY",
    "TRTEMFL": "Y",
    "AOCCFL": "Y",
    "AOCC01FL": "Y",
    "CQ01NAM": "APPLICATION SITE REACTION",
    "AGE": 74,
    "AGEGR1": "65-80",
    "SEX": "M",
    "MMSETOT": 16,
    "SAFFL": "Y"
  },
  {
    "STUDYID": "CDISCPILOT01",
    "USUBJID": "01-710-004",
    "AESEQ": 2,
    "TRTP": "Placebo",
    "TRTPN": 0,
    "AETERM": "Insomnia",
    "AEDECOD": "Insomnia",
    "AEBODSYS": "Psychiatric disorders",
    "AECAT": "GENERAL",
    "AESEV": "LIFE-THREATENING",
    "AETOXGR": 4,
    "ATOXGRN": 4,
    "AESER": "Y",
    "AEREL": "RELATED",
    "RELGR1": "Y",
    "RELGR1N": 1,
    "ASTDT": "2013-05-06",
    "AENDT": "2013-05-11",
    "ASTDY": 18,
    "AENDY": 23,
    "ADURN": 6,
    "ADURU": "DAY",
    "TRTEMFL": "Y",
    "AOCCFL": "Y",
    "AOCC01FL": "Y",
    "AOCCPFL": "Y",
    "AGE": 74,
    "AGEGR1": "65-80",
    "SEX": "M",
    "MMSETOT": 16,
    "SAFFL": "Y"
  },
  {
    "STUDYID": "CDISCPILOT01",
    "USUBJID": "01-710-005",
    "AESEQ": 1,
    "TRTP": "Xanomeline High Dose",
    "TRTPN": 2,
    "AETERM": "Myocardial infarction",
    "AEDECOD": "Myocardial infarction",
    "AEBODSYS": "Cardiac disorders",
    "AECAT": "GENERAL",
    "AESEV": "LIFE-THREATENING",
    "AETOXGR": 4,
    "ATOXGRN": 4,
    "AESER": "Y",
    "AEREL": "POSSIBLY RELATED",
    "RELGR1": "Y",
    "RELGR1N": 1,
    "ASTDT": "2013-02-07",
    "AENDT": "2013-02-14",
    "ASTDY": 16,
    "AENDY": 23,
    "ADURN": 8,
    "ADURU": "DAY",
    "TRTEMFL": "Y",
    "AOCCFL": "Y",
    "AOCC01FL": "Y",
    "AOCCPFL": "Y",
    "AGE": 77,
    "AGEGR1": "65-80",
    "SEX": "F",
    "MMSETOT": 18,
    "SAFFL": "Y"
  },
  {
    "STUDYID": "CDISCPILOT01",
    "USUBJID": "01-710-006",
    "AESEQ": 1,
    "TRTP": "Placebo",
    "TRTPN": 0,
    "AETERM": "Pruritus",
    "AEDECOD": "Pruritus",
    "AEBODSYS": "Skin and subcutaneous tissue disorders",
    "AECAT": "GENERAL",
    "AESEV": "MODERATE",
    "AETOXGR": 2,
    "ATOXGRN": 2,
    "AESER": "N",
    "AEREL": "NOT RELATED",
    "RELGR1": "N",
    "RELGR1N": 0,
    "ASTDT": "2013-06-21",
    "AENDT": "2013-07-30",
    "ASTDY": 54,
    "AENDY": 93,
    "ADURN": 40,
    "ADURU": "DAY",
    "TRTEMFL": "Y",
    "AOCCFL": "Y",
    "AOCC01FL": "Y",
    "CQ02NAM": "DERMATOLOGICAL AE",
    "AGE": 78,
    "AGEGR1": "65-80",
    "SEX": "M",
    "MMSETOT": 21,
    "SAFFL": "Y"
  },
  {
    "STUDYID": "CDISCPILOT01",
    "USUBJID": "01-710-007",
    "AESEQ": 1,
    "TRTP": "Xanomeline High Dose",
    "TRTPN": 2,
    "AETERM": "Confusional state",
    "AEDECOD": "Confusional state",
    "AEBODSYS": "Psychiatric disorders",
    "AECAT": "GENERAL",
    "AESEV": "MODERATE",
    "AETOXGR": 2,
    "ATOXGRN": 2,
    "AESER": "N",
    "AEREL": "NOT RELATED",
    "RELGR1": "N",
    "RELGR1N": 0,
    "ASTDT": "2013-05-16",
    "AENDT": "2013-05-27",
    "ASTDY": 10,
    "AENDY": 21,
    "ADURN": 12,
    "ADURU": "DAY",
    "TRTEMFL": "Y",
    "AOCCFL": "Y",
    "AOCC01FL": "Y",
    "AGE": 64,
    "AGEGR1": "<65",
    "SEX": "F",
    "MMSETOT": 18,
    "SAFFL": "Y"
  },
  {
    "STUDYID": "CDISCPILOT01",
    "USUBJID": "01-710-008",
    "AESEQ": 1,
    "TRTP": "Xanomeline Low Dose",
    "TRTPN": 1,
    "AETERM": "Erythema",
    "AEDECOD": "Erythema",
    "AEBODSYS": "Skin and subcutaneous tissue disorders",
    "AECAT": "GENERAL",
    "AESEV": "MILD",
    "AETOXGR": 1,
    "ATOXGRN": 1,
    "AESER": "N",
    "AEREL": "NOT RELATED",
    "RELGR1": "N",
    "RELGR1N": 0,
    "ASTDT": "2013-11-10",
    "AENDT": "2013-11-20",
    "ASTDY": 14,
    "AENDY": 24,
    "ADURN": 11,
    "ADURU": "DAY",
    "TRTEMFL": "Y",
    "AOCCFL": "Y",
    "AOCC01FL": "Y",
    "CQ02NAM": "DERMATOLOGICAL AE",
    "AGE": 66,
    "AGEGR1": "65-80",
    "SEX": "M",
    "MMSETOT": 20,
    "SAFFL": "Y"
  },
  {
    "STUDYID": "CDISCPILOT01",
    "USUBJID": "01-710-008",
    "AESEQ": 2,
    "TRTP": "Xanomeline Low Dose",
    "TRTPN": 1,
    "AETERM": "Sinus bradycardia",
    "AEDECOD": "Sinus bradycardia",
    "AEBODSYS": "Cardiac disorders",
    "AECAT": "GENERAL",
    "AESEV": "MILD",
    "AETOXGR": 1,
    "ATOXGRN": 1,
    "AESER": "N",
    "AEREL": "NOT RELATED",
    "RELGR1": "N",
    "RELGR1N": 0,
    "ASTDT": "2013-11-09",
    "AENDT": "2013-11-27",
    "ASTDY": 13,
    "AENDY": 31,
    "ADURN": 19,
    "ADURU": "DAY",
    "TRTEMFL": "Y",
    "AOCCFL": "Y",
    "AOCC01FL": "Y",
    "AGE": 66,
    "AGEGR1": "65-80",
    "SEX": "M",
    "MMSETOT": 20,
    "SAFFL": "Y"
  },
  {
    "STUDYID": "CDISCPILOT01",
    "USUBJID": "01-710-010",
    "AESEQ": 2,
    "TRTP": "Xanomeline Low Dose",
    "TRTPN": 1,
    "AETERM": "Application site irritation",
    "AEDECOD": "Application site irritation",
    "AEBODSYS": "General disorders and administration site conditions",
    "AECAT": "APPLICATION SITE",
    "AESEV": "MILD",
    "AETOXGR": 1,
    "ATOXGRN": 1,
    "AESER": "N",
    "AEREL": "RELATED",
    "RELGR1": "Y",
    "RELGR1N": 1,
    "ASTDT": "2013-07-30",
    "AENDT": "2013-08-20",
    "ASTDY": 15,
    "AENDY": 36,
    "ADURN": 22,
    "ADURU": "DAY",
    "TRTEMFL": "Y",
    "AOCCFL": "Y",
    "AOCC01FL": "Y",
    "CQ01NAM": "APPLICATION SITE REACTION",
    "AGE": 65,
    "AGEGR1": "65-80",
    "SEX": "F",
    "MMSETOT": 16,
    "SAFFL": "Y"
  },
  {
    "STUDYID": "CDISCPILOT01",
    "USUBJID": "01-710-010",
    "AESEQ": 1,
    "TRTP": "Xanomeline Low Dose",
    "TRTPN": 1,
    "AETERM": "Application site pruritus",
    "AEDECOD": "Application site pruritus",
    "AEBODSYS": "General disorders and administration site conditions",
    "AECAT": "APPLICATION SITE",
    "AESEV": "MODERATE",
    "AETOXGR": 2,
    "ATOXGRN": 2,
    "AESER": "N",
    "AEREL": "RELATED",
    "RELGR1": "Y",
    "RELGR1N": 1,
    "ASTDT": "2013-08-01",
    "AENDT": "2013-08-16",
    "ASTDY": 17,
    "AENDY": 32,
    "ADURN": 16,
    "ADURU": "DAY",
    "TRTEMFL": "Y",
    "AOCCFL": "Y",
    "CQ01NAM": "APPLICATION SITE REACTION",
    "AGE": 65,
    "AGEGR1": "65-80",
    "SEX": "F",
    "MMSETOT": 16,
    "SAFFL": "Y"
  },
  {
    "STUDYID": "CDISCPILOT01",
    "USUBJID": "01-710-013",
    "AESEQ": 1,
    "TRTP": "Placebo",
    "TRTPN": 0,
    "AETERM": "Cough",
    "AEDECOD": "Cough",
    "AEBODSYS": "Respiratory, thoracic and mediastinal disorders",
    "AECAT": "GENERAL",
    "AESEV": "MILD",
    "AETOXGR": 1,
    "ATOXGRN": 1,
    "AESER": "N",
    "AEREL": "POSSIBLY RELATED",
    "RELGR1": "Y",
    "RELGR1N": 1,
    "ASTDT": "2014-01-03",
    "AENDT": "2014-01-16",
    "ASTDY": 49,
    "AENDY": 62,
    "ADURN": 14,
    "ADURU": "DAY",
    "TRTEMFL": "Y",
    "AOCCFL": "Y",
    "AOCC01FL": "Y",
    "AGE": 59,
    "AGEGR1": "<65",
    "SEX": "M",
    "MMSETOT": 10,
    "SAFFL": "Y"
  },
  {
    "STUDYID": "CDISCPILOT01",
    "USUBJID": "01-710-014",
    "AESEQ": 1,
    "TRTP": "Placebo",
    "TRTPN": 0,
    "AETERM": "Application site pruritus",
    "AEDECOD": "Application site pruritus",
    "AEBODSYS": "General disorders and administration site conditions",
    "AECAT": "APPLICATION SITE",
    "AESEV": "MODERATE",
    "AETOXGR": 2,
    "ATOXGRN": 2,
    "AESER": "N",
    "AEREL": "RELATED",
    "RELGR1": "Y",
    "RELGR1N": 1,
    "ASTDT": "2013-06-21",
    "AENDT": "2013-06-28",
    "ASTDY": 7,
    "AENDY": 14,
    "ADURN": 8,
    "ADURU": "DAY",
    "TRTEMFL": "Y",
    "AOCCFL": "Y",
    "AOCC01FL": "Y",
    "CQ01NAM": "APPLICATION SITE REACTION",
    "AGE": 78,
    "AGEGR1": "65-80",
    "SEX": "F",
    "MMSETOT": 19,
    "SAFFL": "Y"
  },
  {
    "STUDYID": "CDISCPILOT01",
    "USUBJID": "01-710-014",
    "AESEQ": 3,
    "TRTP": "Placebo",
    "TRTPN": 0,
    "AETERM": "Myocardial infarction",
    "AEDECOD": "Myocardial infarction",
    "AEBODSYS": "Cardiac disorders",
    "AECAT": "GENERAL",
    "AESEV": "MILD",
    "AETOXGR": 1,
    "ATOXGRN": 1,
    "AESER": "N",
    "AEREL": "NOT RELATED",
    "RELGR1": "N",
    "RELGR1N": 0,
    "ASTDT": "2013-09-11",
    "AENDT": "2013-09-22",
    "ASTDY": 89,
    "AENDY": 100,
    "ADURN": 12,
    "ADURU": "DAY",
    "TRTEMFL": "Y",
    "AOCCFL": "Y",
    "AOCC01FL": "Y",
    "AGE": 78,
    "AGEGR1": "65-80",
    "SEX": "F",
    "MMSETOT": 19,
    "SAFFL": "Y"
  },
  {
    "STUDYID": "CDISCPILOT01",
    "USUBJID": "01-710-014",
    "AESEQ": 2,
    "TRTP": "Placebo",
    "TRTPN": 0,
    "AETERM": "Pruritus",
    "AEDECOD": "Pruritus",
    "AEBODSYS": "Skin and subcutaneous tissue disorders",
    "AECAT": "GENERAL",
    "AESEV": "MODERATE",
    "AETOXGR": 2,
    "ATOXGRN": 2,
    "AESER": "N",
    "AEREL": "POSSIBLY RELATED",
    "RELGR1": "Y",
    "RELGR1N": 1,
    "ASTDT": "2013-08-17",
    "AENDT": "2013-08-21",
    "ASTDY": 64,
    "AENDY": 68,
    "ADURN": 5,
    "ADURU": "DAY",
    "TRTEMFL": "Y",
    "AOCCFL": "Y",
    "AOCC01FL": "Y",
    "CQ02NAM": "DERMATOLOGICAL AE",
    "AGE": 78,
    "AGEGR1": "65-80",
    "SEX": "F",
    "MMSETOT": 19,
    "SAFFL": "Y"
  },
  {
    "STUDYID": "CDISCPILOT01",
    "USUBJID": "01-710-015",
    "AESEQ": 1,
    "TRTP": "Placebo",
    "TRTPN": 0,
    "AETERM": "Pruritus",
    "AEDECOD": "Pruritus",
    "AEBODSYS": "Skin and subcutaneous tissue disorders",
    "AECAT": "GENERAL",
    "AESEV": "MILD",
    "AETOXGR": 1,
    "ATOXGRN": 1,
    "AESER": "N",
    "AEREL": "NOT RELATED",
    "RELGR1": "N",
    "RELGR1N": 0,
    "ASTDT": "2013-07-30",
    "AENDT": "2013-08-02",
    "ASTDY": 3,
    "AENDY": 6,
    "ADURN": 4,
    "ADURU": "DAY",
    "TRTEMFL": "Y",
    "AOCCFL": "Y",
    "AOCC01FL": "Y",
    "CQ02NAM": "DERMATOLOGICAL AE",
    "AGE": 61,
    "AGEGR1": "<65",
    "SEX": "F",
    "MMSETOT": 17,
    "SAFFL": "Y"
  },
  {
    "STUDYID": "CDISCPILOT01",
    "USUBJID": "01-710-018",
    "AESEQ": 1,
    "TRTP": "Placebo",
    "TRTPN": 0,
    "AETERM": "Nasopharyngitis",
    "AEDECOD": "Nasopharyngitis",
    "AEBODSYS": "Infections and infestations",
    "AECAT": "GENERAL",
    "AESEV": "MILD",
    "AETOXGR": 1,
    "ATOXGRN": 1,
    "AESER": "N",
    "AEREL": "POSSIBLY RELATED",
    "RELGR1": "Y",
    "RELGR1N": 1,
    "ASTDT": "2013-11-08",
    "AENDT": "2013-11-30",
    "ASTDY": 72,
    "AENDY": 94,
    "ADURN": 23,
    "ADURU": "DAY",
    "TRTEMFL": "Y",
    "AOCCFL": "Y",
    "AOCC01FL": "Y",
    "AGE": 78,
    "AGEGR1": "65-80",
    "SEX": "M",
    "MMSETOT": 24,
    "SAFFL": "Y"
  },
  {
    "STUDYID": "CDISCPILOT01",
    "USUBJID": "01-710-020",
    "AESEQ": 2,
    "TRTP": "Placebo",
    "TRTPN": 0,
    "AETERM": "Diarrhoea",
    "AEDECOD": "Diarrhoea",
    "AEBODSYS": "Gastrointestinal disorders",
    "AECAT": "GENERAL",
    "AESEV": "SEVERE",
    "AETOXGR": 3,
    "ATOXGRN": 3,
    "AESER": "Y",
    "AEREL": "RELATED",
    "RELGR1": "Y",
    "RELGR1N": 1,
    "ASTDT": "2013-06-12",
    "AENDT": "2013-06-26",
    "ASTDY": 21,
    "AENDY": 35,
    "ADURN": 15,
    "ADURU": "DAY",
    "TRTEMFL": "Y",
    "AOCCFL": "Y",
    "AOCC01FL": "Y",
    "AOCCPFL": "Y",
    "AGE": 85,
    "AGEGR1": ">80",
    "SEX": "F",
    "MMSETOT": 24,
    "SAFFL": "Y"
  },
  {
    "STUDYID": "CDISCPILOT01",
    "USUBJID": "01-710-020",
    "AESEQ": 1,
    "TRTP": "Placebo",
    "TRTPN": 0,
    "AETERM": "Dizziness",
    "AEDECOD": "Dizziness",
    "AEBODSYS": "Nervous system disorders",
    "AECAT": "GENERAL",
    "AESEV": "MODERATE",
    "AETOXGR": 2,
    "ATOXGRN": 2,
    "AESER": "N",
    "AEREL": "RELATED",
    "RELGR1": "Y",
    "RELGR1N": 1,
    "ASTDT": "2013-06-04",
    "AENDT": "2013-06-15",
    "ASTDY": 13,
    "AENDY": 24,
    "ADURN": 12,
    "ADURU": "DAY",
    "TRTEMFL": "Y",
    "AOCCFL": "Y",
    "AOCC01FL": "Y",
    "AGE": 85,
    "AGEGR1": ">80",
    "SEX": "F",
    "MMSETOT": 24,
    "SAFFL": "Y"
  },
  {
    "STUDYID": "CDISCPILOT01",
    "USUBJID": "01-710-022",
    "AESEQ": 1,
    "TRTP": "Xanomeline Low Dose",
    "TRTPN": 1,
    "AETERM": "Application site dermatitis",
    "AEDECOD": "Application site dermatitis",
    "AEBODSYS": "General disorders and administration site conditions",
    "AECAT": "APPLICATION SITE",
    "AESEV": "MODERATE",
    "AETOXGR": 2,
    "ATOXGRN": 2,
    "AESER": "N",
    "AEREL": "RELATED",
    "RELGR1": "Y",
    "RELGR1N": 1,
    "ASTDT": "2013-03-14",
    "AENDT": "2013-03-20",
    "ASTDY": 9,
    "AENDY": 15,
    "ADURN": 7,
    "ADURU": "DAY",
    "TRTEMFL": "Y",
    "AOCCFL": "Y",
    "AOCC01FL": "Y",
    "CQ01NAM": "APPLICATION SITE REACTION",
    "AGE": 82,
    "AGEGR1": ">80",
    "SEX": "M",
    "MMSETOT": 23,
    "SAFFL": "Y"
  },
  {
    "STUDYID": "CDISCPILOT01",
    "USUBJID": "01-710-022",
    "AESEQ": 4,
    "TRTP": "Xanomeline Low Dose",
    "TRTPN": 1,
    "AETERM": "Diarrhoea",
    "AEDECOD": "Diarrhoea",
    "AEBODSYS": "Gastrointestinal disorders",
    "AECAT": "GENERAL",
    "AESEV": "MODERATE",
    "AETOXGR": 2,
    "ATOXGRN": 2,
    "AESER": "N",
    "AEREL": "NOT RELATED",
    "RELGR1": "N",
    "RELGR1N": 0,
    "ASTDT": "2013-05-31",
    "AENDT": "2013-07-13",
    "ASTDY": 87,
    "AENDY": 130,
    "ADURN": 44,
    "ADURU": "DAY",
    "TRTEMFL": "Y",
    "AOCCFL": "Y",
    "AOCC01FL": "Y",
    "AGE": 82,
    "AGEGR1": ">80",
    "SEX": "M",
    "MMSETOT": 23,
    "SAFFL": "Y"
  },
  {
    "STUDYID": "CDISCPILOT01",
    "USUBJID": "01-710-022",
    "AESEQ": 2,
    "TRTP": "Xanomeline Low Dose",
    "TRTPN": 1,
    "AETERM": "Erythema",
    "AEDECOD": "Erythema",
    "AEBODSYS": "Skin and subcutaneous tissue disorders",
    "AECAT": "GENERAL",
    "AESEV": "MILD",
    "AETOXGR": 1,
    "ATOXGRN": 1,
    "AESER": "N",
    "AEREL": "POSSIBLY RELATED",
    "RELGR1": "Y",
    "RELGR1N": 1,
    "ASTDT": "2013-07-17",
    "AENDT": "2013-07-23",
    "ASTDY": 134,
    "AENDY": 140,
    "ADURN": 7,
    "ADURU": "DAY",
    "TRTEMFL": "Y",
    "AOCCFL": "Y",
    "AOCC01FL": "Y",
    "CQ02NAM": "DERMATOLOGICAL AE",
    "AGE": 82,
    "AGEGR1": ">80",
    "SEX": "M",
    "MMSETOT": 23,
    "SAFFL": "Y"
  },
  {
    "STUDYID": "CDISCPILOT01",
    "USUBJID": "01-710-022",
    "AESEQ": 3,
    "TRTP": "Xanomeline Low Dose",
    "TRTPN": 1,
    "AETERM": "Somnolence",
    "AEDECOD": "Somnolence",
    "AEBODSYS": "Nervous system disorders",
    "AECAT": "GENERAL",
    "AESEV": "MILD",
    "AETOXGR": 1,
    "ATOXGRN": 1,
    "AESER": "N",
    "AEREL": "RELATED",
    "RELGR1": "Y",
    "RELGR1N": 1,
    "ASTDT": "2013-03-14",
    "AENDT": "2013-03-31",
    "ASTDY": 9,
    "AENDY": 26,
    "ADURN": 18,
    "ADURU": "DAY",
    "TRTEMFL": "Y",
    "AOCCFL": "Y",
    "AOCC01FL": "Y",
    "AGE": 82,
    "AGEGR1": ">80",
    "SEX": "M",
    "MMSETOT": 23,
    "SAFFL": "Y"
  },
  {
    "STUDYID": "CDISCPILOT01",
    "USUBJID": "01-710-023",
    "AESEQ": 2,
    "TRTP": "Placebo",
    "TRTPN": 0,
    "AETERM": "Agitation",
    "AEDECOD": "Agitation",
    "AEBODSYS": "Psychiatric disorders",
    "AECAT": "GENERAL",
    "AESEV": "MILD",
    "AETOXGR": 1,
    "ATOXGRN": 1,
    "AESER": "N",
    "AEREL": "RELATED",
    "RELGR1": "Y",
    "RELGR1N": 1,
    "ASTDT": "2013-06-28",
    "AENDT": "2013-07-12",
    "ASTDY": 48,
    "AENDY": 62,
    "ADURN": 15,
    "ADURU": "DAY",
    "TRTEMFL": "Y",
    "AOCCFL": "Y",
    "AOCC01FL": "Y",
    "AGE": 89,
    "AGEGR1": ">80",
    "SEX": "F",
    "MMSETOT": 22,
    "SAFFL": "Y"
  },
  {
    "STUDYID": "CDISCPILOT01",
    "USUBJID": "01-710-023",
    "AESEQ": 1,
    "TRTP": "Placebo",
    "TRTPN": 0,
    "AETERM": "Application site dermatitis",
    "AEDECOD": "Application site dermatitis",
    "AEBODSYS": "General disorders and administration site conditions",
    "AECAT": "APPLICATION SITE",
    "AESEV": "MILD",
    "AETOXGR": 1,
    "ATOXGRN": 1,
    "AESER": "N",
    "AEREL": "RELATED",
    "RELGR1": "Y",
    "RELGR1N": 1,
    "ASTDT": "2013-05-23",
    "AENDT": "2013-05-27",
    "ASTDY": 12,
    "AENDY": 16,
    "ADURN": 5,
    "ADURU": "DAY",
    "TRTEMFL": "Y",
    "AOCCFL": "Y",
    "AOCC01FL": "Y",
    "CQ01NAM": "APPLICATION SITE REACTION",
    "AGE": 89,
    "AGEGR1": ">80",
    "SEX": "F",
    "MMSETOT": 22,
    "SAFFL": "Y"
  },
  {
    "STUDYID": "CDISCPILOT01",
    "USUBJID": "01-710-024",
    "AESEQ": 1,
    "TRTP": "Xanomeline Low Dose",
    "TRTPN": 1,
    "AETERM": "Application site pruritus",
    "AEDECOD": "Application site pruritus",
    "AEBODSYS": "General disorders and administration site conditions",
    "AECAT": "APPLICATION SITE",
    "AESEV": "MILD",
    "AETOXGR": 1,
    "ATOXGRN": 1,
    "AESER": "N",
    "AEREL": "RELATED",
    "RELGR1": "Y",
    "RELGR1N": 1,
    "ASTDT": "2013-10-04",
    "AENDT": "2013-11-15",
    "ASTDY": 16,
    "AENDY": 58,
    "ADURN": 43,
    "ADURU": "DAY",
    "TRTEMFL": "Y",
    "AOCCFL": "Y",
    "AOCC01FL": "Y",
    "CQ01NAM": "APPLICATION SITE REACTION",
    "AGE": 80,
    "AGEGR1": ">80",
    "SEX": "F",
    "MMSETOT": 21,
    "SAFFL": "Y"
  },
  {
    "STUDYID": "CDISCPILOT01",
    "USUBJID": "01-710-024",
    "AESEQ": 2,
    "TRTP": "Xanomeline Low Dose",
    "TRTPN": 1,
    "AETERM": "Rash",
    "AEDECOD": "Rash",
    "AEBODSYS": "Skin and subcutaneous tissue disorders",
    "AECAT": "GENERAL",
    "AESEV": "MILD",
    "AETOXGR": 1,
    "ATOXGRN": 1,
    "AESER": "N",
    "AEREL": "POSSIBLY RELATED",
    "RELGR1": "Y",
    "RELGR1N": 1,
    "ASTDT": "2013-10-03",
    "AENDT": "2013-11-06",
    "ASTDY": 15,
    "AENDY": 49,
    "ADURN": 35,
    "ADURU": "DAY",
    "TRTEMFL": "Y",
    "AOCCFL": "Y",
    "AOCC01FL": "Y",
    "CQ02NAM": "DERMATOLOGICAL AE",
    "AGE": 80,
    "AGEGR1": ">80",
    "SEX": "F",
    "MMSETOT": 21,
    "SAFFL": "Y"
  },
  {
    "STUDYID": "CDISCPILOT01",
    "USUBJID": "01-710-025",
    "AESEQ": 1,
    "TRTP": "Xanomeline Low Dose",
    "TRTPN": 1,
    "AETERM": "Dizziness",
    "AEDECOD": "Dizziness",
    "AEBODSYS": "Nervous system disorders",
    "AECAT": "GENERAL",
    "AESEV": "MODERATE",
    "AETOXGR": 2,
    "ATOXGRN": 2,
    "AESER": "N",
    "AEREL": "POSSIBLY RELATED",
    "RELGR1": "Y",
    "RELGR1N": 1,
    "ASTDT": "2013-10-26",
    "AENDT": "2013-11-27",
    "ASTDY": 34,
    "AENDY": 66,
    "ADURN": 33,
    "ADURU": "DAY",
    "TRTEMFL": "Y",
    "AOCCFL": "Y",
    "AOCC01FL": "Y",
    "AGE": 71,
    "AGEGR1": "65-80",
    "SEX": "M",
    "MMSETOT": 19,
    "SAFFL": "Y"
  },
  {
    "STUDYID": "CDISCPILOT01",
    "USUBJID": "01-710-026",
    "AESEQ": 1,
    "TRTP": "Xanomeline High Dose",
    "TRTPN": 2,
    "AETERM": "Application site pruritus",
    "AEDECOD": "Application site pruritus",
    "AEBODSYS": "General disorders and administration site conditions",
    "AECAT": "APPLICATION SITE",
    "AESEV": "MILD",
    "AETOXGR": 1,
    "ATOXGRN": 1,
    "AESER": "N",
    "AEREL": "RELATED",
    "RELGR1": "Y",
    "RELGR1N": 1,
    "ASTDT": "2013-03-03",
    "AENDT": "2013-03-09",
    "ASTDY": 16,
    "AENDY": 22,
    "ADURN": 7,
    "ADURU": "DAY",
    "TRTEMFL": "Y",
    "AOCCFL": "Y",
    "AOCC01FL": "Y",
    "CQ01NAM": "APPLICATION SITE REACTION",
    "AGE": 77,
    "AGEGR1": "65-80",
    "SEX": "F",
    "MMSETOT": 21,
    "SAFFL": "Y"
  },
  {
    "STUDYID": "CDISCPILOT01",
    "USUBJID": "01-710-027",
    "AESEQ": 1,
    "TRTP": "Xanomeline Low Dose",
    "TRTPN": 1,
    "AETERM": "Application site pruritus",
    "AEDECOD": "Application site pruritus",
    "AEBODSYS": "General disorders and administration site conditions",
    "AECAT": "APPLICATION SITE",
    "AESEV": "MILD",
    "AETOXGR": 1,
    "ATOXGRN": 1,
    "AESER": "N",
    "AEREL": "RELATED",
    "RELGR1": "Y",
    "RELGR1N": 1,
    "ASTDT": "2013-03-17",
    "AENDT": "2013-04-02",
    "ASTDY": 8,
    "AENDY": 24,
    "ADURN": 17,
    "ADURU": "DAY",
    "TRTEMFL": "Y",
    "AOCCFL": "Y",
    "AOCC01FL": "Y",
    "CQ01NAM": "APPLICATION SITE REACTION",
    "AGE": 85,
    "AGEGR1": ">80",
    "SEX": "M",
    "MMSETOT": 11,
    "SAFFL": "Y"
  },
  {
    "STUDYID": "CDISCPILOT01",
    "USUBJID": "01-710-028",
    "AESEQ": 1,
    "TRTP": "Xanomeline High Dose",
    "TRTPN": 2,
    "AETERM": "Application site pruritus",
    "AEDECOD": "Application site pruritus",
    "AEBODSYS": "General disorders and administration site conditions",
    "AECAT": "APPLICATION SITE",
    "AESEV": "MODERATE",
    "AETOXGR": 2,
    "ATOXGRN": 2,
    "AESER": "N",
    "AEREL": "RELATED",
    "RELGR1": "Y",
    "RELGR1N": 1,
    "ASTDT": "2013-08-27",
    "AENDT": "2013-09-02",
    "ASTDY": 5,
    "AENDY": 11,
    "ADURN": 7,
    "ADURU": "DAY",
    "TRTEMFL": "Y",
    "AOCCFL": "Y",
    "AOCC01FL": "Y",
    "CQ01NAM": "APPLICATION SITE REACTION",
    "AGE": 69,
    "AGEGR1": "65-80",
    "SEX": "M",
    "MMSETOT": 24,
    "SAFFL": "Y"
  },
  {
    "STUDYID": "CDISCPILOT01",
    "USUBJID": "01-710-028",
    "AESEQ": 4,
    "TRTP": "Xanomeline High Dose",
    "TRTPN": 2,
    "AETERM": "Fatigue",
    "AEDECOD": "Fatigue",
    "AEBODSYS": "General disorders and administration site conditions",
    "AECAT": "GENERAL",
    "AESEV": "MODERATE",
    "AETOXGR": 2,
    "ATOXGRN": 2,
    "AESER": "N",
    "AEREL": "RELATED",
    "RELGR1": "Y",
    "RELGR1N": 1,
    "ASTDT": "2013-09-07",
    "AENDT": "2013-09-21",
    "ASTDY": 16,
    "AENDY": 30,
    "ADURN": 15,
    "ADURU": "DAY",
    "TRTEMFL": "Y",
    "AOCCFL": "Y",
    "AGE": 69,
    "AGEGR1": "65-80",
    "SEX": "M",
    "MMSETOT": 24,
    "SAFFL": "Y"
  },
  {
    "STUDYID": "CDISCPILOT01",
    "USUBJID": "01-710-028",
    "AESEQ": 2,
    "TRTP": "Xanomeline High Dose",
    "TRTPN": 2,
    "AETERM": "Hyperhidrosis",
    "AEDECOD": "Hyperhidrosis",
    "AEBODSYS": "Skin and subcutaneous tissue disorders",
    "AECAT": "GENERAL",
    "AESEV": "MODERATE",
    "AETOXGR": 2,
    "ATOXGRN": 2,
    "AESER": "N",
    "AEREL": "NOT RELATED",
    "RELGR1": "N",
    "RELGR1N": 0,
    "ASTDT": "2013-09-08",
    "AENDT": "2013-09-12",
    "ASTDY": 17,
    "AENDY": 21,
    "ADURN": 5,
    "ADURU": "DAY",
    "TRTEMFL": "Y",
    "AOCCFL": "Y",
    "AOCC01FL": "Y",
    "CQ02NAM": "DERMATOLOGICAL AE",
    "AGE": 69,
    "AGEGR1": "65-80",
    "SEX": "M",
    "MMSETOT": 24,
    "SAFFL": "Y"
  },
  {
    "STUDYID": "CDISCPILOT01",
    "USUBJID": "01-710-028",
    "AESEQ": 3,
    "TRTP": "Xanomeline High Dose",
    "TRTPN": 2,
    "AETERM": "Skin irritation",
    "AEDECOD": "Skin irritation",
    "AEBODSYS": "Skin and subcutaneous tissue disorders",
    "AECAT": "GENERAL",
    "AESEV": "MILD",
    "AETOXGR": 1,
    "ATOXGRN": 1,
    "AESER": "N",
    "AEREL": "POSSIBLY RELATED",
    "RELGR1": "Y",
    "RELGR1N": 1,
    "ASTDT": "2013-09-09",
    "AENDT": "2013-10-03",
    "ASTDY": 18,
    "AENDY": 42,
    "ADURN": 25,
    "ADURU": "DAY",
    "TRTEMFL": "Y",
    "AOCCFL": "Y",
    "CQ02NAM": "DERMATOLOGICAL AE",
    "AGE": 69,
    "AGEGR1": "65-80",
    "SEX": "M",
    "MMSETOT": 24,
    "SAFFL": "Y"
  },
  {
    "STUDYID": "CDISCPILOT01",
    "USUBJID": "01-710-029",
    "AESEQ": 1,
    "TRTP": "Placebo",
    "TRTPN": 0,
    "AETERM": "Diarrhoea",
    "AEDECOD": "Diarrhoea",
    "AEBODSYS": "Gastrointestinal disorders",
    "AECAT": "GENERAL",
    "AESEV": "MODERATE",
    "AETOXGR": 2,
    "ATOXGRN": 2,
    "AESER": "N",
    "AEREL": "POSSIBLY RELATED",
    "RELGR1": "Y",
    "RELGR1N": 1,
    "ASTDT": "2013-11-08",
    "AENDT": "2013-12-02",
    "ASTDY": 35,
    "AENDY": 59,
    "ADURN": 25,
    "ADURU": "DAY",
    "TRTEMFL": "Y",
    "AOCCFL": "Y",
    "AOCC01FL": "Y",
    "AGE": 75,
    "AGEGR1": "65-80",
    "SEX": "F",
    "MMSETOT": 18,
    "SAFFL": "Y"
  },
  {
    "STUDYID": "CDISCPILOT01",
    "USUBJID": "01-711-001",
    "AESEQ": 1,
    "TRTP": "Placebo",
    "TRTPN": 0,
    "AETERM": "Pruritus",
    "AEDECOD": "Pruritus",
    "AEBODSYS": "Skin and subcutaneous tissue disorders",
    "AECAT": "GENERAL",
    "AESEV": "MODERATE",
    "AETOXGR": 2,
    "ATOXGRN": 2,
    "AESER": "N",
    "AEREL": "POSSIBLY RELATED",
    "RELGR1": "Y",
    "RELGR1N": 1,
    "ASTDT": "2013-08-14",
    "AENDT": "2013-09-12",
    "ASTDY": 8,
    "AENDY": 37,
    "ADURN": 30,
    "ADURU": "DAY",
    "TRTEMFL": "Y",
    "AOCCFL": "Y",
    "AOCC01FL": "Y",
    "CQ02NAM": "DERMATOLOGICAL AE",
    "AGE": 78,
    "AGEGR1": "65-80",
    "SEX": "F",
    "MMSETOT": 15,
    "SAFFL": "Y"
  },
  {
    "STUDYID": "CDISCPILOT01",
    "USUBJID": "01-711-002",
    "AESEQ": 2,
    "TRTP": "Placebo",
    "TRTPN": 0,
    "AETERM": "Application site irritation",
    "AEDECOD": "Application site irritation",
    "AEBODSYS": "General disorders and administration site conditions",
    "AECAT": "APPLICATION SITE",
    "AESEV": "MODERATE",
    "AETOXGR": 2,
    "ATOXGRN": 2,
    "AESER": "N",
    "AEREL": "RELATED",
    "RELGR1": "Y",
    "RELGR1N": 1,
    "ASTDT": "2013-01-09",
    "AENDT": "2013-01-11",
    "ASTDY": 6,
    "AENDY": 8,
    "ADURN": 3,
    "ADURU": "DAY",
    "TRTEMFL": "Y",
    "AOCCFL": "Y",
    "AOCC01FL": "Y",
    "CQ01NAM": "APPLICATION SITE REACTION",
    "AGE": 71,
    "AGEGR1": "65-80",
    "SEX": "F",
    "MMSETOT": 15,
    "SAFFL": "Y"
  },
  {
    "STUDYID": "CDISCPILOT01",
    "USUBJID": "01-711-002",
    "AESEQ": 1,
    "TRTP": "Placebo",
    "TRTPN": 0,
    "AETERM": "Application site pruritus",
    "AEDECOD": "Application site pruritus",
    "AEBODSYS": "General disorders and administration site conditions",
    "AECAT": "APPLICATION SITE",
    "AESEV": "MODERATE",
    "AETOXGR": 2,
    "ATOXGRN": 2,
    "AESER": "N",
    "AEREL": "RELATED",
    "RELGR1": "Y",
    "RELGR1N": 1,
    "ASTDT": "2013-01-04",
    "AENDT": "2013-01-06",
    "ASTDY": 1,
    "AENDY": 3,
    "ADURN": 3,
    "ADURU": "DAY",
    "TRTEMFL": "Y",
    "AOCCFL": "Y",
    "CQ01NAM": "APPLICATION SITE REACTION",
    "AGE": 71,
    "AGEGR1": "65-80",
    "SEX": "F",
    "MMSETOT": 15,
    "SAFFL": "Y"
  },
  {
    "STUDYID": "CDISCPILOT01",
    "USUBJID": "01-711-002",
    "AESEQ": 3,
    "TRTP": "Placebo",
    "TRTPN": 0,
    "AETERM": "Pruritus",
    "AEDECOD": "Pruritus",
    "AEBODSYS": "Skin and subcutaneous tissue disorders",
    "AECAT": "GENERAL",
    "AESEV": "MILD",
    "AETOXGR": 1,
    "ATOXGRN": 1,
    "AESER": "N",
    "AEREL": "NOT RELATED",
    "RELGR1": "N",
    "RELGR1N": 0,
    "ASTDT": "2013-01-22",
    "AENDT": "2013-02-26",
    "ASTDY": 19,
    "AENDY": 54,
    "ADURN": 36,
    "ADURU": "DAY",
    "TRTEMFL": "Y",
    "AOCCFL": "Y",
    "AOCC01FL": "Y",
    "CQ02NAM": "DERMATOLOGICAL AE",
    "AGE": 71,
    "AGEGR1": "65-80",
    "SEX": "F",
    "MMSETOT": 15,
    "SAFFL": "Y"
  },
  {
    "STUDYID": "CDISCPILOT01",
    "USUBJID": "01-713-001",
    "AESEQ": 1,
    "TRTP": "Placebo",
    "TRTPN": 0,
    "AETERM": "Headache",
    "AEDECOD": "Headache",
    "AEBODSYS": "Nervous system disorders",
    "AECAT": "GENERAL",
    "AESEV": "MILD",
    "AETOXGR": 1,
    "ATOXGRN": 1,
    "AESER": "N",
    "AEREL": "NOT RELATED",
    "RELGR1": "N",
    "RELGR1N": 0,
    "ASTDT": "2013-01-27",
    "AENDT": "2013-02-15",
    "ASTDY": 24,
    "AENDY": 43,
    "ADURN": 20,
    "ADURU": "DAY",
    "TRTEMFL": "Y",
    "AOCCFL": "Y",
    "AOCC01FL": "Y",
    "AGE": 75,
    "AGEGR1": "65-80",
    "SEX": "M",
    "MMSETOT": 15,
    "SAFFL": "Y"
  },
  {
    "STUDYID": "CDISCPILOT01",
    "USUBJID": "01-713-002",
    "AESEQ": 2,
    "TRTP": "Xanomeline Low Dose",
    "TRTPN": 1,
    "AETERM": "Application site dermatitis",
    "AEDECOD": "Application site dermatitis",
    "AEBODSYS": "General disorders and administration site conditions",
    "AECAT": "APPLICATION SITE",
    "AESEV": "MODERATE",
    "AETOXGR": 2,
    "ATOXGRN": 2,
    "AESER": "N",
    "AEREL": "RELATED",
    "RELGR1": "Y",
    "RELGR1N": 1,
    "ASTDT": "2013-06-08",
    "AENDT": "2013-06-23",
    "ASTDY": 12,
    "AENDY": 27,
    "ADURN": 16,
    "ADURU": "DAY",
    "TRTEMFL": "Y",
    "AOCCFL": "Y",
    "AOCC01FL": "Y",
    "CQ01NAM": "APPLICATION SITE REACTION",
    "AGE": 64,
    "AGEGR1": "<65",
    "SEX": "M",
    "MMSETOT": 17,
    "SAFFL": "Y"
  },
  {
    "STUDYID": "CDISCPILOT01",
    "USUBJID": "01-713-002",
    "AESEQ": 1,
    "TRTP": "Xanomeline Low Dose",
    "TRTPN": 1,
    "AETERM": "Application site pruritus",
    "AEDECOD": "Application site pruritus",
    "AEBODSYS": "General disorders and administration site conditions",
    "AECAT": "APPLICATION SITE",
    "AESEV": "MODERATE",
    "AETOXGR": 2,
    "ATOXGRN": 2,
    "AESER": "N",
    "AEREL": "RELATED",
    "RELGR1": "Y",
    "RELGR1N": 1,
    "ASTDT": "2013-06-07",
    "AENDT": "2013-07-25",
    "ASTDY": 11,
    "AENDY": 59,
    "ADURN": 49,
    "ADURU": "DAY",
    "TRTEMFL": "Y",
    "AOCCFL": "Y",
    "CQ01NAM": "APPLICATION SITE REACTION",
    "AGE": 64,
    "AGEGR1": "<65",
    "SEX": "M",
    "MMSETOT": 17,
    "SAFFL": "Y"
  },
  {
    "STUDYID": "CDISCPILOT01",
    "USUBJID": "01-713-002",
    "AESEQ": 3,
    "TRTP": "Xanomeline Low Dose",
    "TRTPN": 1,
    "AETERM": "Fatigue",
    "AEDECOD": "Fatigue",
    "AEBODSYS": "General disorders and administration site conditions",
    "AECAT": "GENERAL",
    "AESEV": "MODERATE",
    "AETOXGR": 2,
    "ATOXGRN": 2,
    "AESER": "N",
    "AEREL": "POSSIBLY RELATED",
    "RELGR1": "Y",
    "RELGR1N": 1,
    "ASTDT": "2013-06-16",
    "AENDT": "2013-07-13",
    "ASTDY": 20,
    "AENDY": 47,
    "ADURN": 28,
    "ADURU": "DAY",
    "TRTEMFL": "Y",
    "AOCCFL": "Y",
    "AGE": 64,
    "AGEGR1": "<65",
    "SEX": "M",
    "MMSETOT": 17,
    "SAFFL": "Y"
  },
  {
    "STUDYID": "CDISCPILOT01",
    "USUBJID": "01-713-004",
    "AESEQ": 1,
    "TRTP": "Xanomeline High Dose",
    "TRTPN": 2,
    "AETERM": "Application site vesicles",
    "AEDECOD": "Application site vesicles",
    "AEBODSYS": "General disorders and administration site conditions",
    "AECAT": "APPLICATION SITE",
    "AESEV": "MILD",
    "AETOXGR": 1,
    "ATOXGRN": 1,
    "AESER": "N",
    "AEREL": "RELATED",
    "RELGR1": "Y",
    "RELGR1N": 1,
    "ASTDT": "2013-06-24",
    "AENDT": "2013-07-05",
    "ASTDY": 3,
    "AENDY": 14,
    "ADURN": 12,
    "ADURU": "DAY",
    "TRTEMFL": "Y",
    "AOCCFL": "Y",
    "AOCC01FL": "Y",
    "CQ01NAM": "APPLICATION SITE REACTION",
    "AGE": 81,
    "AGEGR1": ">80",
    "SEX": "F",
    "MMSETOT": 14,
    "SAFFL": "Y"
  },
  {
    "STUDYID": "CDISCPILOT01",
    "USUBJID": "01-713-004",
    "AESEQ": 3,
    "TRTP": "Xanomeline High Dose",
    "TRTPN": 2,
    "AETERM": "Dizziness",
    "AEDECOD": "Dizziness",
    "AEBODSYS": "Nervous system disorders",
    "AECAT": "GENERAL",
    "AESEV": "MODERATE",
    "AETOXGR": 2,
    "ATOXGRN": 2,
    "AESER": "N",
    "AEREL": "POSSIBLY RELATED",
    "RELGR1": "Y",
    "RELGR1N": 1,
    "ASTDT": "2013-07-22",
    "AENDT": "2013-08-05",
    "ASTDY": 31,
    "AENDY": 45,
    "ADURN": 15,
    "ADURU": "DAY",
    "TRTEMFL": "Y",
    "AOCCFL": "Y",
    "AOCC01FL": "Y",
    "AGE": 81,
    "AGEGR1": ">80",
    "SEX": "F",
    "MMSETOT": 14,
    "SAFFL": "Y"
  },
  {
    "STUDYID": "CDISCPILOT01",
    "USUBJID": "01-713-004",
    "AESEQ": 4,
    "TRTP": "Xanomeline High Dose",
    "TRTPN": 2,
    "AETERM": "Myocardial infarction",
    "AEDECOD": "Myocardial infarction",
    "AEBODSYS": "Cardiac disorders",
    "AECAT": "GENERAL",
    "AESEV": "LIFE-THREATENING",
    "AETOXGR": 4,
    "ATOXGRN": 4,
    "AESER": "Y",
    "AEREL": "RELATED",
    "RELGR1": "Y",
    "RELGR1N": 1,
    "ASTDT": "2013-07-11",
    "AENDT": "2013-07-15",
    "ASTDY": 20,
    "AENDY": 24,
    "ADURN": 5,
    "ADURU": "DAY",
    "TRTEMFL": "Y",
    "AOCCFL": "Y",
    "AOCC01FL": "Y",
    "AOCCPFL": "Y",
    "AGE": 81,
    "AGEGR1": ">80",
    "SEX": "F",
    "MMSETOT": 14,
    "SAFFL": "Y"
  },
  {
    "STUDYID": "CDISCPILOT01",
    "USUBJID": "01-713-004",
    "AESEQ": 2,
    "TRTP": "Xanomeline High Dose",
    "TRTPN": 2,
    "AETERM": "Pruritus",
    "AEDECOD": "Pruritus",
    "AEBODSYS": "Skin and subcutaneous tissue disorders",
    "AECAT": "GENERAL",
    "AESEV": "MODERATE",
    "AETOXGR": 2,
    "ATOXGRN": 2,
    "AESER": "N",
    "AEREL": "RELATED",
    "RELGR1": "Y",
    "RELGR1N": 1,
    "ASTDT": "2013-07-21",
    "AENDT": "2013-07-23",
    "ASTDY": 30,
    "AENDY": 32,
    "ADURN": 3,
    "ADURU": "DAY",
    "TRTEMFL": "Y",
    "AOCCFL": "Y",
    "AOCC01FL": "Y",
    "CQ02NAM": "DERMATOLOGICAL AE",
    "AGE": 81,
    "AGEGR1": ">80",
    "SEX": "F",
    "MMSETOT": 14,
    "SAFFL": "Y"
  },
  {
    "STUDYID": "CDISCPILOT01",
    "USUBJID": "01-714-003",
    "AESEQ": 1,
    "TRTP": "Xanomeline Low Dose",
    "TRTPN": 1,
    "AETERM": "Application site vesicles",
    "AEDECOD": "Application site vesicles",
    "AEBODSYS": "General disorders and administration site conditions",
    "AECAT": "APPLICATION SITE",
    "AESEV": "MILD",
    "AETOXGR": 1,
    "ATOXGRN": 1,
    "AESER": "N",
    "AEREL": "RELATED",
    "RELGR1": "Y",
    "RELGR1N": 1,
    "ASTDT": "2013-10-28",
    "AENDT": "2013-11-04",
    "ASTDY": 4,
    "AENDY": 11,
    "ADURN": 8,
    "ADURU": "DAY",
    "TRTEMFL": "Y",
    "AOCCFL": "Y",
    "AOCC01FL": "Y",
    "CQ01NAM": "APPLICATION SITE REACTION",
    "AGE": 69,
    "AGEGR1": "65-80",
    "SEX": "F",
    "MMSETOT": 16,
    "SAFFL": "Y"
  },
  {
    "STUDYID": "CDISCPILOT01",
    "USUBJID": "01-714-003",
    "AESEQ": 2,
    "TRTP": "Xanomeline Low Dose",
    "TRTPN": 1,
    "AETERM": "Pruritus",
    "AEDECOD": "Pruritus",
    "AEBODSYS": "Skin and subcutaneous tissue disorders",
    "AECAT": "GENERAL",
    "AESEV": "MILD",
    "AETOXGR": 1,
    "ATOXGRN": 1,
    "AESER": "N",
    "AEREL": "NOT RELATED",
    "RELGR1": "N",
    "RELGR1N": 0,
    "ASTDT": "2013-12-07",
    "AENDT": "2013-12-28",
    "ASTDY": 44,
    "AENDY": 65,
    "ADURN": 22,
    "ADURU": "DAY",
    "TRTEMFL": "Y",
    "AOCCFL": "Y",
    "AOCC01FL": "Y",
    "CQ02NAM": "DERMATOLOGICAL AE",
    "AGE": 69,
    "AGEGR1": "65-80",
    "SEX": "F",
    "MMSETOT": 16,
    "SAFFL": "Y"
  },
  {
    "STUDYID": "CDISCPILOT01",
    "USUBJID": "01-714-003",
    "AESEQ": 3,
    "TRTP": "Xanomeline Low Dose",
    "TRTPN": 1,
    "AETERM": "Sinus bradycardia",
    "AEDECOD": "Sinus bradycardia",
    "AEBODSYS": "Cardiac disorders",
    "AECAT": "GENERAL",
    "AESEV": "MILD",
    "AETOXGR": 1,
    "ATOXGRN": 1,
    "AESER": "N",
    "AEREL": "POSSIBLY RELATED",
    "RELGR1": "Y",
    "RELGR1N": 1,
    "ASTDT": "2013-11-16",
    "AENDT": "2013-12-24",
    "ASTDY": 23,
    "AENDY": 61,
    "ADURN": 39,
    "ADURU": "DAY",
    "TRTEMFL": "Y",
    "AOCCFL": "Y",
    "AOCC01FL": "Y",
    "AGE": 69,
    "AGEGR1": "65-80",
    "SEX": "F",
    "MMSETOT": 16,
    "SAFFL": "Y"
  },
  {
    "STUDYID": "CDISCPILOT01",
    "USUBJID": "01-715-001",
    "AESEQ": 2,
    "TRTP": "Xanomeline High Dose",
    "TRTPN": 2,
    "AETERM": "Erythema",
    "AEDECOD": "Erythema",
    "AEBODSYS": "Skin and subcutaneous tissue disorders",
    "AECAT": "GENERAL",
    "AESEV": "MODERATE",
    "AETOXGR": 2,
    "ATOXGRN": 2,
    "AESER": "N",
    "AEREL": "POSSIBLY RELATED",
    "RELGR1": "Y",
    "RELGR1N": 1,
    "ASTDT": "2013-08-18",
    "AENDT": "2013-08-24",
    "ASTDY": 17,
    "AENDY": 23,
    "ADURN": 7,
    "ADURU": "DAY",
    "TRTEMFL": "Y",
    "AOCCFL": "Y",
    "AOCC01FL": "Y",
    "CQ02NAM": "DERMATOLOGICAL AE",
    "AGE": 70,
    "AGEGR1": "65-80",
    "SEX": "F",
    "MMSETOT": 24,
    "SAFFL": "Y"
  },
  {
    "STUDYID": "CDISCPILOT01",
    "USUBJID": "01-715-001",
    "AESEQ": 1,
    "TRTP": "Xanomeline High Dose",
    "TRTPN": 2,
    "AETERM": "Pruritus",
    "AEDECOD": "Pruritus",
    "AEBODSYS": "Skin and subcutaneous tissue disorders",
    "AECAT": "GENERAL",
    "AESEV": "MILD",
    "AETOXGR": 1,
    "ATOXGRN": 1,
    "AESER": "N",
    "AEREL": "RELATED",
    "RELGR1": "Y",
    "RELGR1N": 1,
    "ASTDT": "2013-09-15",
    "AENDT": "2013-09-18",
    "ASTDY": 45,
    "AENDY": 48,
    "ADURN": 4,
    "ADURU": "DAY",
    "TRTEMFL": "Y",
    "AOCCFL": "Y",
    "CQ02NAM": "DERMATOLOGICAL AE",
    "AGE": 70,
    "AGEGR1": "65-80",
    "SEX": "F",
    "MMSETOT": 24,
    "SAFFL": "Y"
  },
  {
    "STUDYID": "CDISCPILOT01",
    "USUBJID": "01-715-004",
    "AESEQ": 1,
    "TRTP": "Placebo",
    "TRTPN": 0,
    "AETERM": "Erythema",
    "AEDECOD": "Erythema",
    "AEBODSYS": "Skin and subcutaneous tissue disorders",
    "AECAT": "GENERAL",
    "AESEV": "MODERATE",
    "AETOXGR": 2,
    "ATOXGRN": 2,
    "AESER": "N",
    "AEREL": "POSSIBLY RELATED",
    "RELGR1": "Y",
    "RELGR1N": 1,
    "ASTDT": "2013-11-28",
    "AENDT": "2013-12-10",
    "ASTDY": 38,
    "AENDY": 50,
    "ADURN": 13,
    "ADURU": "DAY",
    "TRTEMFL": "Y",
    "AOCCFL": "Y",
    "AOCC01FL": "Y",
    "CQ02NAM": "DERMATOLOGICAL AE",
    "AGE": 76,
    "AGEGR1": "65-80",
    "SEX": "F",
    "MMSETOT": 22,
    "SAFFL": "Y"
  },
  {
    "STUDYID": "CDISCPILOT01",
    "USUBJID": "01-715-005",
    "AESEQ": 1,
    "TRTP": "Placebo",
    "TRTPN": 0,
    "AETERM": "Application site dermatitis",
    "AEDECOD": "Application site dermatitis",
    "AEBODSYS": "General disorders and administration site conditions",
    "AECAT": "APPLICATION SITE",
    "AESEV": "MODERATE",
    "AETOXGR": 2,
    "ATOXGRN": 2,
    "AESER": "N",
    "AEREL": "POSSIBLY RELATED",
    "RELGR1": "Y",
    "RELGR1N": 1,
    "ASTDT": "2013-12-25",
    "AENDT": "2014-01-14",
    "ASTDY": 17,
    "AENDY": 37,
    "ADURN": 21,
    "ADURU": "DAY",
    "TRTEMFL": "Y",
    "AOCCFL": "Y",
    "AOCC01FL": "Y",
    "CQ01NAM": "APPLICATION SITE REACTION",
    "AGE": 66,
    "AGEGR1": "65-80",
    "SEX": "F",
    "MMSETOT": 15,
    "SAFFL": "Y"
  },
  {
    "STUDYID": "CDISCPILOT01",
    "USUBJID": "01-715-007",
    "AESEQ": 1,
    "TRTP": "Placebo",
    "TRTPN": 0,
    "AETERM": "Diarrhoea",
    "AEDECOD": "Diarrhoea",
    "AEBODSYS": "Gastrointestinal disorders",
    "AECAT": "GENERAL",
    "AESEV": "MILD",
    "AETOXGR": 1,
    "ATOXGRN": 1,
    "AESER": "N",
    "AEREL": "RELATED",
    "RELGR1": "Y",
    "RELGR1N": 1,
    "ASTDT": "2013-12-14",
    "AENDT": "2013-12-20",
    "ASTDY": 37,
    "AENDY": 43,
    "ADURN": 7,
    "ADURU": "DAY",
    "TRTEMFL": "Y",
    "AOCCFL": "Y",
    "AOCC01FL": "Y",
    "AGE": 62,
    "AGEGR1": "<65",
    "SEX": "F",
    "MMSETOT": 16,
    "SAFFL": "Y"
  },
  {
    "STUDYID": "CDISCPILOT01",
    "USUBJID": "01-716-001",
    "AESEQ": 1,
    "TRTP": "Xanomeline Low Dose",
    "TRTPN": 1,
    "AETERM": "Rash",
    "AEDECOD": "Rash",
    "AEBODSYS": "Skin and subcutaneous tissue disorders",
    "AECAT": "GENERAL",
    "AESEV": "MODERATE",
    "AETOXGR": 2,
    "ATOXGRN": 2,
    "AESER": "N",
    "AEREL": "RELATED",
    "RELGR1": "Y",
    "RELGR1N": 1,
    "ASTDT": "2013-06-09",
    "AENDT": "2013-06-19",
    "ASTDY": 21,
    "AENDY": 31,
    "ADURN": 11,
    "ADURU": "DAY",
    "TRTEMFL": "Y",
    "AOCCFL": "Y",
    "AOCC01FL": "Y",
    "CQ02NAM": "DERMATOLOGICAL AE",
    "AGE": 76,
    "AGEGR1": "65-80",
    "SEX": "M",
    "MMSETOT": 20,
    "SAFFL": "Y"
  },
  {
    "STUDYID": "CDISCPILOT01",
    "USUBJID": "01-716-003",
    "AESEQ": 1,
    "TRTP": "Placebo",
    "TRTPN": 0,
    "AETERM": "Upper respiratory tract infection",
    "AEDECOD": "Upper respiratory tract infection",
    "AEBODSYS": "Infections and infestations",
    "AECAT": "GENERAL",
    "AESEV": "SEVERE",
    "AETOXGR": 3,
    "ATOXGRN": 3,
    "AESER": "Y",
    "AEREL": "NOT RELATED",
    "RELGR1": "N",
    "RELGR1N": 0,
    "ASTDT": "2013-11-27",
    "AENDT": "2013-12-11",
    "ASTDY": 14,
    "AENDY": 28,
    "ADURN": 15,
    "ADURU": "DAY",
    "TRTEMFL": "Y",
    "AOCCFL": "Y",
    "AOCC01FL": "Y",
    "AOCCPFL": "Y",
    "AGE": 76,
    "AGEGR1": "65-80",
    "SEX": "F",
    "MMSETOT": 22,
    "SAFFL": "Y"
  },
  {
    "STUDYID": "CDISCPILOT01",
    "USUBJID": "01-716-004",
    "AESEQ": 2,
    "TRTP": "Xanomeline High Dose",
    "TRTPN": 2,
    "AETERM": "Agitation",
    "AEDECOD": "Agitation",
    "AEBODSYS": "Psychiatric disorders",
    "AECAT": "GENERAL",
    "AESEV": "MODERATE",
    "AETOXGR": 2,
    "ATOXGRN": 2,
    "AESER": "N",
    "AEREL": "RELATED",
    "RELGR1": "Y",
    "RELGR1N": 1,
    "ASTDT": "2013-11-06",
    "AENDT": "2013-11-16",
    "ASTDY": 59,
    "AENDY": 69,
    "ADURN": 11,
    "ADURU": "DAY",
    "TRTEMFL": "Y",
    "AOCCFL": "Y",
    "AOCC01FL": "Y",
    "AGE": 70,
    "AGEGR1": "65-80",
    "SEX": "F",
    "MMSETOT": 18,
    "SAFFL": "Y"
  },
  {
    "STUDYID": "CDISCPILOT01",
    "USUBJID": "01-716-004",
    "AESEQ": 1,
    "TRTP": "Xanomeline High Dose",
    "TRTPN": 2,
    "AETERM": "Nausea",
    "AEDECOD": "Nausea",
    "AEBODSYS": "Gastrointestinal disorders",
    "AECAT": "GENERAL",
    "AESEV": "MODERATE",
    "AETOXGR": 2,
    "ATOXGRN": 2,
    "AESER": "N",
    "AEREL": "POSSIBLY RELATED",
    "RELGR1": "Y",
    "RELGR1N": 1,
    "ASTDT": "2013-10-08",
    "AENDT": "2013-10-20",
    "ASTDY": 30,
    "AENDY": 42,
    "ADURN": 13,
    "ADURU": "DAY",
    "TRTEMFL": "Y",
    "AOCCFL": "Y",
    "AOCC01FL": "Y",
    "AGE": 70,
    "AGEGR1": "65-80",
    "SEX": "F",
    "MMSETOT": 18,
    "SAFFL": "Y"
  },
  {
    "STUDYID": "CDISCPILOT01",
    "USUBJID": "01-716-008",
    "AESEQ": 1,
    "TRTP": "Xanomeline High Dose",
    "TRTPN": 2,
    "AETERM": "Dizziness",
    "AEDECOD": "Dizziness",
    "AEBODSYS": "Nervous system disorders",
    "AECAT": "GENERAL",
    "AESEV": "MILD",
    "AETOXGR": 1,
    "ATOXGRN": 1,
    "AESER": "N",
    "AEREL": "POSSIBLY RELATED",
    "RELGR1": "Y",
    "RELGR1N": 1,
    "ASTDT": "2013-06-09",
    "AENDT": "2013-06-11",
    "ASTDY": 48,
    "AENDY": 50,
    "ADURN": 3,
    "ADURU": "DAY",
    "TRTEMFL": "Y",
    "AOCCFL": "Y",
    "AOCC01FL": "Y",
    "AGE": 78,
    "AGEGR1": "65-80",
    "SEX": "F",
    "MMSETOT": 13,
    "SAFFL": "Y"
  },
  {
    "STUDYID": "CDISCPILOT01",
    "USUBJID": "01-716-009",
    "AESEQ": 2,
    "TRTP": "Xanomeline High Dose",
    "TRTPN": 2,
    "AETERM": "Application site erythema",
    "AEDECOD": "Application site erythema",
    "AEBODSYS": "General disorders and administration site conditions",
    "AECAT": "APPLICATION SITE",
    "AESEV": "MILD",
    "AETOXGR": 1,
    "ATOXGRN": 1,
    "AESER": "N",
    "AEREL": "RELATED",
    "RELGR1": "Y",
    "RELGR1N": 1,
    "ASTDT": "2013-10-21",
    "AENDT": "2013-11-04",
    "ASTDY": 28,
    "AENDY": 42,
    "ADURN": 15,
    "ADURU": "DAY",
    "TRTEMFL": "Y",
    "AOCCFL": "Y",
    "AOCC01FL": "Y",
    "CQ01NAM": "APPLICATION SITE REACTION",
    "AGE": 78,
    "AGEGR1": "65-80",
    "SEX": "M",
    "MMSETOT": 19,
    "SAFFL": "Y"
  },
  {
    "STUDYID": "CDISCPILOT01",
    "USUBJID": "01-716-009",
    "AESEQ": 1,
    "TRTP": "Xanomeline High Dose",
    "TRTPN": 2,
    "AETERM": "Application site pruritus",
    "AEDECOD": "Application site pruritus",
    "AEBODSYS": "General disorders and administration site conditions",
    "AECAT": "APPLICATION SITE",
    "AESEV": "MILD",
    "AETOXGR": 1,
    "ATOXGRN": 1,
    "AESER": "N",
    "AEREL": "RELATED",
    "RELGR1": "Y",
    "RELGR1N": 1,
    "ASTDT": "2013-10-03",
    "AENDT": "2013-10-31",
    "ASTDY": 10,
    "AENDY": 38,
    "ADURN": 29,
    "ADURU": "DAY",
    "TRTEMFL": "Y",
    "AOCCFL": "Y",
    "CQ01NAM": "APPLICATION SITE REACTION",
    "AGE": 78,
    "AGEGR1": "65-80",
    "SEX": "M",
    "MMSETOT": 19,
    "SAFFL": "Y"
  },
  {
    "STUDYID": "CDISCPILOT01",
    "USUBJID": "01-716-009",
    "AESEQ": 3,
    "TRTP": "Xanomeline High Dose",
    "TRTPN": 2,
    "AETERM": "Hyperhidrosis",
    "AEDECOD": "Hyperhidrosis",
    "AEBODSYS": "Skin and subcutaneous tissue disorders",
    "AECAT": "GENERAL",
    "AESEV": "MODERATE",
    "AETOXGR": 2,
    "ATOXGRN": 2,
    "AESER": "N",
    "AEREL": "RELATED",
    "RELGR1": "Y",
    "RELGR1N": 1,
    "ASTDT": "2013-11-25",
    "AENDT": "2013-12-13",
    "ASTDY": 63,
    "AENDY": 81,
    "ADURN": 19,
    "ADURU": "DAY",
    "TRTEMFL": "Y",
    "AOCCFL": "Y",
    "AOCC01FL": "Y",
    "CQ02NAM": "DERMATOLOGICAL AE",
    "AGE": 78,
    "AGEGR1": "65-80",
    "SEX": "M",
    "MMSETOT": 19,
    "SAFFL": "Y"
  },
  {
    "STUDYID": "CDISCPILOT01",
    "USUBJID": "01-716-010",
    "AESEQ": 1,
    "TRTP": "Xanomeline High Dose",
    "TRTPN": 2,
    "AETERM": "Skin irritation",
    "AEDECOD": "Skin irritation",
    "AEBODSYS": "Skin and subcutaneous tissue disorders",
    "AECAT": "GENERAL",
    "AESEV": "MODERATE",
    "AETOXGR": 2,
    "ATOXGRN": 2,
    "AESER": "N",
    "AEREL": "NOT RELATED",
    "RELGR1": "N",
    "RELGR1N": 0,
    "ASTDT": "2014-01-19",
    "AENDT": "2014-02-05",
    "ASTDY": 22,
    "AENDY": 39,
    "ADURN": 18,
    "ADURU": "DAY",
    "TRTEMFL": "Y",
    "AOCCFL": "Y",
    "AOCC01FL": "Y",
    "CQ02NAM": "DERMATOLOGICAL AE",
    "AGE": 87,
    "AGEGR1": ">80",
    "SEX": "F",
    "MMSETOT": 16,
    "SAFFL": "Y"
  },
  {
    "STUDYID": "CDISCPILOT01",
    "USUBJID": "01-716-011",
    "AESEQ": 1,
    "TRTP": "Xanomeline High Dose",
    "TRTPN": 2,
    "AETERM": "Fatigue",
    "AEDECOD": "Fatigue",
    "AEBODSYS": "General disorders and administration site conditions",
    "AECAT": "GENERAL",
    "AESEV": "MODERATE",
    "AETOXGR": 2,
    "ATOXGRN": 2,
    "AESER": "N",
    "AEREL": "POSSIBLY RELATED",
    "RELGR1": "Y",
    "RELGR1N": 1,
    "ASTDT": "2014-01-23",
    "AENDT": "2014-02-09",
    "ASTDY": 24,
    "AENDY": 41,
    "ADURN": 18,
    "ADURU": "DAY",
    "TRTEMFL": "Y",
    "AOCCFL": "Y",
    "AOCC01FL": "Y",
    "AGE": 76,
    "AGEGR1": "65-80",
    "SEX": "M",
    "MMSETOT": 13,
    "SAFFL": "Y"
  },
  {
    "STUDYID": "CDISCPILOT01",
    "USUBJID": "01-716-013",
    "AESEQ": 1,
    "TRTP": "Xanomeline Low Dose",
    "TRTPN": 1,
    "AETERM": "Syncope",
    "AEDECOD": "Syncope",
    "AEBODSYS": "Nervous system disorders",
    "AECAT": "GENERAL",
    "AESEV": "MODERATE",
    "AETOXGR": 2,
    "ATOXGRN": 2,
    "AESER": "Y",
    "AEREL": "RELATED",
    "RELGR1": "Y",
    "RELGR1N": 1,
    "ASTDT": "2013-12-11",
    "AENDT": "2013-12-12",
    "ASTDY": 22,
    "AENDY": 23,
    "ADURN": 2,
    "ADURU": "DAY",
    "TRTEMFL": "Y",
    "AOCCFL": "Y",
    "AOCC01FL": "Y",
    "AOCCPFL": "Y",
    "AGE": 73,
    "AGEGR1": "65-80",
    "SEX": "F",
    "MMSETOT": 17,
    "SAFFL": "Y"
  },
  {
    "STUDYID": "CDISCPILOT01",
    "USUBJID": "01-716-015",
    "AESEQ": 1,
    "TRTP": "Xanomeline High Dose",
    "TRTPN": 2,
    "AETERM": "Application site erythema",
    "AEDECOD": "Application site erythema",
    "AEBODSYS": "General disorders and administration site conditions",
    "AECAT": "APPLICATION SITE",
    "AESEV": "MODERATE",
    "AETOXGR": 2,
    "ATOXGRN": 2,
    "AESER": "N",
    "AEREL": "RELATED",
    "RELGR1": "Y",
    "RELGR1N": 1,
    "ASTDT": "2013-03-06",
    "AENDT": "2013-03-15",
    "ASTDY": 22,
    "AENDY": 31,
    "ADURN": 10,
    "ADURU": "DAY",
    "TRTEMFL": "Y",
    "AOCCFL": "Y",
    "AOCC01FL": "Y",
    "CQ01NAM": "APPLICATION SITE REACTION",
    "AGE": 77,
    "AGEGR1": "65-80",
    "SEX": "F",
    "MMSETOT": 24,
    "SAFFL": "Y"
  },
  {
    "STUDYID": "CDISCPILOT01",
    "USUBJID": "01-716-019",
    "AESEQ": 1,
    "TRTP": "Placebo",
    "TRTPN": 0,
    "AETERM": "Headache",
    "AEDECOD": "Headache",
    "AEBODSYS": "Nervous system disorders",
    "AECAT": "GENERAL",
    "AESEV": "MODERATE",
    "AETOXGR": 2,
    "ATOXGRN": 2,
    "AESER": "N",
    "AEREL": "NOT RELATED",
    "RELGR1": "N",
    "RELGR1N": 0,
    "ASTDT": "2013-09-21",
    "AENDT": "2013-10-20",
    "ASTDY": 69,
    "AENDY": 98,
    "ADURN": 30,
    "ADURU": "DAY",
    "TRTEMFL": "Y",
    "AOCCFL": "Y",
    "AOCC01FL": "Y",
    "AGE": 75,
    "AGEGR1": "65-80",
    "SEX": "M",
    "MMSETOT": 20,
    "SAFFL": "Y"
  },
  {
    "STUDYID": "CDISCPILOT01",
    "USUBJID": "01-716-019",
    "AESEQ": 2,
    "TRTP": "Placebo",
    "TRTPN": 0,
    "AETERM": "Nasal congestion",
    "AEDECOD": "Nasal congestion",
    "AEBODSYS": "Respiratory, thoracic and mediastinal disorders",
    "AECAT": "GENERAL",
    "AESEV": "MILD",
    "AETOXGR": 1,
    "ATOXGRN": 1,
    "AESER": "N",
    "AEREL": "POSSIBLY RELATED",
    "RELGR1": "Y",
    "RELGR1N": 1,
    "ASTDT": "2013-10-04",
    "AENDT": "2013-10-25",
    "ASTDY": 82,
    "AENDY": 103,
    "ADURN": 22,
    "ADURU": "DAY",
    "TRTEMFL": "Y",
    "AOCCFL": "Y",
    "AOCC01FL": "Y",
    "AGE": 75,
    "AGEGR1": "65-80",
    "SEX": "M",
    "MMSETOT": 20,
    "SAFFL": "Y"
  },
  {
    "STUDYID": "CDISCPILOT01",
    "USUBJID": "01-716-021",
    "AESEQ": 1,
    "TRTP": "Placebo",
    "TRTPN": 0,
    "AETERM": "Nasopharyngitis",
    "AEDECOD": "Nasopharyngitis",
    "AEBODSYS": "Infections and infestations",
    "AECAT": "GENERAL",
    "AESEV": "MILD",
    "AETOXGR": 1,
    "ATOXGRN": 1,
    "AESER": "N",
    "AEREL": "RELATED",
    "RELGR1": "Y",
    "RELGR1N": 1,
    "ASTDT": "2013-11-27",
    "AENDT": "2014-01-08",
    "ASTDY": 19,
    "AENDY": 61,
    "ADURN": 43,
    "ADURU": "DAY",
    "TRTEMFL": "Y",
    "AOCCFL": "Y",
    "AOCC01FL": "Y",
    "AGE": 70,
    "AGEGR1": "65-80",
    "SEX": "F",
    "MMSETOT": 10,
    "SAFFL": "Y"
  },
  {
    "STUDYID": "CDISCPILOT01",
    "USUBJID": "01-716-022",
    "AESEQ": 1,
    "TRTP": "Xanomeline Low Dose",
    "TRTPN": 1,
    "AETERM": "Application site pruritus",
    "AEDECOD": "Application site pruritus",
    "AEBODSYS": "General disorders and administration site conditions",
    "AECAT": "APPLICATION SITE",
    "AESEV": "MODERATE",
    "AETOXGR": 2,
    "ATOXGRN": 2,
    "AESER": "N",
    "AEREL": "RELATED",
    "RELGR1": "Y",
    "RELGR1N": 1,
    "ASTDT": "2013-08-22",
    "AENDT": "2013-09-02",
    "ASTDY": 14,
    "AENDY": 25,
    "ADURN": 12,
    "ADURU": "DAY",
    "TRTEMFL": "Y",
    "AOCCFL": "Y",
    "AOCC01FL": "Y",
    "CQ01NAM": "APPLICATION SITE REACTION",
    "AGE": 83,
    "AGEGR1": ">80",
    "SEX": "F",
    "MMSETOT": 21,
    "SAFFL": "Y"
  },
  {
    "STUDYID": "CDISCPILOT01",
    "USUBJID": "01-716-024",
    "AESEQ": 1,
    "TRTP": "Xanomeline Low Dose",
    "TRTPN": 1,
    "AETERM": "Application site dermatitis",
    "AEDECOD": "Application site dermatitis",
    "AEBODSYS": "General disorders and administration site conditions",
    "AECAT": "APPLICATION SITE",
    "AESEV": "MODERATE",
    "AETOXGR": 2,
    "ATOXGRN": 2,
    "AESER": "N",
    "AEREL": "RELATED",
    "RELGR1": "Y",
    "RELGR1N": 1,
    "ASTDT": "2013-01-14",
    "AENDT": "2013-01-25",
    "ASTDY": 4,
    "AENDY": 15,
    "ADURN": 12,
    "ADURU": "DAY",
    "TRTEMFL": "Y",
    "AOCCFL": "Y",
    "AOCC01FL": "Y",
    "CQ01NAM": "APPLICATION SITE REACTION",
    "AGE": 70,
    "AGEGR1": "65-80",
    "SEX": "M",
    "MMSETOT": 23,
    "SAFFL": "Y"
  },
  {
    "STUDYID": "CDISCPILOT01",
    "USUBJID": "01-716-024",
    "AESEQ": 5,
    "TRTP": "Xanomeline Low Dose",
    "TRTPN": 1,
    "AETERM": "Diarrhoea",
    "AEDECOD": "Diarrhoea",
    "AEBODSYS": "Gastrointestinal disorders",
    "AECAT": "GENERAL",
    "AESEV": "MODERATE",
    "AETOXGR": 2,
    "ATOXGRN": 2,
    "AESER": "N",
    "AEREL": "POSSIBLY RELATED",
    "RELGR1": "Y",
    "RELGR1N": 1,
    "ASTDT": "2013-03-13",
    "AENDT": "2013-03-30",
    "ASTDY": 62,
    "AENDY": 79,
    "ADURN": 18,
    "ADURU": "DAY",
    "TRTEMFL": "Y",
    "AOCCFL": "Y",
    "AOCC01FL": "Y",
    "AGE": 70,
    "AGEGR1": "65-80",
    "SEX": "M",
    "MMSETOT": 23,
    "SAFFL": "Y"
  },
  {
    "STUDYID": "CDISCPILOT01",
    "USUBJID": "01-716-024",
    "AESEQ": 4,
    "TRTP": "Xanomeline Low Dose",
    "TRTPN": 1,
    "AETERM": "Dizziness",
    "AEDECOD": "Dizziness",
    "AEBODSYS": "Nervous system disorders",
    "AECAT": "GENERAL",
    "AESEV": "MILD",
    "AETOXGR": 1,
    "ATOXGRN": 1,
    "AESER": "N",
    "AEREL": "RELATED",
    "RELGR1": "Y",
    "RELGR1N": 1,
    "ASTDT": "2013-02-02",
    "AENDT": "2013-02-20",
    "ASTDY": 23,
    "AENDY": 41,
    "ADURN": 19,
    "ADURU": "DAY",
    "TRTEMFL": "Y",
    "AOCCFL": "Y",
    "AOCC01FL": "Y",
    "AGE": 70,
    "AGEGR1": "65-80",
    "SEX": "M",
    "MMSETOT": 23,
    "SAFFL": "Y"
  },
  {
    "STUDYID": "CDISCPILOT01",
    "USUBJID": "01-716-024",
    "AESEQ": 2,
    "TRTP": "Xanomeline Low Dose",
    "TRTPN": 1,
    "AETERM": "Pruritus",
    "AEDECOD": "Pruritus",
    "AEBODSYS": "Skin and subcutaneous tissue disorders",
    "AECAT": "GENERAL",
    "AESEV": "MILD",
    "AETOXGR": 1,
    "ATOXGRN": 1,
    "AESER": "N",
    "AEREL": "POSSIBLY RELATED",
    "RELGR1": "Y",
    "RELGR1N": 1,
    "ASTDT": "2013-04-04",
    "AENDT": "2013-04-06",
    "ASTDY": 84,
    "AENDY": 86,
    "ADURN": 3,
    "ADURU": "DAY",
    "TRTEMFL": "Y",
    "AOCCFL": "Y",
    "AOCC01FL": "Y",
    "CQ02NAM": "DERMATOLOGICAL AE",
    "AGE": 70,
    "AGEGR1": "65-80",
    "SEX": "M",
    "MMSETOT": 23,
    "SAFFL": "Y"
  },
  {
    "STUDYID": "CDISCPILOT01",
    "USUBJID": "01-716-024",
    "AESEQ": 3,
    "TRTP": "Xanomeline Low Dose",
    "TRTPN": 1,
    "AETERM": "Rash",
    "AEDECOD": "Rash",
    "AEBODSYS": "Skin and subcutaneous tissue disorders",
    "AECAT": "GENERAL",
    "AESEV": "MILD",
    "AETOXGR": 1,
    "ATOXGRN": 1,
    "AESER": "N",
    "AEREL": "POSSIBLY RELATED",
    "RELGR1": "Y",
    "RELGR1N": 1,
    "ASTDT": "2013-05-07",
    "AENDT": "2013-06-17",
    "ASTDY": 117,
    "AENDY": 158,
    "ADURN": 42,
    "ADURU": "DAY",
    "TRTEMFL": "Y",
    "AOCCFL": "Y",
    "CQ02NAM": "DERMATOLOGICAL AE",
    "AGE": 70,
    "AGEGR1": "65-80",
    "SEX": "M",
    "MMSETOT": 23,
    "SAFFL": "Y"
  },
  {
    "STUDYID": "CDISCPILOT01",
    "USUBJID": "01-716-025",
    "AESEQ": 1,
    "TRTP": "Xanomeline High Dose",
    "TRTPN": 2,
    "AETERM": "Dizziness",
    "AEDECOD": "Dizziness",
    "AEBODSYS": "Nervous system disorders",
    "AECAT": "GENERAL",
    "AESEV": "MODERATE",
    "AETOXGR": 2,
    "ATOXGRN": 2,
    "AESER": "N",
    "AEREL": "NOT RELATED",
    "RELGR1": "N",
    "RELGR1N": 0,
    "ASTDT": "2013-04-14",
    "AENDT": "2013-04-24",
    "ASTDY": 47,
    "AENDY": 57,
    "ADURN": 11,
    "ADURU": "DAY",
    "TRTEMFL": "Y",
    "AOCCFL": "Y",
    "AOCC01FL": "Y",
    "AGE": 77,
    "AGEGR1": "65-80",
    "SEX": "F",
    "MMSETOT": 15,
    "SAFFL": "Y"
  },
  {
    "STUDYID": "CDISCPILOT01",
    "USUBJID": "01-717-002",
    "AESEQ": 2,
    "TRTP": "Xanomeline High Dose",
    "TRTPN": 2,
    "AETERM": "Application site erythema",
    "AEDECOD": "Application site erythema",
    "AEBODSYS": "General disorders and administration site conditions",
    "AECAT": "APPLICATION SITE",
    "AESEV": "MODERATE",
    "AETOXGR": 2,
    "ATOXGRN": 2,
    "AESER": "N",
    "AEREL": "RELATED",
    "RELGR1": "Y",
    "RELGR1N": 1,
    "ASTDT": "2013-04-23",
    "AENDT": "2013-05-10",
    "ASTDY": 14,
    "AENDY": 31,
    "ADURN": 18,
    "ADURU": "DAY",
    "TRTEMFL": "Y",
    "AOCCFL": "Y",
    "AOCC01FL": "Y",
    "CQ01NAM": "APPLICATION SITE REACTION",
    "AGE": 74,
    "AGEGR1": "65-80",
    "SEX": "M",
    "MMSETOT": 21,
    "SAFFL": "Y"
  },
  {
    "STUDYID": "CDISCPILOT01",
    "USUBJID": "01-717-002",
    "AESEQ": 1,
    "TRTP": "Xanomeline High Dose",
    "TRTPN": 2,
    "AETERM": "Application site pruritus",
    "AEDECOD": "Application site pruritus",
    "AEBODSYS": "General disorders and administration site conditions",
    "AECAT": "APPLICATION SITE",
    "AESEV": "MODERATE",
    "AETOXGR": 2,
    "ATOXGRN": 2,
    "AESER": "N",
    "AEREL": "RELATED",
    "RELGR1": "Y",
    "RELGR1N": 1,
    "ASTDT": "2013-04-22",
    "AENDT": "2013-05-08",
    "ASTDY": 13,
    "AENDY": 29,
    "ADURN": 17,
    "ADURU": "DAY",
    "TRTEMFL": "Y",
    "AOCCFL": "Y",
    "CQ01NAM": "APPLICATION SITE REACTION",
    "AGE": 74,
    "AGEGR1": "65-80",
    "SEX": "M",
    "MMSETOT": 21,
    "SAFFL": "Y"
  },
  {
    "STUDYID": "CDISCPILOT01",
    "USUBJID": "01-717-002",
    "AESEQ": 3,
    "TRTP": "Xanomeline High Dose",
    "TRTPN": 2,
    "AETERM": "Fatigue",
    "AEDECOD": "Fatigue",
    "AEBODSYS": "General disorders and administration site conditions",
    "AECAT": "GENERAL",
    "AESEV": "MODERATE",
    "AETOXGR": 2,
    "ATOXGRN": 2,
    "AESER": "N",
    "AEREL": "NOT RELATED",
    "RELGR1": "N",
    "RELGR1N": 0,
    "ASTDT": "2013-06-05",
    "AENDT": "2013-06-11",
    "ASTDY": 57,
    "AENDY": 63,
    "ADURN": 7,
    "ADURU": "DAY",
    "TRTEMFL": "Y",
    "AOCCFL": "Y",
    "AGE": 74,
    "AGEGR1": "65-80",
    "SEX": "M",
    "MMSETOT": 21,
    "SAFFL": "Y"
  },
  {
    "STUDYID": "CDISCPILOT01",
    "USUBJID": "01-718-004",
    "AESEQ": 2,
    "TRTP": "Xanomeline High Dose",
    "TRTPN": 2,
    "AETERM": "Erythema",
    "AEDECOD": "Erythema",
    "AEBODSYS": "Skin and subcutaneous tissue disorders",
    "AECAT": "GENERAL",
    "AESEV": "MILD",
    "AETOXGR": 1,
    "ATOXGRN": 1,
    "AESER": "N",
    "AEREL": "RELATED",
    "RELGR1": "Y",
    "RELGR1N": 1,
    "ASTDT": "2014-01-08",
    "AENDT": "2014-01-13",
    "ASTDY": 12,
    "AENDY": 17,
    "ADURN": 6,
    "ADURU": "DAY",
    "TRTEMFL": "Y",
    "AOCCFL": "Y",
    "AOCC01FL": "Y",
    "CQ02NAM": "DERMATOLOGICAL AE",
    "AGE": 79,
    "AGEGR1": "65-80",
    "SEX": "F",
    "MMSETOT": 20,
    "SAFFL": "Y"
  },
  {
    "STUDYID": "CDISCPILOT01",
    "USUBJID": "01-718-004",
    "AESEQ": 1,
    "TRTP": "Xanomeline High Dose",
    "TRTPN": 2,
    "AETERM": "Pruritus",
    "AEDECOD": "Pruritus",
    "AEBODSYS": "Skin and subcutaneous tissue disorders",
    "AECAT": "GENERAL",
    "AESEV": "MODERATE",
    "AETOXGR": 2,
    "ATOXGRN": 2,
    "AESER": "N",
    "AEREL": "NOT RELATED",
    "RELGR1": "N",
    "RELGR1N": 0,
    "ASTDT": "2014-03-16",
    "AENDT": "2014-04-14",
    "ASTDY": 79,
    "AENDY": 108,
    "ADURN": 30,
    "ADURU": "DAY",
    "TRTEMFL": "Y",
    "AOCCFL": "Y",
    "CQ02NAM": "DERMATOLOGICAL AE",
    "AGE": 79,
    "AGEGR1": "65-80",
    "SEX": "F",
    "MMSETOT": 20,
    "SAFFL": "Y"
  },
  {
    "STUDYID": "CDISCPILOT01",
    "USUBJID": "01-718-005",
    "AESEQ": 1,
    "TRTP": "Xanomeline Low Dose",
    "TRTPN": 1,
    "AETERM": "Headache",
    "AEDECOD": "Headache",
    "AEBODSYS": "Nervous system disorders",
    "AECAT": "GENERAL",
    "AESEV": "MODERATE",
    "AETOXGR": 2,
    "ATOXGRN": 2,
    "AESER": "N",
    "AEREL": "NOT RELATED",
    "RELGR1": "N",
    "RELGR1N": 0,
    "ASTDT": "2013-07-08",
    "AENDT": "2013-07-20",
    "ASTDY": 29,
    "AENDY": 41,
    "ADURN": 13,
    "ADURU": "DAY",
    "TRTEMFL": "Y",
    "AOCCFL": "Y",
    "AOCC01FL": "Y",
    "AGE": 82,
    "AGEGR1": ">80",
    "SEX": "F",
    "MMSETOT": 19,
    "SAFFL": "Y"
  },
  {
    "STUDYID": "CDISCPILOT01",
    "USUBJID": "01-718-006",
    "AESEQ": 2,
    "TRTP": "Xanomeline High Dose",
    "TRTPN": 2,
    "AETERM": "Agitation",
    "AEDECOD": "Agitation",
    "AEBODSYS": "Psychiatric disorders",
    "AECAT": "GENERAL",
    "AESEV": "MODERATE",
    "AETOXGR": 2,
    "ATOXGRN": 2,
    "AESER": "N",
    "AEREL": "RELATED",
    "RELGR1": "Y",
    "RELGR1N": 1,
    "ASTDT": "2013-06-03",
    "AENDT": "2013-06-06",
    "ASTDY": 3,
    "AENDY": 6,
    "ADURN": 4,
    "ADURU": "DAY",
    "TRTEMFL": "Y",
    "AOCCFL": "Y",
    "AOCC01FL": "Y",
    "AGE": 72,
    "AGEGR1": "65-80",
    "SEX": "F",
    "MMSETOT": 18,
    "SAFFL": "Y"
  },
  {
    "STUDYID": "CDISCPILOT01",
    "USUBJID": "01-718-006",
    "AESEQ": 1,
    "TRTP": "Xanomeline High Dose",
    "TRTPN": 2,
    "AETERM": "Rash",
    "AEDECOD": "Rash",
    "AEBODSYS": "Skin and subcutaneous tissue disorders",
    "AECAT": "GENERAL",
    "AESEV": "MILD",
    "AETOXGR": 1,
    "ATOXGRN": 1,
    "AESER": "N",
    "AEREL": "POSSIBLY RELATED",
    "RELGR1": "Y",
    "RELGR1N": 1,
    "ASTDT": "2013-07-23",
    "AENDT": "2013-09-08",
    "ASTDY": 53,
    "AENDY": 100,
    "ADURN": 48,
    "ADURU": "DAY",
    "TRTEMFL": "Y",
    "AOCCFL": "Y",
    "AOCC01FL": "Y",
    "CQ02NAM": "DERMATOLOGICAL AE",
    "AGE": 72,
    "AGEGR1": "65-80",
    "SEX": "F",
    "MMSETOT": 18,
    "SAFFL": "Y"
  },
  {
    "STUDYID": "CDISCPILOT01",
    "USUBJID": "01-718-007",
    "AESEQ": 3,
    "TRTP": "Xanomeline High Dose",
    "TRTPN": 2,
    "AETERM": "Dizziness",
    "AEDECOD": "Dizziness",
    "AEBODSYS": "Nervous system disorders",
    "AECAT": "GENERAL",
    "AESEV": "MODERATE",
    "AETOXGR": 2,
    "ATOXGRN": 2,
    "AESER": "N",
    "AEREL": "NOT RELATED",
    "RELGR1": "N",
    "RELGR1N": 0,
    "ASTDT": "2013-11-01",
    "AENDT": "2013-12-13",
    "ASTDY": 40,
    "AENDY": 82,
    "ADURN": 43,
    "ADURU": "DAY",
    "TRTEMFL": "Y",
    "AOCCFL": "Y",
    "AOCC01FL": "Y",
    "AGE": 63,
    "AGEGR1": "<65",
    "SEX": "M",
    "MMSETOT": 20,
    "SAFFL": "Y"
  },
  {
    "STUDYID": "CDISCPILOT01",
    "USUBJID": "01-718-007",
    "AESEQ": 2,
    "TRTP": "Xanomeline High Dose",
    "TRTPN": 2,
    "AETERM": "Hyperhidrosis",
    "AEDECOD": "Hyperhidrosis",
    "AEBODSYS": "Skin and subcutaneous tissue disorders",
    "AECAT": "GENERAL",
    "AESEV": "MILD",
    "AETOXGR": 1,
    "ATOXGRN": 1,
    "AESER": "N",
    "AEREL": "RELATED",
    "RELGR1": "Y",
    "RELGR1N": 1,
    "ASTDT": "2013-10-27",
    "AENDT": "2013-10-31",
    "ASTDY": 35,
    "AENDY": 39,
    "ADURN": 5,
    "ADURU": "DAY",
    "TRTEMFL": "Y",
    "AOCCFL": "Y",
    "AOCC01FL": "Y",
    "CQ02NAM": "DERMATOLOGICAL AE",
    "AGE": 63,
    "AGEGR1": "<65",
    "SEX": "M",
    "MMSETOT": 20,
    "SAFFL": "Y"
  },
  {
    "STUDYID": "CDISCPILOT01",
    "USUBJID": "01-718-007",
    "AESEQ": 5,
    "TRTP": "Xanomeline High Dose",
    "TRTPN": 2,
    "AETERM": "Myocardial infarction",
    "AEDECOD": "Myocardial infarction",
    "AEBODSYS": "Cardiac disorders",
    "AECAT": "GENERAL",
    "AESEV": "SEVERE",
    "AETOXGR": 3,
    "ATOXGRN": 3,
    "AESER": "Y",
    "AEREL": "NOT RELATED",
    "RELGR1": "N",
    "RELGR1N": 0,
    "ASTDT": "2013-11-22",
    "AENDT": "2013-11-26",
    "ASTDY": 61,
    "AENDY": 65,
    "ADURN": 5,
    "ADURU": "DAY",
    "TRTEMFL": "Y",
    "AOCCFL": "Y",
    "AOCC01FL": "Y",
    "AOCCPFL": "Y",
    "AGE": 63,
    "AGEGR1": "<65",
    "SEX": "M",
    "MMSETOT": 20,
    "SAFFL": "Y"
  },
  {
    "STUDYID": "CDISCPILOT01",
    "USUBJID": "01-718-007",
    "AESEQ": 1,
    "TRTP": "Xanomeline High Dose",
