{"Conformance_Details": {"Report_Generation": "2026-08-24T07:13:48", "Total_Runtime": "26.08 seconds", "CORE_Engine_Version": "0.16.0", "Issue_Limit_Per_Rule": "None", "Issue_Limit_Per_Dataset": "None", "Issue_Limit_Per_Sheet": null, "Standard": "SDTMIG", "Version": "V3.3", "CT_Version": "sdtmct-2024-09-27", "Define_XML_Version": null}, "Dataset_Details": [{"filename": "LB", "label": null, "path": "/Users/wangb133/Work/submissions-pilot7-synthetic-data/cart-t/data/sdtm", "modification_date": "2026-06-25T01:55:20", "size_kb": 173.12, "length": 950}, {"filename": "AE", "label": "Adverse Events", "path": "/Users/wangb133/Work/submissions-pilot7-synthetic-data/cart-t/data/sdtm", "modification_date": "2026-08-01T00:49:22", "size_kb": 73.92, "length": 327}, {"filename": "CM", "label": null, "path": "/Users/wangb133/Work/submissions-pilot7-synthetic-data/cart-t/data/sdtm", "modification_date": "2026-06-25T01:55:20", "size_kb": 86.0, "length": 259}, {"filename": "DM", "label": null, "path": "/Users/wangb133/Work/submissions-pilot7-synthetic-data/cart-t/data/sdtm", "modification_date": "2026-06-25T01:55:20", "size_kb": 199.68, "length": 810}, {"filename": "QS", "label": null, "path": "/Users/wangb133/Work/submissions-pilot7-synthetic-data/cart-t/data/sdtm", "modification_date": "2026-06-25T01:55:20", "size_kb": 566.8, "length": 3611}, {"filename": "DS", "label": null, "path": "/Users/wangb133/Work/submissions-pilot7-synthetic-data/cart-t/data/sdtm", "modification_date": "2026-06-25T02:09:18", "size_kb": 292.64, "length": 2032}, {"filename": "IE", "label": null, "path": "/Users/wangb133/Work/submissions-pilot7-synthetic-data/cart-t/data/sdtm", "modification_date": "2026-06-25T01:55:20", "size_kb": 5.92, "length": 20}, {"filename": "MH", "label": null, "path": "/Users/wangb133/Work/submissions-pilot7-synthetic-data/cart-t/data/sdtm", "modification_date": "2026-06-25T01:55:20", "size_kb": 181.44, "length": 607}, {"filename": "CE", "label": null, "path": "/Users/wangb133/Work/submissions-pilot7-synthetic-data/cart-t/data/sdtm", "modification_date": "2026-06-25T01:55:20", "size_kb": 2.4, "length": 3}], "Issue_Summary": [{"dataset": "AE", "core_id": "CORE-000022", "message": "At least one of the Seriousness criteria (AESCAN, AESCONG, AESDISAB, AESDTH, AESHOSP, AESLIFE, AESOD or AESMIE)  = 'Y', but AESER = 'N' or empty.", "issues": 1}, {"dataset": "AE", "core_id": "CORE-000264", "message": "Primary analysis used but AEBODSYS and AESOC are not equal", "issues": 327}, {"dataset": "AE", "core_id": "CORE-000266", "message": "If AESER = \"N\" then none of the seriousness criteria (AESCAN, AESCONG, AESDISAB, AESDTH, AESHOSP, AESLIFE, AESOD, AESMIE) could be equal to \"Y\".", "issues": 8}, {"dataset": "AE", "core_id": "CORE-000334", "message": "At least one expected variable is missing from dataset", "issues": 1}, {"dataset": "AE", "core_id": "CORE-000659", "message": "AEENDTC is missing, when AEOUT = RECOVERED/RESOLVED.", "issues": 68}, {"dataset": "AE", "core_id": "CORE-000701", "message": "EPOCH is missing for clinical subject-level observation.", "issues": 327}, {"dataset": "AE", "core_id": "CORE-000717", "message": "AESTDTC falls after the last DSSTDTC.", "issues": 20}, {"dataset": "AE", "core_id": "CORE-000841", "message": "AEENDTC in AE dataset of AE where AEOUT = 'FATAL' is not equal to DTHDTC in the DM dataset.", "issues": 4}, {"dataset": "AE", "core_id": "CORE-000929", "message": "rule evaluation error - evaluation dataset failed to build", "issues": 1}, {"dataset": "AE", "core_id": "CORE-000952", "message": "AEENDTC falls after RFPENDTC.", "issues": 4}, {"dataset": "AE", "core_id": "CORE-001081", "message": "rule evaluation error - evaluation dataset failed to build", "issues": 1}, {"dataset": "CE", "core_id": "CORE-000929", "message": "rule evaluation error - evaluation dataset failed to build", "issues": 1}, {"dataset": "CE", "core_id": "CORE-001081", "message": "rule evaluation error - evaluation dataset failed to build", "issues": 1}, {"dataset": "CM", "core_id": "CORE-000093", "message": "Missing value for CMDOSU, when CMDOSE, CMDOSTXT or CMDOSTOT is provided", "issues": 3}, {"dataset": "CM", "core_id": "CORE-000701", "message": "EPOCH is missing for clinical subject-level observation.", "issues": 259}, {"dataset": "CM", "core_id": "CORE-000852", "message": "Variables are not in the correct order as shown in SDTM for the observation class.", "issues": 1}, {"dataset": "CM", "core_id": "CORE-000929", "message": "rule evaluation error - evaluation dataset failed to build", "issues": 1}, {"dataset": "CM", "core_id": "CORE-000952", "message": "CMENDTC falls after RFPENDTC.", "issues": 3}, {"dataset": "CM", "core_id": "CORE-001081", "message": "rule evaluation error - evaluation dataset failed to build", "issues": 1}, {"dataset": "DM", "core_id": "CORE-000191", "message": "RFENDTC is missing when ARM is provided.", "issues": 280}, {"dataset": "DM", "core_id": "CORE-000253", "message": "AESDTH is 'Y' in AE dataset, but DTHFL in DM dataset is not \"Y\".", "issues": 1}, {"dataset": "DM", "core_id": "CORE-000254", "message": "AEOUT is 'FATAL' in AE dataset, but DTHFL in DM dataset is not \"Y\".", "issues": 1}, {"dataset": "DM", "core_id": "CORE-000705", "message": "DTHFL is \"Y\", but DTHDTC is not populated in the DM dataset.", "issues": 4}, {"dataset": "DM", "core_id": "CORE-000929", "message": "rule evaluation error - evaluation dataset failed to build", "issues": 1}, {"dataset": "DM", "core_id": "CORE-001043", "message": "Age is missing for a non-screen failure subject.", "issues": 13}, {"dataset": "DM", "core_id": "CORE-001081", "message": "rule evaluation error - evaluation dataset failed to build", "issues": 1}, {"dataset": "DS", "core_id": "CORE-000328", "message": "The Study Day of Start of Observation (DSSTDY) is not present in the dataset when Start Date/Time of Observation (DSSTDTC) is present.", "issues": 1}, {"dataset": "DS", "core_id": "CORE-000334", "message": "At least one expected variable is missing from dataset", "issues": 1}, {"dataset": "DS", "core_id": "CORE-000679", "message": "DTHFL in DM dataset is \"Y\" but a record is missing in DS dataset where DSDECOD = \"DEATH\".", "issues": 1}, {"dataset": "DS", "core_id": "CORE-000929", "message": "rule evaluation error - evaluation dataset failed to build", "issues": 1}, {"dataset": "DS", "core_id": "CORE-001081", "message": "rule evaluation error - evaluation dataset failed to build", "issues": 1}, {"dataset": "IE", "core_id": "CORE-000929", "message": "rule evaluation error - evaluation dataset failed to build", "issues": 1}, {"dataset": "IE", "core_id": "CORE-001081", "message": "rule evaluation error - evaluation dataset failed to build", "issues": 1}, {"dataset": "LB", "core_id": "CORE-000334", "message": "At least one expected variable is missing from dataset", "issues": 1}, {"dataset": "LB", "core_id": "CORE-000701", "message": "EPOCH is missing for clinical subject-level observation.", "issues": 950}, {"dataset": "LB", "core_id": "CORE-000720", "message": "LBDTC falls after RFPENDTC.", "issues": 41}, {"dataset": "LB", "core_id": "CORE-000852", "message": "Variables are not in the correct order as shown in SDTM for the observation class.", "issues": 1}, {"dataset": "LB", "core_id": "CORE-000929", "message": "rule evaluation error - evaluation dataset failed to build", "issues": 1}, {"dataset": "LB", "core_id": "CORE-001081", "message": "rule evaluation error - evaluation dataset failed to build", "issues": 1}, {"dataset": "LB", "core_id": "CORE-001082", "message": "Variable data type specified in the dataset does not match the variable data type in the IG or the Model.", "issues": 2}, {"dataset": "MH", "core_id": "CORE-000177", "message": "DM.RFENDTC is empty, but MHENRF is completed.", "issues": 134}, {"dataset": "MH", "core_id": "CORE-000264", "message": "Primary analysis used but MHBODSYS and MHSOC are not equal", "issues": 607}, {"dataset": "MH", "core_id": "CORE-000776", "message": "Study Day of End of Observation (MHENDY) variable is missing when End Date/Time of Observation (MHENDTC) is present.", "issues": 1}, {"dataset": "MH", "core_id": "CORE-000852", "message": "Variables are not in the correct order as shown in SDTM for the observation class.", "issues": 1}, {"dataset": "MH", "core_id": "CORE-000929", "message": "rule evaluation error - evaluation dataset failed to build", "issues": 1}, {"dataset": "MH", "core_id": "CORE-000952", "message": "MHENDTC falls after RFPENDTC.", "issues": 6}, {"dataset": "MH", "core_id": "CORE-001081", "message": "rule evaluation error - evaluation dataset failed to build", "issues": 1}, {"dataset": "QS", "core_id": "CORE-000701", "message": "EPOCH is missing for clinical subject-level observation.", "issues": 3611}, {"dataset": "QS", "core_id": "CORE-000852", "message": "Variables are not in the correct order as shown in SDTM for the observation class.", "issues": 1}, {"dataset": "QS", "core_id": "CORE-000929", "message": "rule evaluation error - evaluation dataset failed to build", "issues": 1}, {"dataset": "QS", "core_id": "CORE-001081", "message": "rule evaluation error - evaluation dataset failed to build", "issues": 1}, {"dataset": "STUDY", "core_id": "CORE-000739", "message": "EX is not present in study when study includes protocol-specified study treatment", "issues": 1}, {"dataset": "STUDY", "core_id": "CORE-000739", "message": "EX is not present in study when study includes protocol-specified study treatment", "issues": 1}, {"dataset": "STUDY", "core_id": "CORE-000739", "message": "EX is not present in study when study includes protocol-specified study treatment", "issues": 1}, {"dataset": "STUDY", "core_id": "CORE-000739", "message": "EX is not present in study when study includes protocol-specified study treatment", "issues": 1}, {"dataset": "STUDY", "core_id": "CORE-000739", "message": "EX is not present in study when study includes protocol-specified study treatment", "issues": 1}, {"dataset": "STUDY", "core_id": "CORE-000739", "message": "EX is not present in study when study includes protocol-specified study treatment", "issues": 1}, {"dataset": "STUDY", "core_id": "CORE-000739", "message": "EX is not present in study when study includes protocol-specified study treatment", "issues": 1}, {"dataset": "STUDY", "core_id": "CORE-000739", "message": "EX is not present in study when study includes protocol-specified study treatment", "issues": 1}, {"dataset": "STUDY", "core_id": "CORE-000739", "message": "EX is not present in study when study includes protocol-specified study treatment", "issues": 1}, {"dataset": "STUDY", "core_id": "CORE-000844", "message": "RACE in DM equals 'MULTIPLE' but multiple races are not collected in SUPPDM.", "issues": 1}], "Issue_Details": [{"core_id": "CORE-000022", "message": "At least one of the Seriousness criteria (AESCAN, AESCONG, AESDISAB, AESDTH, AESHOSP, AESLIFE, AESOD or AESMIE)  = 'Y', but AESER = 'N' or empty.", "executability": "fully executable", "dataset": "AE", "USUBJID": "CART-T-PILOT-01-DF-371", "row": 166, "SEQ": 1, "variables": ["AETERM", "AESTDTC", "AESER", "AESCAN", "AESCONG", "AESDISAB", "AESDTH", "AESHOSP", "AESLIFE", "AESOD", "AESMIE"], "values": ["headache", "2023-01-03", "N", "Not in dataset", "N", "N", "N", "Y", "Y", "Not in dataset", "Y"]}, {"core_id": "CORE-000093", "message": "Missing value for CMDOSU, when CMDOSE, CMDOSTXT or CMDOSTOT is provided", "executability": "fully executable", "dataset": "CM", "USUBJID": "CART-T-PILOT-01-CART2020-017", "row": 7, "SEQ": 1, "variables": ["CMDOSE", "CMDOSTXT", "CMDOSTOT", "CMDOSU"], "values": ["30.0", "Not in dataset", "Not in dataset", "null"]}, {"core_id": "CORE-000093", "message": "Missing value for CMDOSU, when CMDOSE, CMDOSTXT or CMDOSTOT is provided", "executability": "fully executable", "dataset": "CM", "USUBJID": "CART-T-PILOT-01-DF-622", "row": 227, "SEQ": 1, "variables": ["CMDOSE", "CMDOSTXT", "CMDOSTOT", "CMDOSU"], "values": ["500.0", "Not in dataset", "Not in dataset", "null"]}, {"core_id": "CORE-000093", "message": "Missing value for CMDOSU, when CMDOSE, CMDOSTXT or CMDOSTOT is provided", "executability": "fully executable", "dataset": "CM", "USUBJID": "CART-T-PILOT-01-MGH-188", "row": 235, "SEQ": 1, "variables": ["CMDOSE", "CMDOSTXT", "CMDOSTOT", "CMDOSU"], "values": ["100.0", "Not in dataset", "Not in dataset", "null"]}, {"core_id": "CORE-000177", "message": "DM.RFENDTC is empty, but MHENRF is completed.", "executability": "fully executable", "dataset": "MH", "USUBJID": "CART-T-PILOT-01-1234-025", "row": 3, "SEQ": 3, "variables": ["MHENRF"], "values": ["ONGOING"]}, {"core_id": "CORE-000177", "message": "DM.RFENDTC is empty, but MHENRF is completed.", "executability": "fully executable", "dataset": "MH", "USUBJID": "CART-T-PILOT-01-212", "row": 6, "SEQ": 3, "variables": ["MHENRF"], "values": ["ONGOING"]}, {"core_id": "CORE-000177", "message": "DM.RFENDTC is empty, but MHENRF is completed.", "executability": "fully executable", "dataset": "MH", "USUBJID": "CART-T-PILOT-01-221", "row": 7, "SEQ": 1, "variables": ["MHENRF"], "values": ["ONGOING"]}, {"core_id": "CORE-000177", "message": "DM.RFENDTC is empty, but MHENRF is completed.", "executability": "fully executable", "dataset": "MH", "USUBJID": "CART-T-PILOT-01-CART2020-058", "row": 8, "SEQ": 1, "variables": ["MHENRF"], "values": ["ONGOING"]}, {"core_id": "CORE-000177", "message": "DM.RFENDTC is empty, but MHENRF is completed.", "executability": "fully executable", "dataset": "MH", "USUBJID": "CART-T-PILOT-01-CART2020-062", "row": 9, "SEQ": 1, "variables": ["MHENRF"], "values": ["ONGOING"]}, {"core_id": "CORE-000177", "message": "DM.RFENDTC is empty, but MHENRF is completed.", "executability": "fully executable", "dataset": "MH", "USUBJID": "CART-T-PILOT-01-CNH-001", "row": 14, "SEQ": 3, "variables": ["MHENRF"], "values": ["ONGOING"]}, {"core_id": "CORE-000177", "message": "DM.RFENDTC is empty, but MHENRF is completed.", "executability": "fully executable", "dataset": "MH", "USUBJID": "CART-T-PILOT-01-CNH-006", "row": 19, "SEQ": 1, "variables": ["MHENRF"], "values": ["ONGOING"]}, {"core_id": "CORE-000177", "message": "DM.RFENDTC is empty, but MHENRF is completed.", "executability": "fully executable", "dataset": "MH", "USUBJID": "CART-T-PILOT-01-CNH-011", "row": 21, "SEQ": 1, "variables": ["MHENRF"], "values": ["ONGOING"]}, {"core_id": "CORE-000177", "message": "DM.RFENDTC is empty, but MHENRF is completed.", "executability": "fully executable", "dataset": "MH", "USUBJID": "CART-T-PILOT-01-CNH-012", "row": 22, "SEQ": 1, "variables": ["MHENRF"], "values": ["ONGOING"]}, {"core_id": "CORE-000177", "message": "DM.RFENDTC is empty, but MHENRF is completed.", "executability": "fully executable", "dataset": "MH", "USUBJID": "CART-T-PILOT-01-DF-008", "row": 31, "SEQ": 3, "variables": ["MHENRF"], "values": ["ONGOING"]}, {"core_id": "CORE-000177", "message": "DM.RFENDTC is empty, but MHENRF is completed.", "executability": "fully executable", "dataset": "MH", "USUBJID": "CART-T-PILOT-01-DF-008", "row": 32, "SEQ": 4, "variables": ["MHENRF"], "values": ["ONGOING"]}, {"core_id": "CORE-000177", "message": "DM.RFENDTC is empty, but MHENRF is completed.", "executability": "fully executable", "dataset": "MH", "USUBJID": "CART-T-PILOT-01-DF-008", "row": 33, "SEQ": 5, "variables": ["MHENRF"], "values": ["ONGOING"]}, {"core_id": "CORE-000177", "message": "DM.RFENDTC is empty, but MHENRF is completed.", "executability": "fully executable", "dataset": "MH", "USUBJID": "CART-T-PILOT-01-DF-017", "row": 42, "SEQ": 1, "variables": ["MHENRF"], "values": ["ONGOING"]}, {"core_id": "CORE-000177", "message": "DM.RFENDTC is empty, but MHENRF is completed.", "executability": "fully executable", "dataset": "MH", "USUBJID": "CART-T-PILOT-01-DF-030", "row": 53, "SEQ": 3, "variables": ["MHENRF"], "values": ["ONGOING"]}, {"core_id": "CORE-000177", "message": "DM.RFENDTC is empty, but MHENRF is completed.", "executability": "fully executable", "dataset": "MH", "USUBJID": "CART-T-PILOT-01-DF-041", "row": 66, "SEQ": 3, "variables": ["MHENRF"], "values": ["ONGOING"]}, {"core_id": "CORE-000177", "message": "DM.RFENDTC is empty, but MHENRF is completed.", "executability": "fully executable", "dataset": "MH", "USUBJID": "CART-T-PILOT-01-DF-041", "row": 67, "SEQ": 4, "variables": ["MHENRF"], "values": ["ONGOING"]}, {"core_id": "CORE-000177", "message": "DM.RFENDTC is empty, but MHENRF is completed.", "executability": "fully executable", "dataset": "MH", "USUBJID": "CART-T-PILOT-01-DF-041", "row": 68, "SEQ": 5, "variables": ["MHENRF"], "values": ["ONGOING"]}, {"core_id": "CORE-000177", "message": "DM.RFENDTC is empty, but MHENRF is completed.", "executability": "fully executable", "dataset": "MH", "USUBJID": "CART-T-PILOT-01-DF-043", "row": 73, "SEQ": 3, "variables": ["MHENRF"], "values": ["ONGOING"]}, {"core_id": "CORE-000177", "message": "DM.RFENDTC is empty, but MHENRF is completed.", "executability": "fully executable", "dataset": "MH", "USUBJID": "CART-T-PILOT-01-DF-047", "row": 78, "SEQ": 3, "variables": ["MHENRF"], "values": ["ONGOING"]}, {"core_id": "CORE-000177", "message": "DM.RFENDTC is empty, but MHENRF is completed.", "executability": "fully executable", "dataset": "MH", "USUBJID": "CART-T-PILOT-01-DF-085", "row": 106, "SEQ": 1, "variables": ["MHENRF"], "values": ["ONGOING"]}, {"core_id": "CORE-000177", "message": "DM.RFENDTC is empty, but MHENRF is completed.", "executability": "fully executable", "dataset": "MH", "USUBJID": "CART-T-PILOT-01-DF-102", "row": 117, "SEQ": 1, "variables": ["MHENRF"], "values": ["ONGOING"]}, {"core_id": "CORE-000177", "message": "DM.RFENDTC is empty, but MHENRF is completed.", "executability": "fully executable", "dataset": "MH", "USUBJID": "CART-T-PILOT-01-DF-113", "row": 126, "SEQ": 3, "variables": ["MHENRF"], "values": ["ONGOING"]}, {"core_id": "CORE-000177", "message": "DM.RFENDTC is empty, but MHENRF is completed.", "executability": "fully executable", "dataset": "MH", "USUBJID": "CART-T-PILOT-01-DF-143", "row": 147, "SEQ": 3, "variables": ["MHENRF"], "values": ["ONGOING"]}, {"core_id": "CORE-000177", "message": "DM.RFENDTC is empty, but MHENRF is completed.", "executability": "fully executable", "dataset": "MH", "USUBJID": "CART-T-PILOT-01-DF-160", "row": 152, "SEQ": 3, "variables": ["MHENRF"], "values": ["ONGOING"]}, {"core_id": "CORE-000177", "message": "DM.RFENDTC is empty, but MHENRF is completed.", "executability": "fully executable", "dataset": "MH", "USUBJID": "CART-T-PILOT-01-DF-183", "row": 163, "SEQ": 1, "variables": ["MHENRF"], "values": ["ONGOING"]}, {"core_id": "CORE-000177", "message": "DM.RFENDTC is empty, but MHENRF is completed.", "executability": "fully executable", "dataset": "MH", "USUBJID": "CART-T-PILOT-01-DF-284", "row": 198, "SEQ": 3, "variables": ["MHENRF"], "values": ["ONGOING"]}, {"core_id": "CORE-000177", "message": "DM.RFENDTC is empty, but MHENRF is completed.", "executability": "fully executable", "dataset": "MH", "USUBJID": "CART-T-PILOT-01-DF-286", "row": 203, "SEQ": 3, "variables": ["MHENRF"], "values": ["ONGOING"]}, {"core_id": "CORE-000177", "message": "DM.RFENDTC is empty, but MHENRF is completed.", "executability": "fully executable", "dataset": "MH", "USUBJID": "CART-T-PILOT-01-DF-348", "row": 216, "SEQ": 3, "variables": ["MHENRF"], "values": ["ONGOING"]}, {"core_id": "CORE-000177", "message": "DM.RFENDTC is empty, but MHENRF is completed.", "executability": "fully executable", "dataset": "MH", "USUBJID": "CART-T-PILOT-01-DF-355", "row": 219, "SEQ": 3, "variables": ["MHENRF"], "values": ["ONGOING"]}, {"core_id": "CORE-000177", "message": "DM.RFENDTC is empty, but MHENRF is completed.", "executability": "fully executable", "dataset": "MH", "USUBJID": "CART-T-PILOT-01-DF-356", "row": 222, "SEQ": 3, "variables": ["MHENRF"], "values": ["ONGOING"]}, {"core_id": "CORE-000177", "message": "DM.RFENDTC is empty, but MHENRF is completed.", "executability": "fully executable", "dataset": "MH", "USUBJID": "CART-T-PILOT-01-DF-359", "row": 225, "SEQ": 3, "variables": ["MHENRF"], "values": ["ONGOING"]}, {"core_id": "CORE-000177", "message": "DM.RFENDTC is empty, but MHENRF is completed.", "executability": "fully executable", "dataset": "MH", "USUBJID": "CART-T-PILOT-01-DF-361", "row": 230, "SEQ": 3, "variables": ["MHENRF"], "values": ["ONGOING"]}, {"core_id": "CORE-000177", "message": "DM.RFENDTC is empty, but MHENRF is completed.", "executability": "fully executable", "dataset": "MH", "USUBJID": "CART-T-PILOT-01-DF-364", "row": 235, "SEQ": 3, "variables": ["MHENRF"], "values": ["ONGOING"]}, {"core_id": "CORE-000177", "message": "DM.RFENDTC is empty, but MHENRF is completed.", "executability": "fully executable", "dataset": "MH", "USUBJID": "CART-T-PILOT-01-DF-365", "row": 238, "SEQ": 3, "variables": ["MHENRF"], "values": ["ONGOING"]}, {"core_id": "CORE-000177", "message": "DM.RFENDTC is empty, but MHENRF is completed.", "executability": "fully executable", "dataset": "MH", "USUBJID": "CART-T-PILOT-01-DF-368", "row": 241, "SEQ": 3, "variables": ["MHENRF"], "values": ["ONGOING"]}, {"core_id": "CORE-000177", "message": "DM.RFENDTC is empty, but MHENRF is completed.", "executability": "fully executable", "dataset": "MH", "USUBJID": "CART-T-PILOT-01-DF-378", "row": 254, "SEQ": 3, "variables": ["MHENRF"], "values": ["ONGOING"]}, {"core_id": "CORE-000177", "message": "DM.RFENDTC is empty, but MHENRF is completed.", "executability": "fully executable", "dataset": "MH", "USUBJID": "CART-T-PILOT-01-DF-384", "row": 259, "SEQ": 3, "variables": ["MHENRF"], "values": ["ONGOING"]}, {"core_id": "CORE-000177", "message": "DM.RFENDTC is empty, but MHENRF is completed.", "executability": "fully executable", "dataset": "MH", "USUBJID": "CART-T-PILOT-01-DF-387", "row": 262, "SEQ": 3, "variables": ["MHENRF"], "values": ["ONGOING"]}, {"core_id": "CORE-000177", "message": "DM.RFENDTC is empty, but MHENRF is completed.", "executability": "fully executable", "dataset": "MH", "USUBJID": "CART-T-PILOT-01-DF-396", "row": 265, "SEQ": 3, "variables": ["MHENRF"], "values": ["ONGOING"]}, {"core_id": "CORE-000177", "message": "DM.RFENDTC is empty, but MHENRF is completed.", "executability": "fully executable", "dataset": "MH", "USUBJID": "CART-T-PILOT-01-DF-397", "row": 268, "SEQ": 3, "variables": ["MHENRF"], "values": ["ONGOING"]}, {"core_id": "CORE-000177", "message": "DM.RFENDTC is empty, but MHENRF is completed.", "executability": "fully executable", "dataset": "MH", "USUBJID": "CART-T-PILOT-01-DF-431", "row": 271, "SEQ": 3, "variables": ["MHENRF"], "values": ["ONGOING"]}, {"core_id": "CORE-000177", "message": "DM.RFENDTC is empty, but MHENRF is completed.", "executability": "fully executable", "dataset": "MH", "USUBJID": "CART-T-PILOT-01-DF-433", "row": 274, "SEQ": 3, "variables": ["MHENRF"], "values": ["ONGOING"]}, {"core_id": "CORE-000177", "message": "DM.RFENDTC is empty, but MHENRF is completed.", "executability": "fully executable", "dataset": "MH", "USUBJID": "CART-T-PILOT-01-DF-436", "row": 280, "SEQ": 3, "variables": ["MHENRF"], "values": ["ONGOING"]}, {"core_id": "CORE-000177", "message": "DM.RFENDTC is empty, but MHENRF is completed.", "executability": "fully executable", "dataset": "MH", "USUBJID": "CART-T-PILOT-01-DF-438", "row": 282, "SEQ": 1, "variables": ["MHENRF"], "values": ["ONGOING"]}, {"core_id": "CORE-000177", "message": "DM.RFENDTC is empty, but MHENRF is completed.", "executability": "fully executable", "dataset": "MH", "USUBJID": "CART-T-PILOT-01-DF-447", "row": 285, "SEQ": 3, "variables": ["MHENRF"], "values": ["ONGOING"]}, {"core_id": "CORE-000177", "message": "DM.RFENDTC is empty, but MHENRF is completed.", "executability": "fully executable", "dataset": "MH", "USUBJID": "CART-T-PILOT-01-DF-454", "row": 288, "SEQ": 3, "variables": ["MHENRF"], "values": ["ONGOING"]}, {"core_id": "CORE-000177", "message": "DM.RFENDTC is empty, but MHENRF is completed.", "executability": "fully executable", "dataset": "MH", "USUBJID": "CART-T-PILOT-01-DF-460", "row": 294, "SEQ": 3, "variables": ["MHENRF"], "values": ["ONGOING"]}, {"core_id": "CORE-000177", "message": "DM.RFENDTC is empty, but MHENRF is completed.", "executability": "fully executable", "dataset": "MH", "USUBJID": "CART-T-PILOT-01-DF-461", "row": 297, "SEQ": 3, "variables": ["MHENRF"], "values": ["ONGOING"]}, {"core_id": "CORE-000177", "message": "DM.RFENDTC is empty, but MHENRF is completed.", "executability": "fully executable", "dataset": "MH", "USUBJID": "CART-T-PILOT-01-DF-462", "row": 300, "SEQ": 3, "variables": ["MHENRF"], "values": ["ONGOING"]}, {"core_id": "CORE-000177", "message": "DM.RFENDTC is empty, but MHENRF is completed.", "executability": "fully executable", "dataset": "MH", "USUBJID": "CART-T-PILOT-01-DF-463", "row": 301, "SEQ": 1, "variables": ["MHENRF"], "values": ["ONGOING"]}, {"core_id": "CORE-000177", "message": "DM.RFENDTC is empty, but MHENRF is completed.", "executability": "fully executable", "dataset": "MH", "USUBJID": "CART-T-PILOT-01-DF-466", "row": 302, "SEQ": 1, "variables": ["MHENRF"], "values": ["ONGOING"]}, {"core_id": "CORE-000177", "message": "DM.RFENDTC is empty, but MHENRF is completed.", "executability": "fully executable", "dataset": "MH", "USUBJID": "CART-T-PILOT-01-DF-470", "row": 308, "SEQ": 3, "variables": ["MHENRF"], "values": ["ONGOING"]}, {"core_id": "CORE-000177", "message": "DM.RFENDTC is empty, but MHENRF is completed.", "executability": "fully executable", "dataset": "MH", "USUBJID": "CART-T-PILOT-01-DF-471", "row": 309, "SEQ": 1, "variables": ["MHENRF"], "values": ["ONGOING"]}, {"core_id": "CORE-000177", "message": "DM.RFENDTC is empty, but MHENRF is completed.", "executability": "fully executable", "dataset": "MH", "USUBJID": "CART-T-PILOT-01-DF-471", "row": 310, "SEQ": 2, "variables": ["MHENRF"], "values": ["ONGOING"]}, {"core_id": "CORE-000177", "message": "DM.RFENDTC is empty, but MHENRF is completed.", "executability": "fully executable", "dataset": "MH", "USUBJID": "CART-T-PILOT-01-DF-487", "row": 316, "SEQ": 3, "variables": ["MHENRF"], "values": ["ONGOING"]}, {"core_id": "CORE-000177", "message": "DM.RFENDTC is empty, but MHENRF is completed.", "executability": "fully executable", "dataset": "MH", "USUBJID": "CART-T-PILOT-01-DF-495", "row": 319, "SEQ": 3, "variables": ["MHENRF"], "values": ["ONGOING"]}, {"core_id": "CORE-000177", "message": "DM.RFENDTC is empty, but MHENRF is completed.", "executability": "fully executable", "dataset": "MH", "USUBJID": "CART-T-PILOT-01-DF-501", "row": 322, "SEQ": 3, "variables": ["MHENRF"], "values": ["ONGOING"]}, {"core_id": "CORE-000177", "message": "DM.RFENDTC is empty, but MHENRF is completed.", "executability": "fully executable", "dataset": "MH", "USUBJID": "CART-T-PILOT-01-DF-508", "row": 328, "SEQ": 3, "variables": ["MHENRF"], "values": ["ONGOING"]}, {"core_id": "CORE-000177", "message": "DM.RFENDTC is empty, but MHENRF is completed.", "executability": "fully executable", "dataset": "MH", "USUBJID": "CART-T-PILOT-01-DF-509", "row": 331, "SEQ": 3, "variables": ["MHENRF"], "values": ["ONGOING"]}, {"core_id": "CORE-000177", "message": "DM.RFENDTC is empty, but MHENRF is completed.", "executability": "fully executable", "dataset": "MH", "USUBJID": "CART-T-PILOT-01-DF-522", "row": 339, "SEQ": 3, "variables": ["MHENRF"], "values": ["ONGOING"]}, {"core_id": "CORE-000177", "message": "DM.RFENDTC is empty, but MHENRF is completed.", "executability": "fully executable", "dataset": "MH", "USUBJID": "CART-T-PILOT-01-DF-530", "row": 342, "SEQ": 3, "variables": ["MHENRF"], "values": ["ONGOING"]}, {"core_id": "CORE-000177", "message": "DM.RFENDTC is empty, but MHENRF is completed.", "executability": "fully executable", "dataset": "MH", "USUBJID": "CART-T-PILOT-01-DF-536", "row": 345, "SEQ": 3, "variables": ["MHENRF"], "values": ["ONGOING"]}, {"core_id": "CORE-000177", "message": "DM.RFENDTC is empty, but MHENRF is completed.", "executability": "fully executable", "dataset": "MH", "USUBJID": "CART-T-PILOT-01-DF-539", "row": 348, "SEQ": 3, "variables": ["MHENRF"], "values": ["ONGOING"]}, {"core_id": "CORE-000177", "message": "DM.RFENDTC is empty, but MHENRF is completed.", "executability": "fully executable", "dataset": "MH", "USUBJID": "CART-T-PILOT-01-DF-541", "row": 351, "SEQ": 3, "variables": ["MHENRF"], "values": ["ONGOING"]}, {"core_id": "CORE-000177", "message": "DM.RFENDTC is empty, but MHENRF is completed.", "executability": "fully executable", "dataset": "MH", "USUBJID": "CART-T-PILOT-01-DF-542", "row": 354, "SEQ": 3, "variables": ["MHENRF"], "values": ["ONGOING"]}, {"core_id": "CORE-000177", "message": "DM.RFENDTC is empty, but MHENRF is completed.", "executability": "fully executable", "dataset": "MH", "USUBJID": "CART-T-PILOT-01-DF-543", "row": 355, "SEQ": 1, "variables": ["MHENRF"], "values": ["ONGOING"]}, {"core_id": "CORE-000177", "message": "DM.RFENDTC is empty, but MHENRF is completed.", "executability": "fully executable", "dataset": "MH", "USUBJID": "CART-T-PILOT-01-DF-549", "row": 358, "SEQ": 3, "variables": ["MHENRF"], "values": ["ONGOING"]}, {"core_id": "CORE-000177", "message": "DM.RFENDTC is empty, but MHENRF is completed.", "executability": "fully executable", "dataset": "MH", "USUBJID": "CART-T-PILOT-01-DF-551", "row": 361, "SEQ": 3, "variables": ["MHENRF"], "values": ["ONGOING"]}, {"core_id": "CORE-000177", "message": "DM.RFENDTC is empty, but MHENRF is completed.", "executability": "fully executable", "dataset": "MH", "USUBJID": "CART-T-PILOT-01-DF-552", "row": 364, "SEQ": 3, "variables": ["MHENRF"], "values": ["ONGOING"]}, {"core_id": "CORE-000177", "message": "DM.RFENDTC is empty, but MHENRF is completed.", "executability": "fully executable", "dataset": "MH", "USUBJID": "CART-T-PILOT-01-DF-553", "row": 367, "SEQ": 3, "variables": ["MHENRF"], "values": ["ONGOING"]}, {"core_id": "CORE-000177", "message": "DM.RFENDTC is empty, but MHENRF is completed.", "executability": "fully executable", "dataset": "MH", "USUBJID": "CART-T-PILOT-01-DF-555", "row": 370, "SEQ": 3, "variables": ["MHENRF"], "values": ["ONGOING"]}, {"core_id": "CORE-000177", "message": "DM.RFENDTC is empty, but MHENRF is completed.", "executability": "fully executable", "dataset": "MH", "USUBJID": "CART-T-PILOT-01-DF-562", "row": 373, "SEQ": 3, "variables": ["MHENRF"], "values": ["ONGOING"]}, {"core_id": "CORE-000177", "message": "DM.RFENDTC is empty, but MHENRF is completed.", "executability": "fully executable", "dataset": "MH", "USUBJID": "CART-T-PILOT-01-DF-564", "row": 376, "SEQ": 3, "variables": ["MHENRF"], "values": ["ONGOING"]}, {"core_id": "CORE-000177", "message": "DM.RFENDTC is empty, but MHENRF is completed.", "executability": "fully executable", "dataset": "MH", "USUBJID": "CART-T-PILOT-01-DF-580", "row": 382, "SEQ": 3, "variables": ["MHENRF"], "values": ["ONGOING"]}, {"core_id": "CORE-000177", "message": "DM.RFENDTC is empty, but MHENRF is completed.", "executability": "fully executable", "dataset": "MH", "USUBJID": "CART-T-PILOT-01-DF-587", "row": 385, "SEQ": 3, "variables": ["MHENRF"], "values": ["ONGOING"]}, {"core_id": "CORE-000177", "message": "DM.RFENDTC is empty, but MHENRF is completed.", "executability": "fully executable", "dataset": "MH", "USUBJID": "CART-T-PILOT-01-DF-590", "row": 388, "SEQ": 3, "variables": ["MHENRF"], "values": ["ONGOING"]}, {"core_id": "CORE-000177", "message": "DM.RFENDTC is empty, but MHENRF is completed.", "executability": "fully executable", "dataset": "MH", "USUBJID": "CART-T-PILOT-01-DF-592", "row": 391, "SEQ": 3, "variables": ["MHENRF"], "values": ["ONGOING"]}, {"core_id": "CORE-000177", "message": "DM.RFENDTC is empty, but MHENRF is completed.", "executability": "fully executable", "dataset": "MH", "USUBJID": "CART-T-PILOT-01-DF-601", "row": 400, "SEQ": 3, "variables": ["MHENRF"], "values": ["ONGOING"]}, {"core_id": "CORE-000177", "message": "DM.RFENDTC is empty, but MHENRF is completed.", "executability": "fully executable", "dataset": "MH", "USUBJID": "CART-T-PILOT-01-DF-603", "row": 403, "SEQ": 3, "variables": ["MHENRF"], "values": ["ONGOING"]}, {"core_id": "CORE-000177", "message": "DM.RFENDTC is empty, but MHENRF is completed.", "executability": "fully executable", "dataset": "MH", "USUBJID": "CART-T-PILOT-01-DF-603", "row": 404, "SEQ": 4, "variables": ["MHENRF"], "values": ["ONGOING"]}, {"core_id": "CORE-000177", "message": "DM.RFENDTC is empty, but MHENRF is completed.", "executability": "fully executable", "dataset": "MH", "USUBJID": "CART-T-PILOT-01-DF-605", "row": 407, "SEQ": 3, "variables": ["MHENRF"], "values": ["ONGOING"]}, {"core_id": "CORE-000177", "message": "DM.RFENDTC is empty, but MHENRF is completed.", "executability": "fully executable", "dataset": "MH", "USUBJID": "CART-T-PILOT-01-DF-609", "row": 410, "SEQ": 3, "variables": ["MHENRF"], "values": ["ONGOING"]}, {"core_id": "CORE-000177", "message": "DM.RFENDTC is empty, but MHENRF is completed.", "executability": "fully executable", "dataset": "MH", "USUBJID": "CART-T-PILOT-01-DF-612", "row": 413, "SEQ": 3, "variables": ["MHENRF"], "values": ["ONGOING"]}, {"core_id": "CORE-000177", "message": "DM.RFENDTC is empty, but MHENRF is completed.", "executability": "fully executable", "dataset": "MH", "USUBJID": "CART-T-PILOT-01-DF-620", "row": 419, "SEQ": 3, "variables": ["MHENRF"], "values": ["ONGOING"]}, {"core_id": "CORE-000177", "message": "DM.RFENDTC is empty, but MHENRF is completed.", "executability": "fully executable", "dataset": "MH", "USUBJID": "CART-T-PILOT-01-DF-621", "row": 421, "SEQ": 2, "variables": ["MHENRF"], "values": ["ONGOING"]}, {"core_id": "CORE-000177", "message": "DM.RFENDTC is empty, but MHENRF is completed.", "executability": "fully executable", "dataset": "MH", "USUBJID": "CART-T-PILOT-01-DF-623", "row": 424, "SEQ": 3, "variables": ["MHENRF"], "values": ["ONGOING"]}, {"core_id": "CORE-000177", "message": "DM.RFENDTC is empty, but MHENRF is completed.", "executability": "fully executable", "dataset": "MH", "USUBJID": "CART-T-PILOT-01-DF-625", "row": 427, "SEQ": 3, "variables": ["MHENRF"], "values": ["ONGOING"]}, {"core_id": "CORE-000177", "message": "DM.RFENDTC is empty, but MHENRF is completed.", "executability": "fully executable", "dataset": "MH", "USUBJID": "CART-T-PILOT-01-MGH-129", "row": 437, "SEQ": 3, "variables": ["MHENRF"], "values": ["ONGOING"]}, {"core_id": "CORE-000177", "message": "DM.RFENDTC is empty, but MHENRF is completed.", "executability": "fully executable", "dataset": "MH", "USUBJID": "CART-T-PILOT-01-MGH-134", "row": 440, "SEQ": 3, "variables": ["MHENRF"], "values": ["ONGOING"]}, {"core_id": "CORE-000177", "message": "DM.RFENDTC is empty, but MHENRF is completed.", "executability": "fully executable", "dataset": "MH", "USUBJID": "CART-T-PILOT-01-MGH-141", "row": 443, "SEQ": 3, "variables": ["MHENRF"], "values": ["ONGOING"]}, {"core_id": "CORE-000177", "message": "DM.RFENDTC is empty, but MHENRF is completed.", "executability": "fully executable", "dataset": "MH", "USUBJID": "CART-T-PILOT-01-MGH-143", "row": 446, "SEQ": 3, "variables": ["MHENRF"], "values": ["ONGOING"]}, {"core_id": "CORE-000177", "message": "DM.RFENDTC is empty, but MHENRF is completed.", "executability": "fully executable", "dataset": "MH", "USUBJID": "CART-T-PILOT-01-MGH-187", "row": 453, "SEQ": 3, "variables": ["MHENRF"], "values": ["ONGOING"]}, {"core_id": "CORE-000177", "message": "DM.RFENDTC is empty, but MHENRF is completed.", "executability": "fully executable", "dataset": "MH", "USUBJID": "CART-T-PILOT-01-MGH-190", "row": 455, "SEQ": 1, "variables": ["MHENRF"], "values": ["ONGOING"]}, {"core_id": "CORE-000177", "message": "DM.RFENDTC is empty, but MHENRF is completed.", "executability": "fully executable", "dataset": "MH", "USUBJID": "CART-T-PILOT-01-MGH-192", "row": 456, "SEQ": 1, "variables": ["MHENRF"], "values": ["ONGOING"]}, {"core_id": "CORE-000177", "message": "DM.RFENDTC is empty, but MHENRF is completed.", "executability": "fully executable", "dataset": "MH", "USUBJID": "CART-T-PILOT-01-MGH-193", "row": 459, "SEQ": 3, "variables": ["MHENRF"], "values": ["ONGOING"]}, {"core_id": "CORE-000177", "message": "DM.RFENDTC is empty, but MHENRF is completed.", "executability": "fully executable", "dataset": "MH", "USUBJID": "CART-T-PILOT-01-MGH-217", "row": 467, "SEQ": 1, "variables": ["MHENRF"], "values": ["ONGOING"]}, {"core_id": "CORE-000177", "message": "DM.RFENDTC is empty, but MHENRF is completed.", "executability": "fully executable", "dataset": "MH", "USUBJID": "CART-T-PILOT-01-MGH-220", "row": 474, "SEQ": 3, "variables": ["MHENRF"], "values": ["ONGOING"]}, {"core_id": "CORE-000177", "message": "DM.RFENDTC is empty, but MHENRF is completed.", "executability": "fully executable", "dataset": "MH", "USUBJID": "CART-T-PILOT-01-MGH-222", "row": 477, "SEQ": 3, "variables": ["MHENRF"], "values": ["ONGOING"]}, {"core_id": "CORE-000177", "message": "DM.RFENDTC is empty, but MHENRF is completed.", "executability": "fully executable", "dataset": "MH", "USUBJID": "CART-T-PILOT-01-MGH-224", "row": 483, "SEQ": 3, "variables": ["MHENRF"], "values": ["ONGOING"]}, {"core_id": "CORE-000177", "message": "DM.RFENDTC is empty, but MHENRF is completed.", "executability": "fully executable", "dataset": "MH", "USUBJID": "CART-T-PILOT-01-MGH-236", "row": 486, "SEQ": 3, "variables": ["MHENRF"], "values": ["ONGOING"]}, {"core_id": "CORE-000177", "message": "DM.RFENDTC is empty, but MHENRF is completed.", "executability": "fully executable", "dataset": "MH", "USUBJID": "CART-T-PILOT-01-MGH-257", "row": 500, "SEQ": 1, "variables": ["MHENRF"], "values": ["ONGOING"]}, {"core_id": "CORE-000177", "message": "DM.RFENDTC is empty, but MHENRF is completed.", "executability": "fully executable", "dataset": "MH", "USUBJID": "CART-T-PILOT-01-MGH-258", "row": 501, "SEQ": 1, "variables": ["MHENRF"], "values": ["ONGOING"]}, {"core_id": "CORE-000177", "message": "DM.RFENDTC is empty, but MHENRF is completed.", "executability": "fully executable", "dataset": "MH", "USUBJID": "CART-T-PILOT-01-MGH-259", "row": 504, "SEQ": 3, "variables": ["MHENRF"], "values": ["ONGOING"]}, {"core_id": "CORE-000177", "message": "DM.RFENDTC is empty, but MHENRF is completed.", "executability": "fully executable", "dataset": "MH", "USUBJID": "CART-T-PILOT-01-MGH-261", "row": 507, "SEQ": 3, "variables": ["MHENRF"], "values": ["ONGOING"]}, {"core_id": "CORE-000177", "message": "DM.RFENDTC is empty, but MHENRF is completed.", "executability": "fully executable", "dataset": "MH", "USUBJID": "CART-T-PILOT-01-MGH-262", "row": 510, "SEQ": 3, "variables": ["MHENRF"], "values": ["ONGOING"]}, {"core_id": "CORE-000177", "message": "DM.RFENDTC is empty, but MHENRF is completed.", "executability": "fully executable", "dataset": "MH", "USUBJID": "CART-T-PILOT-01-MGH-264", "row": 513, "SEQ": 3, "variables": ["MHENRF"], "values": ["ONGOING"]}, {"core_id": "CORE-000177", "message": "DM.RFENDTC is empty, but MHENRF is completed.", "executability": "fully executable", "dataset": "MH", "USUBJID": "CART-T-PILOT-01-MGH-268", "row": 516, "SEQ": 3, "variables": ["MHENRF"], "values": ["ONGOING"]}, {"core_id": "CORE-000177", "message": "DM.RFENDTC is empty, but MHENRF is completed.", "executability": "fully executable", "dataset": "MH", "USUBJID": "CART-T-PILOT-01-MGH-269", "row": 519, "SEQ": 3, "variables": ["MHENRF"], "values": ["ONGOING"]}, {"core_id": "CORE-000177", "message": "DM.RFENDTC is empty, but MHENRF is completed.", "executability": "fully executable", "dataset": "MH", "USUBJID": "CART-T-PILOT-01-MGH-270", "row": 522, "SEQ": 3, "variables": ["MHENRF"], "values": ["ONGOING"]}, {"core_id": "CORE-000177", "message": "DM.RFENDTC is empty, but MHENRF is completed.", "executability": "fully executable", "dataset": "MH", "USUBJID": "CART-T-PILOT-01-MGH-277", "row": 525, "SEQ": 3, "variables": ["MHENRF"], "values": ["ONGOING"]}, {"core_id": "CORE-000177", "message": "DM.RFENDTC is empty, but MHENRF is completed.", "executability": "fully executable", "dataset": "MH", "USUBJID": "CART-T-PILOT-01-MGH-283", "row": 529, "SEQ": 3, "variables": ["MHENRF"], "values": ["ONGOING"]}, {"core_id": "CORE-000177", "message": "DM.RFENDTC is empty, but MHENRF is completed.", "executability": "fully executable", "dataset": "MH", "USUBJID": "CART-T-PILOT-01-MGH-284", "row": 532, "SEQ": 3, "variables": ["MHENRF"], "values": ["ONGOING"]}, {"core_id": "CORE-000177", "message": "DM.RFENDTC is empty, but MHENRF is completed.", "executability": "fully executable", "dataset": "MH", "USUBJID": "CART-T-PILOT-01-MGH-286", "row": 538, "SEQ": 3, "variables": ["MHENRF"], "values": ["ONGOING"]}, {"core_id": "CORE-000177", "message": "DM.RFENDTC is empty, but MHENRF is completed.", "executability": "fully executable", "dataset": "MH", "USUBJID": "CART-T-PILOT-01-MGH-287", "row": 539, "SEQ": 1, "variables": ["MHENRF"], "values": ["ONGOING"]}, {"core_id": "CORE-000177", "message": "DM.RFENDTC is empty, but MHENRF is completed.", "executability": "fully executable", "dataset": "MH", "USUBJID": "CART-T-PILOT-01-MGH-288", "row": 542, "SEQ": 3, "variables": ["MHENRF"], "values": ["ONGOING"]}, {"core_id": "CORE-000177", "message": "DM.RFENDTC is empty, but MHENRF is completed.", "executability": "fully executable", "dataset": "MH", "USUBJID": "CART-T-PILOT-01-MGH-290", "row": 545, "SEQ": 3, "variables": ["MHENRF"], "values": ["ONGOING"]}, {"core_id": "CORE-000177", "message": "DM.RFENDTC is empty, but MHENRF is completed.", "executability": "fully executable", "dataset": "MH", "USUBJID": "CART-T-PILOT-01-MGH-295", "row": 554, "SEQ": 3, "variables": ["MHENRF"], "values": ["ONGOING"]}, {"core_id": "CORE-000177", "message": "DM.RFENDTC is empty, but MHENRF is completed.", "executability": "fully executable", "dataset": "MH", "USUBJID": "CART-T-PILOT-01-MGH-297", "row": 557, "SEQ": 3, "variables": ["MHENRF"], "values": ["ONGOING"]}, {"core_id": "CORE-000177", "message": "DM.RFENDTC is empty, but MHENRF is completed.", "executability": "fully executable", "dataset": "MH", "USUBJID": "CART-T-PILOT-01-MGH-301", "row": 569, "SEQ": 3, "variables": ["MHENRF"], "values": ["ONGOING"]}, {"core_id": "CORE-000177", "message": "DM.RFENDTC is empty, but MHENRF is completed.", "executability": "fully executable", "dataset": "MH", "USUBJID": "CART-T-PILOT-01-MGH-302", "row": 572, "SEQ": 3, "variables": ["MHENRF"], "values": ["ONGOING"]}, {"core_id": "CORE-000177", "message": "DM.RFENDTC is empty, but MHENRF is completed.", "executability": "fully executable", "dataset": "MH", "USUBJID": "CART-T-PILOT-01-MGH-306", "row": 578, "SEQ": 3, "variables": ["MHENRF"], "values": ["ONGOING"]}, {"core_id": "CORE-000177", "message": "DM.RFENDTC is empty, but MHENRF is completed.", "executability": "fully executable", "dataset": "MH", "USUBJID": "CART-T-PILOT-01-MGH-307", "row": 581, "SEQ": 3, "variables": ["MHENRF"], "values": ["ONGOING"]}, {"core_id": "CORE-000177", "message": "DM.RFENDTC is empty, but MHENRF is completed.", "executability": "fully executable", "dataset": "MH", "USUBJID": "CART-T-PILOT-01-MGH-314", "row": 587, "SEQ": 3, "variables": ["MHENRF"], "values": ["ONGOING"]}, {"core_id": "CORE-000177", "message": "DM.RFENDTC is empty, but MHENRF is completed.", "executability": "fully executable", "dataset": "MH", "USUBJID": "CART-T-PILOT-01-MGH-315", "row": 590, "SEQ": 3, "variables": ["MHENRF"], "values": ["ONGOING"]}, {"core_id": "CORE-000177", "message": "DM.RFENDTC is empty, but MHENRF is completed.", "executability": "fully executable", "dataset": "MH", "USUBJID": "CART-T-PILOT-01-ZZ01-010", "row": 595, "SEQ": 1, "variables": ["MHENRF"], "values": ["ONGOING"]}, {"core_id": "CORE-000177", "message": "DM.RFENDTC is empty, but MHENRF is completed.", "executability": "fully executable", "dataset": "MH", "USUBJID": "CART-T-PILOT-01-ZZ01-011", "row": 596, "SEQ": 1, "variables": ["MHENRF"], "values": ["ONGOING"]}, {"core_id": "CORE-000177", "message": "DM.RFENDTC is empty, but MHENRF is completed.", "executability": "fully executable", "dataset": "MH", "USUBJID": "CART-T-PILOT-01-ZZ01-012", "row": 597, "SEQ": 1, "variables": ["MHENRF"], "values": ["ONGOING"]}, {"core_id": "CORE-000177", "message": "DM.RFENDTC is empty, but MHENRF is completed.", "executability": "fully executable", "dataset": "MH", "USUBJID": "CART-T-PILOT-01-ZZ01-014", "row": 598, "SEQ": 1, "variables": ["MHENRF"], "values": ["ONGOING"]}, {"core_id": "CORE-000177", "message": "DM.RFENDTC is empty, but MHENRF is completed.", "executability": "fully executable", "dataset": "MH", "USUBJID": "CART-T-PILOT-01-ZZ01-015", "row": 599, "SEQ": 1, "variables": ["MHENRF"], "values": ["ONGOING"]}, {"core_id": "CORE-000177", "message": "DM.RFENDTC is empty, but MHENRF is completed.", "executability": "fully executable", "dataset": "MH", "USUBJID": "CART-T-PILOT-01-ZZ01-016", "row": 600, "SEQ": 1, "variables": ["MHENRF"], "values": ["ONGOING"]}, {"core_id": "CORE-000177", "message": "DM.RFENDTC is empty, but MHENRF is completed.", "executability": "fully executable", "dataset": "MH", "USUBJID": "CART-T-PILOT-01-ZZ01-017", "row": 601, "SEQ": 1, "variables": ["MHENRF"], "values": ["ONGOING"]}, {"core_id": "CORE-000177", "message": "DM.RFENDTC is empty, but MHENRF is completed.", "executability": "fully executable", "dataset": "MH", "USUBJID": "CART-T-PILOT-01-ZZ01-018", "row": 602, "SEQ": 1, "variables": ["MHENRF"], "values": ["ONGOING"]}, {"core_id": "CORE-000177", "message": "DM.RFENDTC is empty, but MHENRF is completed.", "executability": "fully executable", "dataset": "MH", "USUBJID": "CART-T-PILOT-01-ZZ01-019", "row": 603, "SEQ": 1, "variables": ["MHENRF"], "values": ["ONGOING"]}, {"core_id": "CORE-000177", "message": "DM.RFENDTC is empty, but MHENRF is completed.", "executability": "fully executable", "dataset": "MH", "USUBJID": "CART-T-PILOT-01-ZZ01-020", "row": 604, "SEQ": 1, "variables": ["MHENRF"], "values": ["ONGOING"]}, {"core_id": "CORE-000191", "message": "RFENDTC is missing when ARM is provided.", "executability": "fully executable", "dataset": "DM", "USUBJID": "CART-T-PILOT-01-1234-002", "row": 3, "SEQ": "", "variables": ["ARM", "RFENDTC"], "values": ["Study Treatment", "null"]}, {"core_id": "CORE-000191", "message": "RFENDTC is missing when ARM is provided.", "executability": "fully executable", "dataset": "DM", "USUBJID": "CART-T-PILOT-01-1234-004", "row": 5, "SEQ": "", "variables": ["ARM", "RFENDTC"], "values": ["Study Treatment", "null"]}, {"core_id": "CORE-000191", "message": "RFENDTC is missing when ARM is provided.", "executability": "fully executable", "dataset": "DM", "USUBJID": "CART-T-PILOT-01-1234-022", "row": 20, "SEQ": "", "variables": ["ARM", "RFENDTC"], "values": ["Study Treatment", "null"]}, {"core_id": "CORE-000191", "message": "RFENDTC is missing when ARM is provided.", "executability": "fully executable", "dataset": "DM", "USUBJID": "CART-T-PILOT-01-1234-025", "row": 22, "SEQ": "", "variables": ["ARM", "RFENDTC"], "values": ["Study Treatment", "null"]}, {"core_id": "CORE-000191", "message": "RFENDTC is missing when ARM is provided.", "executability": "fully executable", "dataset": "DM", "USUBJID": "CART-T-PILOT-01-2020-482472-12-001", "row": 23, "SEQ": "", "variables": ["ARM", "RFENDTC"], "values": ["Study Treatment", "null"]}, {"core_id": "CORE-000191", "message": "RFENDTC is missing when ARM is provided.", "executability": "fully executable", "dataset": "DM", "USUBJID": "CART-T-PILOT-01-215", "row": 27, "SEQ": "", "variables": ["ARM", "RFENDTC"], "values": ["Study Treatment", "null"]}, {"core_id": "CORE-000191", "message": "RFENDTC is missing when ARM is provided.", "executability": "fully executable", "dataset": "DM", "USUBJID": "CART-T-PILOT-01-241", "row": 40, "SEQ": "", "variables": ["ARM", "RFENDTC"], "values": ["Study Treatment", "null"]}, {"core_id": "CORE-000191", "message": "RFENDTC is missing when ARM is provided.", "executability": "fully executable", "dataset": "DM", "USUBJID": "CART-T-PILOT-01-Abbott-017", "row": 53, "SEQ": "", "variables": ["ARM", "RFENDTC"], "values": ["Study Treatment", "null"]}, {"core_id": "CORE-000191", "message": "RFENDTC is missing when ARM is provided.", "executability": "fully executable", "dataset": "DM", "USUBJID": "CART-T-PILOT-01-CART2020-005", "row": 59, "SEQ": "", "variables": ["ARM", "RFENDTC"], "values": ["Study Treatment", "null"]}, {"core_id": "CORE-000191", "message": "RFENDTC is missing when ARM is provided.", "executability": "fully executable", "dataset": "DM", "USUBJID": "CART-T-PILOT-01-CART2020-006", "row": 60, "SEQ": "", "variables": ["ARM", "RFENDTC"], "values": ["Study Treatment", "null"]}, {"core_id": "CORE-000191", "message": "RFENDTC is missing when ARM is provided.", "executability": "fully executable", "dataset": "DM", "USUBJID": "CART-T-PILOT-01-CART2020-059", "row": 81, "SEQ": "", "variables": ["ARM", "RFENDTC"], "values": ["Study Treatment", "null"]}, {"core_id": "CORE-000191", "message": "RFENDTC is missing when ARM is provided.", "executability": "fully executable", "dataset": "DM", "USUBJID": "CART-T-PILOT-01-CNH-001", "row": 103, "SEQ": "", "variables": ["ARM", "RFENDTC"], "values": ["Study Treatment", "null"]}, {"core_id": "CORE-000191", "message": "RFENDTC is missing when ARM is provided.", "executability": "fully executable", "dataset": "DM", "USUBJID": "CART-T-PILOT-01-CNH-004", "row": 106, "SEQ": "", "variables": ["ARM", "RFENDTC"], "values": ["Study Treatment", "null"]}, {"core_id": "CORE-000191", "message": "RFENDTC is missing when ARM is provided.", "executability": "fully executable", "dataset": "DM", "USUBJID": "CART-T-PILOT-01-CNH-016", "row": 117, "SEQ": "", "variables": ["ARM", "RFENDTC"], "values": ["Study Treatment", "null"]}, {"core_id": "CORE-000191", "message": "RFENDTC is missing when ARM is provided.", "executability": "fully executable", "dataset": "DM", "USUBJID": "CART-T-PILOT-01-DF-001", "row": 118, "SEQ": "", "variables": ["ARM", "RFENDTC"], "values": ["Study Treatment", "null"]}, {"core_id": "CORE-000191", "message": "RFENDTC is missing when ARM is provided.", "executability": "fully executable", "dataset": "DM", "USUBJID": "CART-T-PILOT-01-DF-002", "row": 119, "SEQ": "", "variables": ["ARM", "RFENDTC"], "values": ["Study Treatment", "null"]}, {"core_id": "CORE-000191", "message": "RFENDTC is missing when ARM is provided.", "executability": "fully executable", "dataset": "DM", "USUBJID": "CART-T-PILOT-01-DF-003", "row": 120, "SEQ": "", "variables": ["ARM", "RFENDTC"], "values": ["Study Treatment", "null"]}, {"core_id": "CORE-000191", "message": "RFENDTC is missing when ARM is provided.", "executability": "fully executable", "dataset": "DM", "USUBJID": "CART-T-PILOT-01-DF-004", "row": 121, "SEQ": "", "variables": ["ARM", "RFENDTC"], "values": ["Study Treatment", "null"]}, {"core_id": "CORE-000191", "message": "RFENDTC is missing when ARM is provided.", "executability": "fully executable", "dataset": "DM", "USUBJID": "CART-T-PILOT-01-DF-006", "row": 123, "SEQ": "", "variables": ["ARM", "RFENDTC"], "values": ["Study Treatment", "null"]}, {"core_id": "CORE-000191", "message": "RFENDTC is missing when ARM is provided.", "executability": "fully executable", "dataset": "DM", "USUBJID": "CART-T-PILOT-01-DF-008", "row": 125, "SEQ": "", "variables": ["ARM", "RFENDTC"], "values": ["Study Treatment", "null"]}, {"core_id": "CORE-000191", "message": "RFENDTC is missing when ARM is provided.", "executability": "fully executable", "dataset": "DM", "USUBJID": "CART-T-PILOT-01-DF-009", "row": 126, "SEQ": "", "variables": ["ARM", "RFENDTC"], "values": ["Study Treatment", "null"]}, {"core_id": "CORE-000191", "message": "RFENDTC is missing when ARM is provided.", "executability": "fully executable", "dataset": "DM", "USUBJID": "CART-T-PILOT-01-DF-010", "row": 127, "SEQ": "", "variables": ["ARM", "RFENDTC"], "values": ["Study Treatment", "null"]}, {"core_id": "CORE-000191", "message": "RFENDTC is missing when ARM is provided.", "executability": "fully executable", "dataset": "DM", "USUBJID": "CART-T-PILOT-01-DF-011", "row": 128, "SEQ": "", "variables": ["ARM", "RFENDTC"], "values": ["Study Treatment", "null"]}, {"core_id": "CORE-000191", "message": "RFENDTC is missing when ARM is provided.", "executability": "fully executable", "dataset": "DM", "USUBJID": "CART-T-PILOT-01-DF-012", "row": 129, "SEQ": "", "variables": ["ARM", "RFENDTC"], "values": ["Study Treatment", "null"]}, {"core_id": "CORE-000191", "message": "RFENDTC is missing when ARM is provided.", "executability": "fully executable", "dataset": "DM", "USUBJID": "CART-T-PILOT-01-DF-013", "row": 130, "SEQ": "", "variables": ["ARM", "RFENDTC"], "values": ["Study Treatment", "null"]}, {"core_id": "CORE-000191", "message": "RFENDTC is missing when ARM is provided.", "executability": "fully executable", "dataset": "DM", "USUBJID": "CART-T-PILOT-01-DF-015", "row": 132, "SEQ": "", "variables": ["ARM", "RFENDTC"], "values": ["Study Treatment", "null"]}, {"core_id": "CORE-000191", "message": "RFENDTC is missing when ARM is provided.", "executability": "fully executable", "dataset": "DM", "USUBJID": "CART-T-PILOT-01-DF-017", "row": 134, "SEQ": "", "variables": ["ARM", "RFENDTC"], "values": ["Study Treatment", "null"]}, {"core_id": "CORE-000191", "message": "RFENDTC is missing when ARM is provided.", "executability": "fully executable", "dataset": "DM", "USUBJID": "CART-T-PILOT-01-DF-018", "row": 135, "SEQ": "", "variables": ["ARM", "RFENDTC"], "values": ["Study Treatment", "null"]}, {"core_id": "CORE-000191", "message": "RFENDTC is missing when ARM is provided.", "executability": "fully executable", "dataset": "DM", "USUBJID": "CART-T-PILOT-01-DF-021", "row": 138, "SEQ": "", "variables": ["ARM", "RFENDTC"], "values": ["Study Treatment", "null"]}, {"core_id": "CORE-000191", "message": "RFENDTC is missing when ARM is provided.", "executability": "fully executable", "dataset": "DM", "USUBJID": "CART-T-PILOT-01-DF-022", "row": 139, "SEQ": "", "variables": ["ARM", "RFENDTC"], "values": ["Study Treatment", "null"]}, {"core_id": "CORE-000191", "message": "RFENDTC is missing when ARM is provided.", "executability": "fully executable", "dataset": "DM", "USUBJID": "CART-T-PILOT-01-DF-023", "row": 140, "SEQ": "", "variables": ["ARM", "RFENDTC"], "values": ["Study Treatment", "null"]}, {"core_id": "CORE-000191", "message": "RFENDTC is missing when ARM is provided.", "executability": "fully executable", "dataset": "DM", "USUBJID": "CART-T-PILOT-01-DF-026", "row": 143, "SEQ": "", "variables": ["ARM", "RFENDTC"], "values": ["Study Treatment", "null"]}, {"core_id": "CORE-000191", "message": "RFENDTC is missing when ARM is provided.", "executability": "fully executable", "dataset": "DM", "USUBJID": "CART-T-PILOT-01-DF-027", "row": 144, "SEQ": "", "variables": ["ARM", "RFENDTC"], "values": ["Study Treatment", "null"]}, {"core_id": "CORE-000191", "message": "RFENDTC is missing when ARM is provided.", "executability": "fully executable", "dataset": "DM", "USUBJID": "CART-T-PILOT-01-DF-029", "row": 145, "SEQ": "", "variables": ["ARM", "RFENDTC"], "values": ["Study Treatment", "null"]}, {"core_id": "CORE-000191", "message": "RFENDTC is missing when ARM is provided.", "executability": "fully executable", "dataset": "DM", "USUBJID": "CART-T-PILOT-01-DF-030", "row": 146, "SEQ": "", "variables": ["ARM", "RFENDTC"], "values": ["Study Treatment", "null"]}, {"core_id": "CORE-000191", "message": "RFENDTC is missing when ARM is provided.", "executability": "fully executable", "dataset": "DM", "USUBJID": "CART-T-PILOT-01-DF-031", "row": 147, "SEQ": "", "variables": ["ARM", "RFENDTC"], "values": ["Study Treatment", "null"]}, {"core_id": "CORE-000191", "message": "RFENDTC is missing when ARM is provided.", "executability": "fully executable", "dataset": "DM", "USUBJID": "CART-T-PILOT-01-DF-032", "row": 148, "SEQ": "", "variables": ["ARM", "RFENDTC"], "values": ["Study Treatment", "null"]}, {"core_id": "CORE-000191", "message": "RFENDTC is missing when ARM is provided.", "executability": "fully executable", "dataset": "DM", "USUBJID": "CART-T-PILOT-01-DF-034", "row": 150, "SEQ": "", "variables": ["ARM", "RFENDTC"], "values": ["Study Treatment", "null"]}, {"core_id": "CORE-000191", "message": "RFENDTC is missing when ARM is provided.", "executability": "fully executable", "dataset": "DM", "USUBJID": "CART-T-PILOT-01-DF-036", "row": 152, "SEQ": "", "variables": ["ARM", "RFENDTC"], "values": ["Study Treatment", "null"]}, {"core_id": "CORE-000191", "message": "RFENDTC is missing when ARM is provided.", "executability": "fully executable", "dataset": "DM", "USUBJID": "CART-T-PILOT-01-DF-037", "row": 153, "SEQ": "", "variables": ["ARM", "RFENDTC"], "values": ["Study Treatment", "null"]}, {"core_id": "CORE-000191", "message": "RFENDTC is missing when ARM is provided.", "executability": "fully executable", "dataset": "DM", "USUBJID": "CART-T-PILOT-01-DF-041", "row": 157, "SEQ": "", "variables": ["ARM", "RFENDTC"], "values": ["Study Treatment", "null"]}, {"core_id": "CORE-000191", "message": "RFENDTC is missing when ARM is provided.", "executability": "fully executable", "dataset": "DM", "USUBJID": "CART-T-PILOT-01-DF-042", "row": 158, "SEQ": "", "variables": ["ARM", "RFENDTC"], "values": ["Study Treatment", "null"]}, {"core_id": "CORE-000191", "message": "RFENDTC is missing when ARM is provided.", "executability": "fully executable", "dataset": "DM", "USUBJID": "CART-T-PILOT-01-DF-043", "row": 159, "SEQ": "", "variables": ["ARM", "RFENDTC"], "values": ["Study Treatment", "null"]}, {"core_id": "CORE-000191", "message": "RFENDTC is missing when ARM is provided.", "executability": "fully executable", "dataset": "DM", "USUBJID": "CART-T-PILOT-01-DF-045", "row": 160, "SEQ": "", "variables": ["ARM", "RFENDTC"], "values": ["Study Treatment", "null"]}, {"core_id": "CORE-000191", "message": "RFENDTC is missing when ARM is provided.", "executability": "fully executable", "dataset": "DM", "USUBJID": "CART-T-PILOT-01-DF-046", "row": 161, "SEQ": "", "variables": ["ARM", "RFENDTC"], "values": ["Study Treatment", "null"]}, {"core_id": "CORE-000191", "message": "RFENDTC is missing when ARM is provided.", "executability": "fully executable", "dataset": "DM", "USUBJID": "CART-T-PILOT-01-DF-047", "row": 162, "SEQ": "", "variables": ["ARM", "RFENDTC"], "values": ["Study Treatment", "null"]}, {"core_id": "CORE-000191", "message": "RFENDTC is missing when ARM is provided.", "executability": "fully executable", "dataset": "DM", "USUBJID": "CART-T-PILOT-01-DF-048", "row": 163, "SEQ": "", "variables": ["ARM", "RFENDTC"], "values": ["Study Treatment", "null"]}, {"core_id": "CORE-000191", "message": "RFENDTC is missing when ARM is provided.", "executability": "fully executable", "dataset": "DM", "USUBJID": "CART-T-PILOT-01-DF-049", "row": 164, "SEQ": "", "variables": ["ARM", "RFENDTC"], "values": ["Study Treatment", "null"]}, {"core_id": "CORE-000191", "message": "RFENDTC is missing when ARM is provided.", "executability": "fully executable", "dataset": "DM", "USUBJID": "CART-T-PILOT-01-DF-050", "row": 165, "SEQ": "", "variables": ["ARM", "RFENDTC"], "values": ["Study Treatment", "null"]}, {"core_id": "CORE-000191", "message": "RFENDTC is missing when ARM is provided.", "executability": "fully executable", "dataset": "DM", "USUBJID": "CART-T-PILOT-01-DF-054", "row": 166, "SEQ": "", "variables": ["ARM", "RFENDTC"], "values": ["Study Treatment", "null"]}, {"core_id": "CORE-000191", "message": "RFENDTC is missing when ARM is provided.", "executability": "fully executable", "dataset": "DM", "USUBJID": "CART-T-PILOT-01-DF-057", "row": 169, "SEQ": "", "variables": ["ARM", "RFENDTC"], "values": ["Study Treatment", "null"]}, {"core_id": "CORE-000191", "message": "RFENDTC is missing when ARM is provided.", "executability": "fully executable", "dataset": "DM", "USUBJID": "CART-T-PILOT-01-DF-061", "row": 171, "SEQ": "", "variables": ["ARM", "RFENDTC"], "values": ["Study Treatment", "null"]}, {"core_id": "CORE-000191", "message": "RFENDTC is missing when ARM is provided.", "executability": "fully executable", "dataset": "DM", "USUBJID": "CART-T-PILOT-01-DF-063", "row": 172, "SEQ": "", "variables": ["ARM", "RFENDTC"], "values": ["Study Treatment", "null"]}, {"core_id": "CORE-000191", "message": "RFENDTC is missing when ARM is provided.", "executability": "fully executable", "dataset": "DM", "USUBJID": "CART-T-PILOT-01-DF-065", "row": 174, "SEQ": "", "variables": ["ARM", "RFENDTC"], "values": ["Study Treatment", "null"]}, {"core_id": "CORE-000191", "message": "RFENDTC is missing when ARM is provided.", "executability": "fully executable", "dataset": "DM", "USUBJID": "CART-T-PILOT-01-DF-067", "row": 175, "SEQ": "", "variables": ["ARM", "RFENDTC"], "values": ["Study Treatment", "null"]}, {"core_id": "CORE-000191", "message": "RFENDTC is missing when ARM is provided.", "executability": "fully executable", "dataset": "DM", "USUBJID": "CART-T-PILOT-01-DF-068", "row": 176, "SEQ": "", "variables": ["ARM", "RFENDTC"], "values": ["Study Treatment", "null"]}, {"core_id": "CORE-000191", "message": "RFENDTC is missing when ARM is provided.", "executability": "fully executable", "dataset": "DM", "USUBJID": "CART-T-PILOT-01-DF-069", "row": 177, "SEQ": "", "variables": ["ARM", "RFENDTC"], "values": ["Study Treatment", "null"]}, {"core_id": "CORE-000191", "message": "RFENDTC is missing when ARM is provided.", "executability": "fully executable", "dataset": "DM", "USUBJID": "CART-T-PILOT-01-DF-074", "row": 181, "SEQ": "", "variables": ["ARM", "RFENDTC"], "values": ["Study Treatment", "null"]}, {"core_id": "CORE-000191", "message": "RFENDTC is missing when ARM is provided.", "executability": "fully executable", "dataset": "DM", "USUBJID": "CART-T-PILOT-01-DF-075", "row": 182, "SEQ": "", "variables": ["ARM", "RFENDTC"], "values": ["Study Treatment", "null"]}, {"core_id": "CORE-000191", "message": "RFENDTC is missing when ARM is provided.", "executability": "fully executable", "dataset": "DM", "USUBJID": "CART-T-PILOT-01-DF-085", "row": 189, "SEQ": "", "variables": ["ARM", "RFENDTC"], "values": ["Study Treatment", "null"]}, {"core_id": "CORE-000191", "message": "RFENDTC is missing when ARM is provided.", "executability": "fully executable", "dataset": "DM", "USUBJID": "CART-T-PILOT-01-DF-086", "row": 190, "SEQ": "", "variables": ["ARM", "RFENDTC"], "values": ["Study Treatment", "null"]}, {"core_id": "CORE-000191", "message": "RFENDTC is missing when ARM is provided.", "executability": "fully executable", "dataset": "DM", "USUBJID": "CART-T-PILOT-01-DF-087", "row": 191, "SEQ": "", "variables": ["ARM", "RFENDTC"], "values": ["Study Treatment", "null"]}, {"core_id": "CORE-000191", "message": "RFENDTC is missing when ARM is provided.", "executability": "fully executable", "dataset": "DM", "USUBJID": "CART-T-PILOT-01-DF-088", "row": 192, "SEQ": "", "variables": ["ARM", "RFENDTC"], "values": ["Study Treatment", "null"]}, {"core_id": "CORE-000191", "message": "RFENDTC is missing when ARM is provided.", "executability": "fully executable", "dataset": "DM", "USUBJID": "CART-T-PILOT-01-DF-089", "row": 193, "SEQ": "", "variables": ["ARM", "RFENDTC"], "values": ["Study Treatment", "null"]}, {"core_id": "CORE-000191", "message": "RFENDTC is missing when ARM is provided.", "executability": "fully executable", "dataset": "DM", "USUBJID": "CART-T-PILOT-01-DF-092", "row": 195, "SEQ": "", "variables": ["ARM", "RFENDTC"], "values": ["Study Treatment", "null"]}, {"core_id": "CORE-000191", "message": "RFENDTC is missing when ARM is provided.", "executability": "fully executable", "dataset": "DM", "USUBJID": "CART-T-PILOT-01-DF-094", "row": 196, "SEQ": "", "variables": ["ARM", "RFENDTC"], "values": ["Study Treatment", "null"]}, {"core_id": "CORE-000191", "message": "RFENDTC is missing when ARM is provided.", "executability": "fully executable", "dataset": "DM", "USUBJID": "CART-T-PILOT-01-DF-095", "row": 197, "SEQ": "", "variables": ["ARM", "RFENDTC"], "values": ["Study Treatment", "null"]}, {"core_id": "CORE-000191", "message": "RFENDTC is missing when ARM is provided.", "executability": "fully executable", "dataset": "DM", "USUBJID": "CART-T-PILOT-01-DF-098", "row": 200, "SEQ": "", "variables": ["ARM", "RFENDTC"], "values": ["Study Treatment", "null"]}, {"core_id": "CORE-000191", "message": "RFENDTC is missing when ARM is provided.", "executability": "fully executable", "dataset": "DM", "USUBJID": "CART-T-PILOT-01-DF-102", "row": 202, "SEQ": "", "variables": ["ARM", "RFENDTC"], "values": ["Study Treatment", "null"]}, {"core_id": "CORE-000191", "message": "RFENDTC is missing when ARM is provided.", "executability": "fully executable", "dataset": "DM", "USUBJID": "CART-T-PILOT-01-DF-104", "row": 203, "SEQ": "", "variables": ["ARM", "RFENDTC"], "values": ["Study Treatment", "null"]}, {"core_id": "CORE-000191", "message": "RFENDTC is missing when ARM is provided.", "executability": "fully executable", "dataset": "DM", "USUBJID": "CART-T-PILOT-01-DF-111", "row": 208, "SEQ": "", "variables": ["ARM", "RFENDTC"], "values": ["Study Treatment", "null"]}, {"core_id": "CORE-000191", "message": "RFENDTC is missing when ARM is provided.", "executability": "fully executable", "dataset": "DM", "USUBJID": "CART-T-PILOT-01-DF-113", "row": 210, "SEQ": "", "variables": ["ARM", "RFENDTC"], "values": ["Study Treatment", "null"]}, {"core_id": "CORE-000191", "message": "RFENDTC is missing when ARM is provided.", "executability": "fully executable", "dataset": "DM", "USUBJID": "CART-T-PILOT-01-DF-114", "row": 211, "SEQ": "", "variables": ["ARM", "RFENDTC"], "values": ["Study Treatment", "null"]}, {"core_id": "CORE-000191", "message": "RFENDTC is missing when ARM is provided.", "executability": "fully executable", "dataset": "DM", "USUBJID": "CART-T-PILOT-01-DF-115", "row": 212, "SEQ": "", "variables": ["ARM", "RFENDTC"], "values": ["Study Treatment", "null"]}, {"core_id": "CORE-000191", "message": "RFENDTC is missing when ARM is provided.", "executability": "fully executable", "dataset": "DM", "USUBJID": "CART-T-PILOT-01-DF-116", "row": 213, "SEQ": "", "variables": ["ARM", "RFENDTC"], "values": ["Study Treatment", "null"]}, {"core_id": "CORE-000191", "message": "RFENDTC is missing when ARM is provided.", "executability": "fully executable", "dataset": "DM", "USUBJID": "CART-T-PILOT-01-DF-117", "row": 214, "SEQ": "", "variables": ["ARM", "RFENDTC"], "values": ["Study Treatment", "null"]}, {"core_id": "CORE-000191", "message": "RFENDTC is missing when ARM is provided.", "executability": "fully executable", "dataset": "DM", "USUBJID": "CART-T-PILOT-01-DF-120", "row": 216, "SEQ": "", "variables": ["ARM", "RFENDTC"], "values": ["Study Treatment", "null"]}, {"core_id": "CORE-000191", "message": "RFENDTC is missing when ARM is provided.", "executability": "fully executable", "dataset": "DM", "USUBJID": "CART-T-PILOT-01-DF-121", "row": 217, "SEQ": "", "variables": ["ARM", "RFENDTC"], "values": ["Study Treatment", "null"]}, {"core_id": "CORE-000191", "message": "RFENDTC is missing when ARM is provided.", "executability": "fully executable", "dataset": "DM", "USUBJID": "CART-T-PILOT-01-DF-122", "row": 218, "SEQ": "", "variables": ["ARM", "RFENDTC"], "values": ["Study Treatment", "null"]}, {"core_id": "CORE-000191", "message": "RFENDTC is missing when ARM is provided.", "executability": "fully executable", "dataset": "DM", "USUBJID": "CART-T-PILOT-01-DF-123", "row": 219, "SEQ": "", "variables": ["ARM", "RFENDTC"], "values": ["Study Treatment", "null"]}, {"core_id": "CORE-000191", "message": "RFENDTC is missing when ARM is provided.", "executability": "fully executable", "dataset": "DM", "USUBJID": "CART-T-PILOT-01-DF-131", "row": 223, "SEQ": "", "variables": ["ARM", "RFENDTC"], "values": ["Study Treatment", "null"]}, {"core_id": "CORE-000191", "message": "RFENDTC is missing when ARM is provided.", "executability": "fully executable", "dataset": "DM", "USUBJID": "CART-T-PILOT-01-DF-135", "row": 225, "SEQ": "", "variables": ["ARM", "RFENDTC"], "values": ["Study Treatment", "null"]}, {"core_id": "CORE-000191", "message": "RFENDTC is missing when ARM is provided.", "executability": "fully executable", "dataset": "DM", "USUBJID": "CART-T-PILOT-01-DF-140", "row": 228, "SEQ": "", "variables": ["ARM", "RFENDTC"], "values": ["Study Treatment", "null"]}, {"core_id": "CORE-000191", "message": "RFENDTC is missing when ARM is provided.", "executability": "fully executable", "dataset": "DM", "USUBJID": "CART-T-PILOT-01-DF-143", "row": 229, "SEQ": "", "variables": ["ARM", "RFENDTC"], "values": ["Study Treatment", "null"]}, {"core_id": "CORE-000191", "message": "RFENDTC is missing when ARM is provided.", "executability": "fully executable", "dataset": "DM", "USUBJID": "CART-T-PILOT-01-DF-144", "row": 230, "SEQ": "", "variables": ["ARM", "RFENDTC"], "values": ["Study Treatment", "null"]}, {"core_id": "CORE-000191", "message": "RFENDTC is missing when ARM is provided.", "executability": "fully executable", "dataset": "DM", "USUBJID": "CART-T-PILOT-01-DF-156", "row": 231, "SEQ": "", "variables": ["ARM", "RFENDTC"], "values": ["Study Treatment", "null"]}, {"core_id": "CORE-000191", "message": "RFENDTC is missing when ARM is provided.", "executability": "fully executable", "dataset": "DM", "USUBJID": "CART-T-PILOT-01-DF-160", "row": 232, "SEQ": "", "variables": ["ARM", "RFENDTC"], "values": ["Study Treatment", "null"]}, {"core_id": "CORE-000191", "message": "RFENDTC is missing when ARM is provided.", "executability": "fully executable", "dataset": "DM", "USUBJID": "CART-T-PILOT-01-DF-162", "row": 233, "SEQ": "", "variables": ["ARM", "RFENDTC"], "values": ["Study Treatment", "null"]}, {"core_id": "CORE-000191", "message": "RFENDTC is missing when ARM is provided.", "executability": "fully executable", "dataset": "DM", "USUBJID": "CART-T-PILOT-01-DF-168", "row": 238, "SEQ": "", "variables": ["ARM", "RFENDTC"], "values": ["Study Treatment", "null"]}, {"core_id": "CORE-000191", "message": "RFENDTC is missing when ARM is provided.", "executability": "fully executable", "dataset": "DM", "USUBJID": "CART-T-PILOT-01-DF-171", "row": 241, "SEQ": "", "variables": ["ARM", "RFENDTC"], "values": ["Study Treatment", "null"]}, {"core_id": "CORE-000191", "message": "RFENDTC is missing when ARM is provided.", "executability": "fully executable", "dataset": "DM", "USUBJID": "CART-T-PILOT-01-DF-172", "row": 242, "SEQ": "", "variables": ["ARM", "RFENDTC"], "values": ["Study Treatment", "null"]}, {"core_id": "CORE-000191", "message": "RFENDTC is missing when ARM is provided.", "executability": "fully executable", "dataset": "DM", "USUBJID": "CART-T-PILOT-01-DF-176", "row": 245, "SEQ": "", "variables": ["ARM", "RFENDTC"], "values": ["Study Treatment", "null"]}, {"core_id": "CORE-000191", "message": "RFENDTC is missing when ARM is provided.", "executability": "fully executable", "dataset": "DM", "USUBJID": "CART-T-PILOT-01-DF-178", "row": 247, "SEQ": "", "variables": ["ARM", "RFENDTC"], "values": ["Study Treatment", "null"]}, {"core_id": "CORE-000191", "message": "RFENDTC is missing when ARM is provided.", "executability": "fully executable", "dataset": "DM", "USUBJID": "CART-T-PILOT-01-DF-183", "row": 248, "SEQ": "", "variables": ["ARM", "RFENDTC"], "values": ["Study Treatment", "null"]}, {"core_id": "CORE-000191", "message": "RFENDTC is missing when ARM is provided.", "executability": "fully executable", "dataset": "DM", "USUBJID": "CART-T-PILOT-01-DF-186", "row": 251, "SEQ": "", "variables": ["ARM", "RFENDTC"], "values": ["Study Treatment", "null"]}, {"core_id": "CORE-000191", "message": "RFENDTC is missing when ARM is provided.", "executability": "fully executable", "dataset": "DM", "USUBJID": "CART-T-PILOT-01-DF-190", "row": 255, "SEQ": "", "variables": ["ARM", "RFENDTC"], "values": ["Study Treatment", "null"]}, {"core_id": "CORE-000191", "message": "RFENDTC is missing when ARM is provided.", "executability": "fully executable", "dataset": "DM", "USUBJID": "CART-T-PILOT-01-DF-193", "row": 258, "SEQ": "", "variables": ["ARM", "RFENDTC"], "values": ["Study Treatment", "null"]}, {"core_id": "CORE-000191", "message": "RFENDTC is missing when ARM is provided.", "executability": "fully executable", "dataset": "DM", "USUBJID": "CART-T-PILOT-01-DF-199", "row": 263, "SEQ": "", "variables": ["ARM", "RFENDTC"], "values": ["Study Treatment", "null"]}, {"core_id": "CORE-000191", "message": "RFENDTC is missing when ARM is provided.", "executability": "fully executable", "dataset": "DM", "USUBJID": "CART-T-PILOT-01-DF-203", "row": 267, "SEQ": "", "variables": ["ARM", "RFENDTC"], "values": ["Study Treatment", "null"]}, {"core_id": "CORE-000191", "message": "RFENDTC is missing when ARM is provided.", "executability": "fully executable", "dataset": "DM", "USUBJID": "CART-T-PILOT-01-DF-204", "row": 268, "SEQ": "", "variables": ["ARM", "RFENDTC"], "values": ["Study Treatment", "null"]}, {"core_id": "CORE-000191", "message": "RFENDTC is missing when ARM is provided.", "executability": "fully executable", "dataset": "DM", "USUBJID": "CART-T-PILOT-01-DF-205", "row": 269, "SEQ": "", "variables": ["ARM", "RFENDTC"], "values": ["Study Treatment", "null"]}, {"core_id": "CORE-000191", "message": "RFENDTC is missing when ARM is provided.", "executability": "fully executable", "dataset": "DM", "USUBJID": "CART-T-PILOT-01-DF-206", "row": 270, "SEQ": "", "variables": ["ARM", "RFENDTC"], "values": ["Study Treatment", "null"]}, {"core_id": "CORE-000191", "message": "RFENDTC is missing when ARM is provided.", "executability": "fully executable", "dataset": "DM", "USUBJID": "CART-T-PILOT-01-DF-212", "row": 275, "SEQ": "", "variables": ["ARM", "RFENDTC"], "values": ["Study Treatment", "null"]}, {"core_id": "CORE-000191", "message": "RFENDTC is missing when ARM is provided.", "executability": "fully executable", "dataset": "DM", "USUBJID": "CART-T-PILOT-01-DF-214", "row": 277, "SEQ": "", "variables": ["ARM", "RFENDTC"], "values": ["Study Treatment", "null"]}, {"core_id": "CORE-000191", "message": "RFENDTC is missing when ARM is provided.", "executability": "fully executable", "dataset": "DM", "USUBJID": "CART-T-PILOT-01-DF-218", "row": 280, "SEQ": "", "variables": ["ARM", "RFENDTC"], "values": ["Study Treatment", "null"]}, {"core_id": "CORE-000191", "message": "RFENDTC is missing when ARM is provided.", "executability": "fully executable", "dataset": "DM", "USUBJID": "CART-T-PILOT-01-DF-246", "row": 291, "SEQ": "", "variables": ["ARM", "RFENDTC"], "values": ["Study Treatment", "null"]}, {"core_id": "CORE-000191", "message": "RFENDTC is missing when ARM is provided.", "executability": "fully executable", "dataset": "DM", "USUBJID": "CART-T-PILOT-01-DF-247", "row": 292, "SEQ": "", "variables": ["ARM", "RFENDTC"], "values": ["Study Treatment", "null"]}, {"core_id": "CORE-000191", "message": "RFENDTC is missing when ARM is provided.", "executability": "fully executable", "dataset": "DM", "USUBJID": "CART-T-PILOT-01-DF-273", "row": 306, "SEQ": "", "variables": ["ARM", "RFENDTC"], "values": ["Study Treatment", "null"]}, {"core_id": "CORE-000191", "message": "RFENDTC is missing when ARM is provided.", "executability": "fully executable", "dataset": "DM", "USUBJID": "CART-T-PILOT-01-DF-275", "row": 308, "SEQ": "", "variables": ["ARM", "RFENDTC"], "values": ["Study Treatment", "null"]}, {"core_id": "CORE-000191", "message": "RFENDTC is missing when ARM is provided.", "executability": "fully executable", "dataset": "DM", "USUBJID": "CART-T-PILOT-01-DF-278", "row": 311, "SEQ": "", "variables": ["ARM", "RFENDTC"], "values": ["Study Treatment", "null"]}, {"core_id": "CORE-000191", "message": "RFENDTC is missing when ARM is provided.", "executability": "fully executable", "dataset": "DM", "USUBJID": "CART-T-PILOT-01-DF-285", "row": 314, "SEQ": "", "variables": ["ARM", "RFENDTC"], "values": ["Study Treatment", "null"]}, {"core_id": "CORE-000191", "message": "RFENDTC is missing when ARM is provided.", "executability": "fully executable", "dataset": "DM", "USUBJID": "CART-T-PILOT-01-DF-286", "row": 315, "SEQ": "", "variables": ["ARM", "RFENDTC"], "values": ["Study Treatment", "null"]}, {"core_id": "CORE-000191", "message": "RFENDTC is missing when ARM is provided.", "executability": "fully executable", "dataset": "DM", "USUBJID": "CART-T-PILOT-01-DF-292", "row": 321, "SEQ": "", "variables": ["ARM", "RFENDTC"], "values": ["Study Treatment", "null"]}, {"core_id": "CORE-000191", "message": "RFENDTC is missing when ARM is provided.", "executability": "fully executable", "dataset": "DM", "USUBJID": "CART-T-PILOT-01-DF-304", "row": 330, "SEQ": "", "variables": ["ARM", "RFENDTC"], "values": ["Study Treatment", "null"]}, {"core_id": "CORE-000191", "message": "RFENDTC is missing when ARM is provided.", "executability": "fully executable", "dataset": "DM", "USUBJID": "CART-T-PILOT-01-DF-305", "row": 331, "SEQ": "", "variables": ["ARM", "RFENDTC"], "values": ["Study Treatment", "null"]}, {"core_id": "CORE-000191", "message": "RFENDTC is missing when ARM is provided.", "executability": "fully executable", "dataset": "DM", "USUBJID": "CART-T-PILOT-01-DF-306", "row": 332, "SEQ": "", "variables": ["ARM", "RFENDTC"], "values": ["Study Treatment", "null"]}, {"core_id": "CORE-000191", "message": "RFENDTC is missing when ARM is provided.", "executability": "fully executable", "dataset": "DM", "USUBJID": "CART-T-PILOT-01-DF-307", "row": 333, "SEQ": "", "variables": ["ARM", "RFENDTC"], "values": ["Study Treatment", "null"]}, {"core_id": "CORE-000191", "message": "RFENDTC is missing when ARM is provided.", "executability": "fully executable", "dataset": "DM", "USUBJID": "CART-T-PILOT-01-DF-309", "row": 335, "SEQ": "", "variables": ["ARM", "RFENDTC"], "values": ["Study Treatment", "null"]}, {"core_id": "CORE-000191", "message": "RFENDTC is missing when ARM is provided.", "executability": "fully executable", "dataset": "DM", "USUBJID": "CART-T-PILOT-01-DF-310", "row": 336, "SEQ": "", "variables": ["ARM", "RFENDTC"], "values": ["Study Treatment", "null"]}, {"core_id": "CORE-000191", "message": "RFENDTC is missing when ARM is provided.", "executability": "fully executable", "dataset": "DM", "USUBJID": "CART-T-PILOT-01-DF-311", "row": 337, "SEQ": "", "variables": ["ARM", "RFENDTC"], "values": ["Study Treatment", "null"]}, {"core_id": "CORE-000191", "message": "RFENDTC is missing when ARM is provided.", "executability": "fully executable", "dataset": "DM", "USUBJID": "CART-T-PILOT-01-DF-313", "row": 338, "SEQ": "", "variables": ["ARM", "RFENDTC"], "values": ["Study Treatment", "null"]}, {"core_id": "CORE-000191", "message": "RFENDTC is missing when ARM is provided.", "executability": "fully executable", "dataset": "DM", "USUBJID": "CART-T-PILOT-01-DF-316", "row": 340, "SEQ": "", "variables": ["ARM", "RFENDTC"], "values": ["Study Treatment", "null"]}, {"core_id": "CORE-000191", "message": "RFENDTC is missing when ARM is provided.", "executability": "fully executable", "dataset": "DM", "USUBJID": "CART-T-PILOT-01-DF-319", "row": 343, "SEQ": "", "variables": ["ARM", "RFENDTC"], "values": ["Study Treatment", "null"]}, {"core_id": "CORE-000191", "message": "RFENDTC is missing when ARM is provided.", "executability": "fully executable", "dataset": "DM", "USUBJID": "CART-T-PILOT-01-DF-320", "row": 344, "SEQ": "", "variables": ["ARM", "RFENDTC"], "values": ["Study Treatment", "null"]}, {"core_id": "CORE-000191", "message": "RFENDTC is missing when ARM is provided.", "executability": "fully executable", "dataset": "DM", "USUBJID": "CART-T-PILOT-01-DF-321", "row": 345, "SEQ": "", "variables": ["ARM", "RFENDTC"], "values": ["Study Treatment", "null"]}, {"core_id": "CORE-000191", "message": "RFENDTC is missing when ARM is provided.", "executability": "fully executable", "dataset": "DM", "USUBJID": "CART-T-PILOT-01-DF-323", "row": 346, "SEQ": "", "variables": ["ARM", "RFENDTC"], "values": ["Study Treatment", "null"]}, {"core_id": "CORE-000191", "message": "RFENDTC is missing when ARM is provided.", "executability": "fully executable", "dataset": "DM", "USUBJID": "CART-T-PILOT-01-DF-324", "row": 347, "SEQ": "", "variables": ["ARM", "RFENDTC"], "values": ["Study Treatment", "null"]}, {"core_id": "CORE-000191", "message": "RFENDTC is missing when ARM is provided.", "executability": "fully executable", "dataset": "DM", "USUBJID": "CART-T-PILOT-01-DF-325", "row": 348, "SEQ": "", "variables": ["ARM", "RFENDTC"], "values": ["Study Treatment", "null"]}, {"core_id": "CORE-000191", "message": "RFENDTC is missing when ARM is provided.", "executability": "fully executable", "dataset": "DM", "USUBJID": "CART-T-PILOT-01-DF-328", "row": 351, "SEQ": "", "variables": ["ARM", "RFENDTC"], "values": ["Study Treatment", "null"]}, {"core_id": "CORE-000191", "message": "RFENDTC is missing when ARM is provided.", "executability": "fully executable", "dataset": "DM", "USUBJID": "CART-T-PILOT-01-DF-330", "row": 353, "SEQ": "", "variables": ["ARM", "RFENDTC"], "values": ["Study Treatment", "null"]}, {"core_id": "CORE-000191", "message": "RFENDTC is missing when ARM is provided.", "executability": "fully executable", "dataset": "DM", "USUBJID": "CART-T-PILOT-01-DF-338", "row": 358, "SEQ": "", "variables": ["ARM", "RFENDTC"], "values": ["Study Treatment", "null"]}, {"core_id": "CORE-000191", "message": "RFENDTC is missing when ARM is provided.", "executability": "fully executable", "dataset": "DM", "USUBJID": "CART-T-PILOT-01-DF-355", "row": 371, "SEQ": "", "variables": ["ARM", "RFENDTC"], "values": ["Study Treatment", "null"]}, {"core_id": "CORE-000191", "message": "RFENDTC is missing when ARM is provided.", "executability": "fully executable", "dataset": "DM", "USUBJID": "CART-T-PILOT-01-DF-356", "row": 372, "SEQ": "", "variables": ["ARM", "RFENDTC"], "values": ["Study Treatment", "null"]}, {"core_id": "CORE-000191", "message": "RFENDTC is missing when ARM is provided.", "executability": "fully executable", "dataset": "DM", "USUBJID": "CART-T-PILOT-01-DF-359", "row": 374, "SEQ": "", "variables": ["ARM", "RFENDTC"], "values": ["Study Treatment", "null"]}, {"core_id": "CORE-000191", "message": "RFENDTC is missing when ARM is provided.", "executability": "fully executable", "dataset": "DM", "USUBJID": "CART-T-PILOT-01-DF-360", "row": 375, "SEQ": "", "variables": ["ARM", "RFENDTC"], "values": ["Study Treatment", "null"]}, {"core_id": "CORE-000191", "message": "RFENDTC is missing when ARM is provided.", "executability": "fully executable", "dataset": "DM", "USUBJID": "CART-T-PILOT-01-DF-361", "row": 376, "SEQ": "", "variables": ["ARM", "RFENDTC"], "values": ["Study Treatment", "null"]}, {"core_id": "CORE-000191", "message": "RFENDTC is missing when ARM is provided.", "executability": "fully executable", "dataset": "DM", "USUBJID": "CART-T-PILOT-01-DF-364", "row": 379, "SEQ": "", "variables": ["ARM", "RFENDTC"], "values": ["Study Treatment", "null"]}, {"core_id": "CORE-000191", "message": "RFENDTC is missing when ARM is provided.", "executability": "fully executable", "dataset": "DM", "USUBJID": "CART-T-PILOT-01-DF-365", "row": 380, "SEQ": "", "variables": ["ARM", "RFENDTC"], "values": ["Study Treatment", "null"]}, {"core_id": "CORE-000191", "message": "RFENDTC is missing when ARM is provided.", "executability": "fully executable", "dataset": "DM", "USUBJID": "CART-T-PILOT-01-DF-368", "row": 382, "SEQ": "", "variables": ["ARM", "RFENDTC"], "values": ["Study Treatment", "null"]}, {"core_id": "CORE-000191", "message": "RFENDTC is missing when ARM is provided.", "executability": "fully executable", "dataset": "DM", "USUBJID": "CART-T-PILOT-01-DF-369", "row": 383, "SEQ": "", "variables": ["ARM", "RFENDTC"], "values": ["Study Treatment", "null"]}, {"core_id": "CORE-000191", "message": "RFENDTC is missing when ARM is provided.", "executability": "fully executable", "dataset": "DM", "USUBJID": "CART-T-PILOT-01-DF-370", "row": 384, "SEQ": "", "variables": ["ARM", "RFENDTC"], "values": ["Study Treatment", "null"]}, {"core_id": "CORE-000191", "message": "RFENDTC is missing when ARM is provided.", "executability": "fully executable", "dataset": "DM", "USUBJID": "CART-T-PILOT-01-DF-375", "row": 389, "SEQ": "", "variables": ["ARM", "RFENDTC"], "values": ["Study Treatment", "null"]}, {"core_id": "CORE-000191", "message": "RFENDTC is missing when ARM is provided.", "executability": "fully executable", "dataset": "DM", "USUBJID": "CART-T-PILOT-01-DF-378", "row": 392, "SEQ": "", "variables": ["ARM", "RFENDTC"], "values": ["Study Treatment", "null"]}, {"core_id": "CORE-000191", "message": "RFENDTC is missing when ARM is provided.", "executability": "fully executable", "dataset": "DM", "USUBJID": "CART-T-PILOT-01-DF-384", "row": 397, "SEQ": "", "variables": ["ARM", "RFENDTC"], "values": ["Study Treatment", "null"]}, {"core_id": "CORE-000191", "message": "RFENDTC is missing when ARM is provided.", "executability": "fully executable", "dataset": "DM", "USUBJID": "CART-T-PILOT-01-DF-387", "row": 400, "SEQ": "", "variables": ["ARM", "RFENDTC"], "values": ["Study Treatment", "null"]}, {"core_id": "CORE-000191", "message": "RFENDTC is missing when ARM is provided.", "executability": "fully executable", "dataset": "DM", "USUBJID": "CART-T-PILOT-01-DF-396", "row": 405, "SEQ": "", "variables": ["ARM", "RFENDTC"], "values": ["Study Treatment", "null"]}, {"core_id": "CORE-000191", "message": "RFENDTC is missing when ARM is provided.", "executability": "fully executable", "dataset": "DM", "USUBJID": "CART-T-PILOT-01-DF-397", "row": 406, "SEQ": "", "variables": ["ARM", "RFENDTC"], "values": ["Study Treatment", "null"]}, {"core_id": "CORE-000191", "message": "RFENDTC is missing when ARM is provided.", "executability": "fully executable", "dataset": "DM", "USUBJID": "CART-T-PILOT-01-DF-431", "row": 416, "SEQ": "", "variables": ["ARM", "RFENDTC"], "values": ["Study Treatment", "null"]}, {"core_id": "CORE-000191", "message": "RFENDTC is missing when ARM is provided.", "executability": "fully executable", "dataset": "DM", "USUBJID": "CART-T-PILOT-01-DF-434", "row": 419, "SEQ": "", "variables": ["ARM", "RFENDTC"], "values": ["Study Treatment", "null"]}, {"core_id": "CORE-000191", "message": "RFENDTC is missing when ARM is provided.", "executability": "fully executable", "dataset": "DM", "USUBJID": "CART-T-PILOT-01-DF-435", "row": 420, "SEQ": "", "variables": ["ARM", "RFENDTC"], "values": ["Study Treatment", "null"]}, {"core_id": "CORE-000191", "message": "RFENDTC is missing when ARM is provided.", "executability": "fully executable", "dataset": "DM", "USUBJID": "CART-T-PILOT-01-DF-438", "row": 423, "SEQ": "", "variables": ["ARM", "RFENDTC"], "values": ["Study Treatment", "null"]}, {"core_id": "CORE-000191", "message": "RFENDTC is missing when ARM is provided.", "executability": "fully executable", "dataset": "DM", "USUBJID": "CART-T-PILOT-01-DF-447", "row": 428, "SEQ": "", "variables": ["ARM", "RFENDTC"], "values": ["Study Treatment", "null"]}, {"core_id": "CORE-000191", "message": "RFENDTC is missing when ARM is provided.", "executability": "fully executable", "dataset": "DM", "USUBJID": "CART-T-PILOT-01-DF-449", "row": 430, "SEQ": "", "variables": ["ARM", "RFENDTC"], "values": ["Study Treatment", "null"]}, {"core_id": "CORE-000191", "message": "RFENDTC is missing when ARM is provided.", "executability": "fully executable", "dataset": "DM", "USUBJID": "CART-T-PILOT-01-DF-454", "row": 432, "SEQ": "", "variables": ["ARM", "RFENDTC"], "values": ["Study Treatment", "null"]}, {"core_id": "CORE-000191", "message": "RFENDTC is missing when ARM is provided.", "executability": "fully executable", "dataset": "DM", "USUBJID": "CART-T-PILOT-01-DF-457", "row": 434, "SEQ": "", "variables": ["ARM", "RFENDTC"], "values": ["Study Treatment", "null"]}, {"core_id": "CORE-000191", "message": "RFENDTC is missing when ARM is provided.", "executability": "fully executable", "dataset": "DM", "USUBJID": "CART-T-PILOT-01-DF-460", "row": 435, "SEQ": "", "variables": ["ARM", "RFENDTC"], "values": ["Study Treatment", "null"]}, {"core_id": "CORE-000191", "message": "RFENDTC is missing when ARM is provided.", "executability": "fully executable", "dataset": "DM", "USUBJID": "CART-T-PILOT-01-DF-461", "row": 436, "SEQ": "", "variables": ["ARM", "RFENDTC"], "values": ["Study Treatment", "null"]}, {"core_id": "CORE-000191", "message": "RFENDTC is missing when ARM is provided.", "executability": "fully executable", "dataset": "DM", "USUBJID": "CART-T-PILOT-01-DF-462", "row": 437, "SEQ": "", "variables": ["ARM", "RFENDTC"], "values": ["Study Treatment", "null"]}, {"core_id": "CORE-000191", "message": "RFENDTC is missing when ARM is provided.", "executability": "fully executable", "dataset": "DM", "USUBJID": "CART-T-PILOT-01-DF-463", "row": 438, "SEQ": "", "variables": ["ARM", "RFENDTC"], "values": ["Study Treatment", "null"]}, {"core_id": "CORE-000191", "message": "RFENDTC is missing when ARM is provided.", "executability": "fully executable", "dataset": "DM", "USUBJID": "CART-T-PILOT-01-DF-469", "row": 443, "SEQ": "", "variables": ["ARM", "RFENDTC"], "values": ["Study Treatment", "null"]}, {"core_id": "CORE-000191", "message": "RFENDTC is missing when ARM is provided.", "executability": "fully executable", "dataset": "DM", "USUBJID": "CART-T-PILOT-01-DF-472", "row": 446, "SEQ": "", "variables": ["ARM", "RFENDTC"], "values": ["Study Treatment", "null"]}, {"core_id": "CORE-000191", "message": "RFENDTC is missing when ARM is provided.", "executability": "fully executable", "dataset": "DM", "USUBJID": "CART-T-PILOT-01-DF-487", "row": 452, "SEQ": "", "variables": ["ARM", "RFENDTC"], "values": ["Study Treatment", "null"]}, {"core_id": "CORE-000191", "message": "RFENDTC is missing when ARM is provided.", "executability": "fully executable", "dataset": "DM", "USUBJID": "CART-T-PILOT-01-DF-495", "row": 458, "SEQ": "", "variables": ["ARM", "RFENDTC"], "values": ["Study Treatment", "null"]}, {"core_id": "CORE-000191", "message": "RFENDTC is missing when ARM is provided.", "executability": "fully executable", "dataset": "DM", "USUBJID": "CART-T-PILOT-01-DF-507", "row": 465, "SEQ": "", "variables": ["ARM", "RFENDTC"], "values": ["Study Treatment", "null"]}, {"core_id": "CORE-000191", "message": "RFENDTC is missing when ARM is provided.", "executability": "fully executable", "dataset": "DM", "USUBJID": "CART-T-PILOT-01-DF-508", "row": 466, "SEQ": "", "variables": ["ARM", "RFENDTC"], "values": ["Study Treatment", "null"]}, {"core_id": "CORE-000191", "message": "RFENDTC is missing when ARM is provided.", "executability": "fully executable", "dataset": "DM", "USUBJID": "CART-T-PILOT-01-DF-514", "row": 469, "SEQ": "", "variables": ["ARM", "RFENDTC"], "values": ["Study Treatment", "null"]}, {"core_id": "CORE-000191", "message": "RFENDTC is missing when ARM is provided.", "executability": "fully executable", "dataset": "DM", "USUBJID": "CART-T-PILOT-01-DF-518", "row": 470, "SEQ": "", "variables": ["ARM", "RFENDTC"], "values": ["Study Treatment", "null"]}, {"core_id": "CORE-000191", "message": "RFENDTC is missing when ARM is provided.", "executability": "fully executable", "dataset": "DM", "USUBJID": "CART-T-PILOT-01-DF-522", "row": 472, "SEQ": "", "variables": ["ARM", "RFENDTC"], "values": ["Study Treatment", "null"]}, {"core_id": "CORE-000191", "message": "RFENDTC is missing when ARM is provided.", "executability": "fully executable", "dataset": "DM", "USUBJID": "CART-T-PILOT-01-DF-528", "row": 477, "SEQ": "", "variables": ["ARM", "RFENDTC"], "values": ["Study Treatment", "null"]}, {"core_id": "CORE-000191", "message": "RFENDTC is missing when ARM is provided.", "executability": "fully executable", "dataset": "DM", "USUBJID": "CART-T-PILOT-01-DF-530", "row": 479, "SEQ": "", "variables": ["ARM", "RFENDTC"], "values": ["Study Treatment", "null"]}, {"core_id": "CORE-000191", "message": "RFENDTC is missing when ARM is provided.", "executability": "fully executable", "dataset": "DM", "USUBJID": "CART-T-PILOT-01-DF-532", "row": 480, "SEQ": "", "variables": ["ARM", "RFENDTC"], "values": ["Study Treatment", "null"]}, {"core_id": "CORE-000191", "message": "RFENDTC is missing when ARM is provided.", "executability": "fully executable", "dataset": "DM", "USUBJID": "CART-T-PILOT-01-DF-541", "row": 486, "SEQ": "", "variables": ["ARM", "RFENDTC"], "values": ["Study Treatment", "null"]}, {"core_id": "CORE-000191", "message": "RFENDTC is missing when ARM is provided.", "executability": "fully executable", "dataset": "DM", "USUBJID": "CART-T-PILOT-01-DF-542", "row": 487, "SEQ": "", "variables": ["ARM", "RFENDTC"], "values": ["Study Treatment", "null"]}, {"core_id": "CORE-000191", "message": "RFENDTC is missing when ARM is provided.", "executability": "fully executable", "dataset": "DM", "USUBJID": "CART-T-PILOT-01-DF-552", "row": 496, "SEQ": "", "variables": ["ARM", "RFENDTC"], "values": ["Study Treatment", "null"]}, {"core_id": "CORE-000191", "message": "RFENDTC is missing when ARM is provided.", "executability": "fully executable", "dataset": "DM", "USUBJID": "CART-T-PILOT-01-DF-563", "row": 507, "SEQ": "", "variables": ["ARM", "RFENDTC"], "values": ["Study Treatment", "null"]}, {"core_id": "CORE-000191", "message": "RFENDTC is missing when ARM is provided.", "executability": "fully executable", "dataset": "DM", "USUBJID": "CART-T-PILOT-01-DF-565", "row": 509, "SEQ": "", "variables": ["ARM", "RFENDTC"], "values": ["Study Treatment", "null"]}, {"core_id": "CORE-000191", "message": "RFENDTC is missing when ARM is provided.", "executability": "fully executable", "dataset": "DM", "USUBJID": "CART-T-PILOT-01-DF-568", "row": 512, "SEQ": "", "variables": ["ARM", "RFENDTC"], "values": ["Study Treatment", "null"]}, {"core_id": "CORE-000191", "message": "RFENDTC is missing when ARM is provided.", "executability": "fully executable", "dataset": "DM", "USUBJID": "CART-T-PILOT-01-DF-569", "row": 513, "SEQ": "", "variables": ["ARM", "RFENDTC"], "values": ["Study Treatment", "null"]}, {"core_id": "CORE-000191", "message": "RFENDTC is missing when ARM is provided.", "executability": "fully executable", "dataset": "DM", "USUBJID": "CART-T-PILOT-01-DF-570", "row": 514, "SEQ": "", "variables": ["ARM", "RFENDTC"], "values": ["Study Treatment", "null"]}, {"core_id": "CORE-000191", "message": "RFENDTC is missing when ARM is provided.", "executability": "fully executable", "dataset": "DM", "USUBJID": "CART-T-PILOT-01-DF-571", "row": 515, "SEQ": "", "variables": ["ARM", "RFENDTC"], "values": ["Study Treatment", "null"]}, {"core_id": "CORE-000191", "message": "RFENDTC is missing when ARM is provided.", "executability": "fully executable", "dataset": "DM", "USUBJID": "CART-T-PILOT-01-DF-573", "row": 517, "SEQ": "", "variables": ["ARM", "RFENDTC"], "values": ["Study Treatment", "null"]}, {"core_id": "CORE-000191", "message": "RFENDTC is missing when ARM is provided.", "executability": "fully executable", "dataset": "DM", "USUBJID": "CART-T-PILOT-01-DF-574", "row": 518, "SEQ": "", "variables": ["ARM", "RFENDTC"], "values": ["Study Treatment", "null"]}, {"core_id": "CORE-000191", "message": "RFENDTC is missing when ARM is provided.", "executability": "fully executable", "dataset": "DM", "USUBJID": "CART-T-PILOT-01-DF-575", "row": 519, "SEQ": "", "variables": ["ARM", "RFENDTC"], "values": ["Study Treatment", "null"]}, {"core_id": "CORE-000191", "message": "RFENDTC is missing when ARM is provided.", "executability": "fully executable", "dataset": "DM", "USUBJID": "CART-T-PILOT-01-DF-589", "row": 531, "SEQ": "", "variables": ["ARM", "RFENDTC"], "values": ["Study Treatment", "null"]}, {"core_id": "CORE-000191", "message": "RFENDTC is missing when ARM is provided.", "executability": "fully executable", "dataset": "DM", "USUBJID": "CART-T-PILOT-01-DF-590", "row": 532, "SEQ": "", "variables": ["ARM", "RFENDTC"], "values": ["Study Treatment", "null"]}, {"core_id": "CORE-000191", "message": "RFENDTC is missing when ARM is provided.", "executability": "fully executable", "dataset": "DM", "USUBJID": "CART-T-PILOT-01-DF-591", "row": 533, "SEQ": "", "variables": ["ARM", "RFENDTC"], "values": ["Study Treatment", "null"]}, {"core_id": "CORE-000191", "message": "RFENDTC is missing when ARM is provided.", "executability": "fully executable", "dataset": "DM", "USUBJID": "CART-T-PILOT-01-DF-592", "row": 534, "SEQ": "", "variables": ["ARM", "RFENDTC"], "values": ["Study Treatment", "null"]}, {"core_id": "CORE-000191", "message": "RFENDTC is missing when ARM is provided.", "executability": "fully executable", "dataset": "DM", "USUBJID": "CART-T-PILOT-01-DF-601", "row": 539, "SEQ": "", "variables": ["ARM", "RFENDTC"], "values": ["Study Treatment", "null"]}, {"core_id": "CORE-000191", "message": "RFENDTC is missing when ARM is provided.", "executability": "fully executable", "dataset": "DM", "USUBJID": "CART-T-PILOT-01-DF-603", "row": 541, "SEQ": "", "variables": ["ARM", "RFENDTC"], "values": ["Study Treatment", "null"]}, {"core_id": "CORE-000191", "message": "RFENDTC is missing when ARM is provided.", "executability": "fully executable", "dataset": "DM", "USUBJID": "CART-T-PILOT-01-DF-605", "row": 542, "SEQ": "", "variables": ["ARM", "RFENDTC"], "values": ["Study Treatment", "null"]}, {"core_id": "CORE-000191", "message": "RFENDTC is missing when ARM is provided.", "executability": "fully executable", "dataset": "DM", "USUBJID": "CART-T-PILOT-01-DF-606", "row": 543, "SEQ": "", "variables": ["ARM", "RFENDTC"], "values": ["Study Treatment", "null"]}, {"core_id": "CORE-000191", "message": "RFENDTC is missing when ARM is provided.", "executability": "fully executable", "dataset": "DM", "USUBJID": "CART-T-PILOT-01-DF-611", "row": 546, "SEQ": "", "variables": ["ARM", "RFENDTC"], "values": ["Study Treatment", "null"]}, {"core_id": "CORE-000191", "message": "RFENDTC is missing when ARM is provided.", "executability": "fully executable", "dataset": "DM", "USUBJID": "CART-T-PILOT-01-DF-618", "row": 552, "SEQ": "", "variables": ["ARM", "RFENDTC"], "values": ["Study Treatment", "null"]}, {"core_id": "CORE-000191", "message": "RFENDTC is missing when ARM is provided.", "executability": "fully executable", "dataset": "DM", "USUBJID": "CART-T-PILOT-01-DF-621", "row": 555, "SEQ": "", "variables": ["ARM", "RFENDTC"], "values": ["Study Treatment", "null"]}, {"core_id": "CORE-000191", "message": "RFENDTC is missing when ARM is provided.", "executability": "fully executable", "dataset": "DM", "USUBJID": "CART-T-PILOT-01-DF-622", "row": 556, "SEQ": "", "variables": ["ARM", "RFENDTC"], "values": ["Study Treatment", "null"]}, {"core_id": "CORE-000191", "message": "RFENDTC is missing when ARM is provided.", "executability": "fully executable", "dataset": "DM", "USUBJID": "CART-T-PILOT-01-DF-625", "row": 558, "SEQ": "", "variables": ["ARM", "RFENDTC"], "values": ["Study Treatment", "null"]}, {"core_id": "CORE-000191", "message": "RFENDTC is missing when ARM is provided.", "executability": "fully executable", "dataset": "DM", "USUBJID": "CART-T-PILOT-01-DF-629", "row": 561, "SEQ": "", "variables": ["ARM", "RFENDTC"], "values": ["Study Treatment", "null"]}, {"core_id": "CORE-000191", "message": "RFENDTC is missing when ARM is provided.", "executability": "fully executable", "dataset": "DM", "USUBJID": "CART-T-PILOT-01-DF-632", "row": 563, "SEQ": "", "variables": ["ARM", "RFENDTC"], "values": ["Study Treatment", "null"]}, {"core_id": "CORE-000191", "message": "RFENDTC is missing when ARM is provided.", "executability": "fully executable", "dataset": "DM", "USUBJID": "CART-T-PILOT-01-MGH-030", "row": 593, "SEQ": "", "variables": ["ARM", "RFENDTC"], "values": ["Study Treatment", "null"]}, {"core_id": "CORE-000191", "message": "RFENDTC is missing when ARM is provided.", "executability": "fully executable", "dataset": "DM", "USUBJID": "CART-T-PILOT-01-MGH-064", "row": 620, "SEQ": "", "variables": ["ARM", "RFENDTC"], "values": ["Study Treatment", "null"]}, {"core_id": "CORE-000191", "message": "RFENDTC is missing when ARM is provided.", "executability": "fully executable", "dataset": "DM", "USUBJID": "CART-T-PILOT-01-MGH-073", "row": 625, "SEQ": "", "variables": ["ARM", "RFENDTC"], "values": ["Study Treatment", "null"]}, {"core_id": "CORE-000191", "message": "RFENDTC is missing when ARM is provided.", "executability": "fully executable", "dataset": "DM", "USUBJID": "CART-T-PILOT-01-MGH-079", "row": 630, "SEQ": "", "variables": ["ARM", "RFENDTC"], "values": ["Study Treatment", "null"]}, {"core_id": "CORE-000191", "message": "RFENDTC is missing when ARM is provided.", "executability": "fully executable", "dataset": "DM", "USUBJID": "CART-T-PILOT-01-MGH-107", "row": 649, "SEQ": "", "variables": ["ARM", "RFENDTC"], "values": ["Study Treatment", "null"]}, {"core_id": "CORE-000191", "message": "RFENDTC is missing when ARM is provided.", "executability": "fully executable", "dataset": "DM", "USUBJID": "CART-T-PILOT-01-MGH-115", "row": 656, "SEQ": "", "variables": ["ARM", "RFENDTC"], "values": ["Study Treatment", "null"]}, {"core_id": "CORE-000191", "message": "RFENDTC is missing when ARM is provided.", "executability": "fully executable", "dataset": "DM", "USUBJID": "CART-T-PILOT-01-MGH-129", "row": 663, "SEQ": "", "variables": ["ARM", "RFENDTC"], "values": ["Study Treatment", "null"]}, {"core_id": "CORE-000191", "message": "RFENDTC is missing when ARM is provided.", "executability": "fully executable", "dataset": "DM", "USUBJID": "CART-T-PILOT-01-MGH-134", "row": 667, "SEQ": "", "variables": ["ARM", "RFENDTC"], "values": ["Study Treatment", "null"]}, {"core_id": "CORE-000191", "message": "RFENDTC is missing when ARM is provided.", "executability": "fully executable", "dataset": "DM", "USUBJID": "CART-T-PILOT-01-MGH-141", "row": 671, "SEQ": "", "variables": ["ARM", "RFENDTC"], "values": ["Study Treatment", "null"]}, {"core_id": "CORE-000191", "message": "RFENDTC is missing when ARM is provided.", "executability": "fully executable", "dataset": "DM", "USUBJID": "CART-T-PILOT-01-MGH-143", "row": 673, "SEQ": "", "variables": ["ARM", "RFENDTC"], "values": ["Study Treatment", "null"]}, {"core_id": "CORE-000191", "message": "RFENDTC is missing when ARM is provided.", "executability": "fully executable", "dataset": "DM", "USUBJID": "CART-T-PILOT-01-MGH-178", "row": 678, "SEQ": "", "variables": ["ARM", "RFENDTC"], "values": ["Study Treatment", "null"]}, {"core_id": "CORE-000191", "message": "RFENDTC is missing when ARM is provided.", "executability": "fully executable", "dataset": "DM", "USUBJID": "CART-T-PILOT-01-MGH-179", "row": 679, "SEQ": "", "variables": ["ARM", "RFENDTC"], "values": ["Study Treatment", "null"]}, {"core_id": "CORE-000191", "message": "RFENDTC is missing when ARM is provided.", "executability": "fully executable", "dataset": "DM", "USUBJID": "CART-T-PILOT-01-MGH-181", "row": 680, "SEQ": "", "variables": ["ARM", "RFENDTC"], "values": ["Study Treatment", "null"]}, {"core_id": "CORE-000191", "message": "RFENDTC is missing when ARM is provided.", "executability": "fully executable", "dataset": "DM", "USUBJID": "CART-T-PILOT-01-MGH-183", "row": 682, "SEQ": "", "variables": ["ARM", "RFENDTC"], "values": ["Study Treatment", "null"]}, {"core_id": "CORE-000191", "message": "RFENDTC is missing when ARM is provided.", "executability": "fully executable", "dataset": "DM", "USUBJID": "CART-T-PILOT-01-MGH-186", "row": 683, "SEQ": "", "variables": ["ARM", "RFENDTC"], "values": ["Study Treatment", "null"]}, {"core_id": "CORE-000191", "message": "RFENDTC is missing when ARM is provided.", "executability": "fully executable", "dataset": "DM", "USUBJID": "CART-T-PILOT-01-MGH-187", "row": 684, "SEQ": "", "variables": ["ARM", "RFENDTC"], "values": ["Study Treatment", "null"]}, {"core_id": "CORE-000191", "message": "RFENDTC is missing when ARM is provided.", "executability": "fully executable", "dataset": "DM", "USUBJID": "CART-T-PILOT-01-MGH-188", "row": 685, "SEQ": "", "variables": ["ARM", "RFENDTC"], "values": ["Study Treatment", "null"]}, {"core_id": "CORE-000191", "message": "RFENDTC is missing when ARM is provided.", "executability": "fully executable", "dataset": "DM", "USUBJID": "CART-T-PILOT-01-MGH-190", "row": 686, "SEQ": "", "variables": ["ARM", "RFENDTC"], "values": ["Study Treatment", "null"]}, {"core_id": "CORE-000191", "message": "RFENDTC is missing when ARM is provided.", "executability": "fully executable", "dataset": "DM", "USUBJID": "CART-T-PILOT-01-MGH-192", "row": 687, "SEQ": "", "variables": ["ARM", "RFENDTC"], "values": ["Study Treatment", "null"]}, {"core_id": "CORE-000191", "message": "RFENDTC is missing when ARM is provided.", "executability": "fully executable", "dataset": "DM", "USUBJID": "CART-T-PILOT-01-MGH-197", "row": 690, "SEQ": "", "variables": ["ARM", "RFENDTC"], "values": ["Study Treatment", "null"]}, {"core_id": "CORE-000191", "message": "RFENDTC is missing when ARM is provided.", "executability": "fully executable", "dataset": "DM", "USUBJID": "CART-T-PILOT-01-MGH-199", "row": 692, "SEQ": "", "variables": ["ARM", "RFENDTC"], "values": ["Study Treatment", "null"]}, {"core_id": "CORE-000191", "message": "RFENDTC is missing when ARM is provided.", "executability": "fully executable", "dataset": "DM", "USUBJID": "CART-T-PILOT-01-MGH-201", "row": 693, "SEQ": "", "variables": ["ARM", "RFENDTC"], "values": ["Study Treatment", "null"]}, {"core_id": "CORE-000191", "message": "RFENDTC is missing when ARM is provided.", "executability": "fully executable", "dataset": "DM", "USUBJID": "CART-T-PILOT-01-MGH-203", "row": 694, "SEQ": "", "variables": ["ARM", "RFENDTC"], "values": ["Study Treatment", "null"]}, {"core_id": "CORE-000191", "message": "RFENDTC is missing when ARM is provided.", "executability": "fully executable", "dataset": "DM", "USUBJID": "CART-T-PILOT-01-MGH-204", "row": 695, "SEQ": "", "variables": ["ARM", "RFENDTC"], "values": ["Study Treatment", "null"]}, {"core_id": "CORE-000191", "message": "RFENDTC is missing when ARM is provided.", "executability": "fully executable", "dataset": "DM", "USUBJID": "CART-T-PILOT-01-MGH-205", "row": 696, "SEQ": "", "variables": ["ARM", "RFENDTC"], "values": ["Study Treatment", "null"]}, {"core_id": "CORE-000191", "message": "RFENDTC is missing when ARM is provided.", "executability": "fully executable", "dataset": "DM", "USUBJID": "CART-T-PILOT-01-MGH-213", "row": 699, "SEQ": "", "variables": ["ARM", "RFENDTC"], "values": ["Study Treatment", "null"]}, {"core_id": "CORE-000191", "message": "RFENDTC is missing when ARM is provided.", "executability": "fully executable", "dataset": "DM", "USUBJID": "CART-T-PILOT-01-MGH-214", "row": 700, "SEQ": "", "variables": ["ARM", "RFENDTC"], "values": ["Study Treatment", "null"]}, {"core_id": "CORE-000191", "message": "RFENDTC is missing when ARM is provided.", "executability": "fully executable", "dataset": "DM", "USUBJID": "CART-T-PILOT-01-MGH-215", "row": 701, "SEQ": "", "variables": ["ARM", "RFENDTC"], "values": ["Study Treatment", "null"]}, {"core_id": "CORE-000191", "message": "RFENDTC is missing when ARM is provided.", "executability": "fully executable", "dataset": "DM", "USUBJID": "CART-T-PILOT-01-MGH-217", "row": 703, "SEQ": "", "variables": ["ARM", "RFENDTC"], "values": ["Study Treatment", "null"]}, {"core_id": "CORE-000191", "message": "RFENDTC is missing when ARM is provided.", "executability": "fully executable", "dataset": "DM", "USUBJID": "CART-T-PILOT-01-MGH-218", "row": 704, "SEQ": "", "variables": ["ARM", "RFENDTC"], "values": ["Study Treatment", "null"]}, {"core_id": "CORE-000191", "message": "RFENDTC is missing when ARM is provided.", "executability": "fully executable", "dataset": "DM", "USUBJID": "CART-T-PILOT-01-MGH-219", "row": 705, "SEQ": "", "variables": ["ARM", "RFENDTC"], "values": ["Study Treatment", "null"]}, {"core_id": "CORE-000191", "message": "RFENDTC is missing when ARM is provided.", "executability": "fully executable", "dataset": "DM", "USUBJID": "CART-T-PILOT-01-MGH-220", "row": 706, "SEQ": "", "variables": ["ARM", "RFENDTC"], "values": ["Study Treatment", "null"]}, {"core_id": "CORE-000191", "message": "RFENDTC is missing when ARM is provided.", "executability": "fully executable", "dataset": "DM", "USUBJID": "CART-T-PILOT-01-MGH-222", "row": 708, "SEQ": "", "variables": ["ARM", "RFENDTC"], "values": ["Study Treatment", "null"]}, {"core_id": "CORE-000191", "message": "RFENDTC is missing when ARM is provided.", "executability": "fully executable", "dataset": "DM", "USUBJID": "CART-T-PILOT-01-MGH-223", "row": 709, "SEQ": "", "variables": ["ARM", "RFENDTC"], "values": ["Study Treatment", "null"]}, {"core_id": "CORE-000191", "message": "RFENDTC is missing when ARM is provided.", "executability": "fully executable", "dataset": "DM", "USUBJID": "CART-T-PILOT-01-MGH-224", "row": 710, "SEQ": "", "variables": ["ARM", "RFENDTC"], "values": ["Study Treatment", "null"]}, {"core_id": "CORE-000191", "message": "RFENDTC is missing when ARM is provided.", "executability": "fully executable", "dataset": "DM", "USUBJID": "CART-T-PILOT-01-MGH-236", "row": 711, "SEQ": "", "variables": ["ARM", "RFENDTC"], "values": ["Study Treatment", "null"]}, {"core_id": "CORE-000191", "message": "RFENDTC is missing when ARM is provided.", "executability": "fully executable", "dataset": "DM", "USUBJID": "CART-T-PILOT-01-MGH-245", "row": 713, "SEQ": "", "variables": ["ARM", "RFENDTC"], "values": ["Study Treatment", "null"]}, {"core_id": "CORE-000191", "message": "RFENDTC is missing when ARM is provided.", "executability": "fully executable", "dataset": "DM", "USUBJID": "CART-T-PILOT-01-MGH-246", "row": 714, "SEQ": "", "variables": ["ARM", "RFENDTC"], "values": ["Study Treatment", "null"]}, {"core_id": "CORE-000191", "message": "RFENDTC is missing when ARM is provided.", "executability": "fully executable", "dataset": "DM", "USUBJID": "CART-T-PILOT-01-MGH-249", "row": 716, "SEQ": "", "variables": ["ARM", "RFENDTC"], "values": ["Study Treatment", "null"]}, {"core_id": "CORE-000191", "message": "RFENDTC is missing when ARM is provided.", "executability": "fully executable", "dataset": "DM", "USUBJID": "CART-T-PILOT-01-MGH-250", "row": 717, "SEQ": "", "variables": ["ARM", "RFENDTC"], "values": ["Study Treatment", "null"]}, {"core_id": "CORE-000191", "message": "RFENDTC is missing when ARM is provided.", "executability": "fully executable", "dataset": "DM", "USUBJID": "CART-T-PILOT-01-MGH-252", "row": 719, "SEQ": "", "variables": ["ARM", "RFENDTC"], "values": ["Study Treatment", "null"]}, {"core_id": "CORE-000191", "message": "RFENDTC is missing when ARM is provided.", "executability": "fully executable", "dataset": "DM", "USUBJID": "CART-T-PILOT-01-MGH-253", "row": 720, "SEQ": "", "variables": ["ARM", "RFENDTC"], "values": ["Study Treatment", "null"]}, {"core_id": "CORE-000191", "message": "RFENDTC is missing when ARM is provided.", "executability": "fully executable", "dataset": "DM", "USUBJID": "CART-T-PILOT-01-MGH-256", "row": 722, "SEQ": "", "variables": ["ARM", "RFENDTC"], "values": ["Study Treatment", "null"]}, {"core_id": "CORE-000191", "message": "RFENDTC is missing when ARM is provided.", "executability": "fully executable", "dataset": "DM", "USUBJID": "CART-T-PILOT-01-MGH-261", "row": 727, "SEQ": "", "variables": ["ARM", "RFENDTC"], "values": ["Study Treatment", "null"]}, {"core_id": "CORE-000191", "message": "RFENDTC is missing when ARM is provided.", "executability": "fully executable", "dataset": "DM", "USUBJID": "CART-T-PILOT-01-MGH-262", "row": 728, "SEQ": "", "variables": ["ARM", "RFENDTC"], "values": ["Study Treatment", "null"]}, {"core_id": "CORE-000191", "message": "RFENDTC is missing when ARM is provided.", "executability": "fully executable", "dataset": "DM", "USUBJID": "CART-T-PILOT-01-MGH-263", "row": 729, "SEQ": "", "variables": ["ARM", "RFENDTC"], "values": ["Study Treatment", "null"]}, {"core_id": "CORE-000191", "message": "RFENDTC is missing when ARM is provided.", "executability": "fully executable", "dataset": "DM", "USUBJID": "CART-T-PILOT-01-MGH-264", "row": 730, "SEQ": "", "variables": ["ARM", "RFENDTC"], "values": ["Study Treatment", "null"]}, {"core_id": "CORE-000191", "message": "RFENDTC is missing when ARM is provided.", "executability": "fully executable", "dataset": "DM", "USUBJID": "CART-T-PILOT-01-MGH-267", "row": 733, "SEQ": "", "variables": ["ARM", "RFENDTC"], "values": ["Study Treatment", "null"]}, {"core_id": "CORE-000191", "message": "RFENDTC is missing when ARM is provided.", "executability": "fully executable", "dataset": "DM", "USUBJID": "CART-T-PILOT-01-MGH-268", "row": 734, "SEQ": "", "variables": ["ARM", "RFENDTC"], "values": ["Study Treatment", "null"]}, {"core_id": "CORE-000191", "message": "RFENDTC is missing when ARM is provided.", "executability": "fully executable", "dataset": "DM", "USUBJID": "CART-T-PILOT-01-MGH-269", "row": 735, "SEQ": "", "variables": ["ARM", "RFENDTC"], "values": ["Study Treatment", "null"]}, {"core_id": "CORE-000191", "message": "RFENDTC is missing when ARM is provided.", "executability": "fully executable", "dataset": "DM", "USUBJID": "CART-T-PILOT-01-MGH-270", "row": 736, "SEQ": "", "variables": ["ARM", "RFENDTC"], "values": ["Study Treatment", "null"]}, {"core_id": "CORE-000191", "message": "RFENDTC is missing when ARM is provided.", "executability": "fully executable", "dataset": "DM", "USUBJID": "CART-T-PILOT-01-MGH-276", "row": 741, "SEQ": "", "variables": ["ARM", "RFENDTC"], "values": ["Study Treatment", "null"]}, {"core_id": "CORE-000191", "message": "RFENDTC is missing when ARM is provided.", "executability": "fully executable", "dataset": "DM", "USUBJID": "CART-T-PILOT-01-MGH-277", "row": 742, "SEQ": "", "variables": ["ARM", "RFENDTC"], "values": ["Study Treatment", "null"]}, {"core_id": "CORE-000191", "message": "RFENDTC is missing when ARM is provided.", "executability": "fully executable", "dataset": "DM", "USUBJID": "CART-T-PILOT-01-MGH-279", "row": 744, "SEQ": "", "variables": ["ARM", "RFENDTC"], "values": ["Study Treatment", "null"]}, {"core_id": "CORE-000191", "message": "RFENDTC is missing when ARM is provided.", "executability": "fully executable", "dataset": "DM", "USUBJID": "CART-T-PILOT-01-MGH-280", "row": 745, "SEQ": "", "variables": ["ARM", "RFENDTC"], "values": ["Study Treatment", "null"]}, {"core_id": "CORE-000191", "message": "RFENDTC is missing when ARM is provided.", "executability": "fully executable", "dataset": "DM", "USUBJID": "CART-T-PILOT-01-MGH-281", "row": 746, "SEQ": "", "variables": ["ARM", "RFENDTC"], "values": ["Study Treatment", "null"]}, {"core_id": "CORE-000191", "message": "RFENDTC is missing when ARM is provided.", "executability": "fully executable", "dataset": "DM", "USUBJID": "CART-T-PILOT-01-MGH-283", "row": 747, "SEQ": "", "variables": ["ARM", "RFENDTC"], "values": ["Study Treatment", "null"]}, {"core_id": "CORE-000191", "message": "RFENDTC is missing when ARM is provided.", "executability": "fully executable", "dataset": "DM", "USUBJID": "CART-T-PILOT-01-MGH-284", "row": 748, "SEQ": "", "variables": ["ARM", "RFENDTC"], "values": ["Study Treatment", "null"]}, {"core_id": "CORE-000191", "message": "RFENDTC is missing when ARM is provided.", "executability": "fully executable", "dataset": "DM", "USUBJID": "CART-T-PILOT-01-MGH-285", "row": 749, "SEQ": "", "variables": ["ARM", "RFENDTC"], "values": ["Study Treatment", "null"]}, {"core_id": "CORE-000191", "message": "RFENDTC is missing when ARM is provided.", "executability": "fully executable", "dataset": "DM", "USUBJID": "CART-T-PILOT-01-MGH-287", "row": 751, "SEQ": "", "variables": ["ARM", "RFENDTC"], "values": ["Study Treatment", "null"]}, {"core_id": "CORE-000191", "message": "RFENDTC is missing when ARM is provided.", "executability": "fully executable", "dataset": "DM", "USUBJID": "CART-T-PILOT-01-MGH-290", "row": 754, "SEQ": "", "variables": ["ARM", "RFENDTC"], "values": ["Study Treatment", "null"]}, {"core_id": "CORE-000191", "message": "RFENDTC is missing when ARM is provided.", "executability": "fully executable", "dataset": "DM", "USUBJID": "CART-T-PILOT-01-MGH-293", "row": 756, "SEQ": "", "variables": ["ARM", "RFENDTC"], "values": ["Study Treatment", "null"]}, {"core_id": "CORE-000191", "message": "RFENDTC is missing when ARM is provided.", "executability": "fully executable", "dataset": "DM", "USUBJID": "CART-T-PILOT-01-MGH-295", "row": 758, "SEQ": "", "variables": ["ARM", "RFENDTC"], "values": ["Study Treatment", "null"]}, {"core_id": "CORE-000191", "message": "RFENDTC is missing when ARM is provided.", "executability": "fully executable", "dataset": "DM", "USUBJID": "CART-T-PILOT-01-MGH-297", "row": 760, "SEQ": "", "variables": ["ARM", "RFENDTC"], "values": ["Study Treatment", "null"]}, {"core_id": "CORE-000191", "message": "RFENDTC is missing when ARM is provided.", "executability": "fully executable", "dataset": "DM", "USUBJID": "CART-T-PILOT-01-MGH-299", "row": 762, "SEQ": "", "variables": ["ARM", "RFENDTC"], "values": ["Study Treatment", "null"]}, {"core_id": "CORE-000191", "message": "RFENDTC is missing when ARM is provided.", "executability": "fully executable", "dataset": "DM", "USUBJID": "CART-T-PILOT-01-MGH-300", "row": 763, "SEQ": "", "variables": ["ARM", "RFENDTC"], "values": ["Study Treatment", "null"]}, {"core_id": "CORE-000191", "message": "RFENDTC is missing when ARM is provided.", "executability": "fully executable", "dataset": "DM", "USUBJID": "CART-T-PILOT-01-MGH-305", "row": 767, "SEQ": "", "variables": ["ARM", "RFENDTC"], "values": ["Study Treatment", "null"]}, {"core_id": "CORE-000191", "message": "RFENDTC is missing when ARM is provided.", "executability": "fully executable", "dataset": "DM", "USUBJID": "CART-T-PILOT-01-MGH-306", "row": 768, "SEQ": "", "variables": ["ARM", "RFENDTC"], "values": ["Study Treatment", "null"]}, {"core_id": "CORE-000191", "message": "RFENDTC is missing when ARM is provided.", "executability": "fully executable", "dataset": "DM", "USUBJID": "CART-T-PILOT-01-MGH-308", "row": 770, "SEQ": "", "variables": ["ARM", "RFENDTC"], "values": ["Study Treatment", "null"]}, {"core_id": "CORE-000191", "message": "RFENDTC is missing when ARM is provided.", "executability": "fully executable", "dataset": "DM", "USUBJID": "CART-T-PILOT-01-MGH-309", "row": 771, "SEQ": "", "variables": ["ARM", "RFENDTC"], "values": ["Study Treatment", "null"]}, {"core_id": "CORE-000191", "message": "RFENDTC is missing when ARM is provided.", "executability": "fully executable", "dataset": "DM", "USUBJID": "CART-T-PILOT-01-MGH-314", "row": 774, "SEQ": "", "variables": ["ARM", "RFENDTC"], "values": ["Study Treatment", "null"]}, {"core_id": "CORE-000191", "message": "RFENDTC is missing when ARM is provided.", "executability": "fully executable", "dataset": "DM", "USUBJID": "CART-T-PILOT-01-SJ01-001", "row": 776, "SEQ": "", "variables": ["ARM", "RFENDTC"], "values": ["Study Treatment", "null"]}, {"core_id": "CORE-000191", "message": "RFENDTC is missing when ARM is provided.", "executability": "fully executable", "dataset": "DM", "USUBJID": "CART-T-PILOT-01-S_DF(TEST)-614098", "row": 777, "SEQ": "", "variables": ["ARM", "RFENDTC"], "values": ["Study Treatment", "null"]}, {"core_id": "CORE-000191", "message": "RFENDTC is missing when ARM is provided.", "executability": "fully executable", "dataset": "DM", "USUBJID": "CART-T-PILOT-01-ZZ01-001", "row": 778, "SEQ": "", "variables": ["ARM", "RFENDTC"], "values": ["Study Treatment", "null"]}, {"core_id": "CORE-000191", "message": "RFENDTC is missing when ARM is provided.", "executability": "fully executable", "dataset": "DM", "USUBJID": "CART-T-PILOT-01-ZZ01-002", "row": 779, "SEQ": "", "variables": ["ARM", "RFENDTC"], "values": ["Study Treatment", "null"]}, {"core_id": "CORE-000191", "message": "RFENDTC is missing when ARM is provided.", "executability": "fully executable", "dataset": "DM", "USUBJID": "CART-T-PILOT-01-ZZ01-010", "row": 783, "SEQ": "", "variables": ["ARM", "RFENDTC"], "values": ["Study Treatment", "null"]}, {"core_id": "CORE-000191", "message": "RFENDTC is missing when ARM is provided.", "executability": "fully executable", "dataset": "DM", "USUBJID": "CART-T-PILOT-01-ZZ01-011", "row": 784, "SEQ": "", "variables": ["ARM", "RFENDTC"], "values": ["Study Treatment", "null"]}, {"core_id": "CORE-000191", "message": "RFENDTC is missing when ARM is provided.", "executability": "fully executable", "dataset": "DM", "USUBJID": "CART-T-PILOT-01-ZZ01-012", "row": 785, "SEQ": "", "variables": ["ARM", "RFENDTC"], "values": ["Study Treatment", "null"]}, {"core_id": "CORE-000191", "message": "RFENDTC is missing when ARM is provided.", "executability": "fully executable", "dataset": "DM", "USUBJID": "CART-T-PILOT-01-ZZ01-014", "row": 787, "SEQ": "", "variables": ["ARM", "RFENDTC"], "values": ["Study Treatment", "null"]}, {"core_id": "CORE-000191", "message": "RFENDTC is missing when ARM is provided.", "executability": "fully executable", "dataset": "DM", "USUBJID": "CART-T-PILOT-01-ZZ01-015", "row": 788, "SEQ": "", "variables": ["ARM", "RFENDTC"], "values": ["Study Treatment", "null"]}, {"core_id": "CORE-000191", "message": "RFENDTC is missing when ARM is provided.", "executability": "fully executable", "dataset": "DM", "USUBJID": "CART-T-PILOT-01-ZZ01-020", "row": 793, "SEQ": "", "variables": ["ARM", "RFENDTC"], "values": ["Study Treatment", "null"]}, {"core_id": "CORE-000191", "message": "RFENDTC is missing when ARM is provided.", "executability": "fully executable", "dataset": "DM", "USUBJID": "CART-T-PILOT-01-ZZ01-034", "row": 804, "SEQ": "", "variables": ["ARM", "RFENDTC"], "values": ["Study Treatment", "null"]}, {"core_id": "CORE-000253", "message": "AESDTH is 'Y' in AE dataset, but DTHFL in DM dataset is not \"Y\".", "executability": "fully executable", "dataset": "DM", "USUBJID": "CART-T-PILOT-01-DF-010", "row": 127, "SEQ": "", "variables": ["AESDTH", "DTHFL"], "values": ["Y", "null"]}, {"core_id": "CORE-000254", "message": "AEOUT is 'FATAL' in AE dataset, but DTHFL in DM dataset is not \"Y\".", "executability": "fully executable", "dataset": "DM", "USUBJID": "CART-T-PILOT-01-DF-010", "row": 127, "SEQ": "", "variables": ["DTHFL", "AEOUT"], "values": ["null", "FATAL"]}, {"core_id": "CORE-000264", "message": "Primary analysis used but AEBODSYS and AESOC are not equal", "executability": "fully executable", "dataset": "AE", "USUBJID": "CART-T-PILOT-01-1234-001", "row": 1, "SEQ": 1, "variables": ["AETERM", "AEBODSYS", "AESOC"], "values": ["headache", "null", "Not in dataset"]}, {"core_id": "CORE-000264", "message": "Primary analysis used but AEBODSYS and AESOC are not equal", "executability": "fully executable", "dataset": "AE", "USUBJID": "CART-T-PILOT-01-1234-005", "row": 2, "SEQ": 1, "variables": ["AETERM", "AEBODSYS", "AESOC"], "values": ["Sore Gums", "null", "Not in dataset"]}, {"core_id": "CORE-000264", "message": "Primary analysis used but AEBODSYS and AESOC are not equal", "executability": "fully executable", "dataset": "AE", "USUBJID": "CART-T-PILOT-01-2020-482472-12-001", "row": 3, "SEQ": 1, "variables": ["AETERM", "AEBODSYS", "AESOC"], "values": ["test", "null", "Not in dataset"]}, {"core_id": "CORE-000264", "message": "Primary analysis used but AEBODSYS and AESOC are not equal", "executability": "fully executable", "dataset": "AE", "USUBJID": "CART-T-PILOT-01-213", "row": 4, "SEQ": 1, "variables": ["AETERM", "AEBODSYS", "AESOC"], "values": ["headache", "null", "Not in dataset"]}, {"core_id": "CORE-000264", "message": "Primary analysis used but AEBODSYS and AESOC are not equal", "executability": "fully executable", "dataset": "AE", "USUBJID": "CART-T-PILOT-01-257", "row": 5, "SEQ": 1, "variables": ["AETERM", "AEBODSYS", "AESOC"], "values": ["headache", "null", "Not in dataset"]}, {"core_id": "CORE-000264", "message": "Primary analysis used but AEBODSYS and AESOC are not equal", "executability": "fully executable", "dataset": "AE", "USUBJID": "CART-T-PILOT-01-CART2020-012", "row": 6, "SEQ": 1, "variables": ["AETERM", "AEBODSYS", "AESOC"], "values": ["earache", "null", "Not in dataset"]}, {"core_id": "CORE-000264", "message": "Primary analysis used but AEBODSYS and AESOC are not equal", "executability": "fully executable", "dataset": "AE", "USUBJID": "CART-T-PILOT-01-CART2020-021", "row": 7, "SEQ": 1, "variables": ["AETERM", "AEBODSYS", "AESOC"], "values": ["Headache", "null", "Not in dataset"]}, {"core_id": "CORE-000264", "message": "Primary analysis used but AEBODSYS and AESOC are not equal", "executability": "fully executable", "dataset": "AE", "USUBJID": "CART-T-PILOT-01-CART2020-022", "row": 8, "SEQ": 1, "variables": ["AETERM", "AEBODSYS", "AESOC"], "values": ["Headache", "null", "Not in dataset"]}, {"core_id": "CORE-000264", "message": "Primary analysis used but AEBODSYS and AESOC are not equal", "executability": "fully executable", "dataset": "AE", "USUBJID": "CART-T-PILOT-01-CART2020-023", "row": 9, "SEQ": 1, "variables": ["AETERM", "AEBODSYS", "AESOC"], "values": ["Headache", "null", "Not in dataset"]}, {"core_id": "CORE-000264", "message": "Primary analysis used but AEBODSYS and AESOC are not equal", "executability": "fully executable", "dataset": "AE", "USUBJID": "CART-T-PILOT-01-CART2020-029", "row": 10, "SEQ": 1, "variables": ["AETERM", "AEBODSYS", "AESOC"], "values": ["Headache", "null", "Not in dataset"]}, {"core_id": "CORE-000264", "message": "Primary analysis used but AEBODSYS and AESOC are not equal", "executability": "fully executable", "dataset": "AE", "USUBJID": "CART-T-PILOT-01-CART2020-031", "row": 11, "SEQ": 1, "variables": ["AETERM", "AEBODSYS", "AESOC"], "values": ["Headache", "null", "Not in dataset"]}, {"core_id": "CORE-000264", "message": "Primary analysis used but AEBODSYS and AESOC are not equal", "executability": "fully executable", "dataset": "AE", "USUBJID": "CART-T-PILOT-01-CART2020-061", "row": 12, "SEQ": 1, "variables": ["AETERM", "AEBODSYS", "AESOC"], "values": ["Hypertension", "null", "Not in dataset"]}, {"core_id": "CORE-000264", "message": "Primary analysis used but AEBODSYS and AESOC are not equal", "executability": "fully executable", "dataset": "AE", "USUBJID": "CART-T-PILOT-01-CART2020-062", "row": 13, "SEQ": 1, "variables": ["AETERM", "AEBODSYS", "AESOC"], "values": ["headache", "null", "Not in dataset"]}, {"core_id": "CORE-000264", "message": "Primary analysis used but AEBODSYS and AESOC are not equal", "executability": "fully executable", "dataset": "AE", "USUBJID": "CART-T-PILOT-01-CART2020-063", "row": 14, "SEQ": 1, "variables": ["AETERM", "AEBODSYS", "AESOC"], "values": ["headache", "null", "Not in dataset"]}, {"core_id": "CORE-000264", "message": "Primary analysis used but AEBODSYS and AESOC are not equal", "executability": "fully executable", "dataset": "AE", "USUBJID": "CART-T-PILOT-01-CNH-001", "row": 15, "SEQ": 1, "variables": ["AETERM", "AEBODSYS", "AESOC"], "values": ["headache", "null", "Not in dataset"]}, {"core_id": "CORE-000264", "message": "Primary analysis used but AEBODSYS and AESOC are not equal", "executability": "fully executable", "dataset": "AE", "USUBJID": "CART-T-PILOT-01-CNH-002", "row": 16, "SEQ": 1, "variables": ["AETERM", "AEBODSYS", "AESOC"], "values": ["headache", "null", "Not in dataset"]}, {"core_id": "CORE-000264", "message": "Primary analysis used but AEBODSYS and AESOC are not equal", "executability": "fully executable", "dataset": "AE", "USUBJID": "CART-T-PILOT-01-CNH-004", "row": 17, "SEQ": 1, "variables": ["AETERM", "AEBODSYS", "AESOC"], "values": ["headache", "null", "Not in dataset"]}, {"core_id": "CORE-000264", "message": "Primary analysis used but AEBODSYS and AESOC are not equal", "executability": "fully executable", "dataset": "AE", "USUBJID": "CART-T-PILOT-01-CNH-005", "row": 18, "SEQ": 1, "variables": ["AETERM", "AEBODSYS", "AESOC"], "values": ["headache", "null", "Not in dataset"]}, {"core_id": "CORE-000264", "message": "Primary analysis used but AEBODSYS and AESOC are not equal", "executability": "fully executable", "dataset": "AE", "USUBJID": "CART-T-PILOT-01-CNH-011", "row": 19, "SEQ": 1, "variables": ["AETERM", "AEBODSYS", "AESOC"], "values": ["migraine", "null", "Not in dataset"]}, {"core_id": "CORE-000264", "message": "Primary analysis used but AEBODSYS and AESOC are not equal", "executability": "fully executable", "dataset": "AE", "USUBJID": "CART-T-PILOT-01-DF-001", "row": 20, "SEQ": 1, "variables": ["AETERM", "AEBODSYS", "AESOC"], "values": ["nausea", "null", "Not in dataset"]}, {"core_id": "CORE-000264", "message": "Primary analysis used but AEBODSYS and AESOC are not equal", "executability": "fully executable", "dataset": "AE", "USUBJID": "CART-T-PILOT-01-DF-005", "row": 21, "SEQ": 1, "variables": ["AETERM", "AEBODSYS", "AESOC"], "values": ["Headache", "null", "Not in dataset"]}, {"core_id": "CORE-000264", "message": "Primary analysis used but AEBODSYS and AESOC are not equal", "executability": "fully executable", "dataset": "AE", "USUBJID": "CART-T-PILOT-01-DF-007", "row": 22, "SEQ": 1, "variables": ["AETERM", "AEBODSYS", "AESOC"], "values": ["Headache", "null", "Not in dataset"]}, {"core_id": "CORE-000264", "message": "Primary analysis used but AEBODSYS and AESOC are not equal", "executability": "fully executable", "dataset": "AE", "USUBJID": "CART-T-PILOT-01-DF-008", "row": 23, "SEQ": 1, "variables": ["AETERM", "AEBODSYS", "AESOC"], "values": ["hypotension", "null", "Not in dataset"]}, {"core_id": "CORE-000264", "message": "Primary analysis used but AEBODSYS and AESOC are not equal", "executability": "fully executable", "dataset": "AE", "USUBJID": "CART-T-PILOT-01-DF-010", "row": 24, "SEQ": 1, "variables": ["AETERM", "AEBODSYS", "AESOC"], "values": ["b", "null", "Not in dataset"]}, {"core_id": "CORE-000264", "message": "Primary analysis used but AEBODSYS and AESOC are not equal", "executability": "fully executable", "dataset": "AE", "USUBJID": "CART-T-PILOT-01-DF-011", "row": 25, "SEQ": 1, "variables": ["AETERM", "AEBODSYS", "AESOC"], "values": ["hypotension", "null", "Not in dataset"]}, {"core_id": "CORE-000264", "message": "Primary analysis used but AEBODSYS and AESOC are not equal", "executability": "fully executable", "dataset": "AE", "USUBJID": "CART-T-PILOT-01-DF-012", "row": 26, "SEQ": 1, "variables": ["AETERM", "AEBODSYS", "AESOC"], "values": ["Headache", "null", "Not in dataset"]}, {"core_id": "CORE-000264", "message": "Primary analysis used but AEBODSYS and AESOC are not equal", "executability": "fully executable", "dataset": "AE", "USUBJID": "CART-T-PILOT-01-DF-015", "row": 27, "SEQ": 1, "variables": ["AETERM", "AEBODSYS", "AESOC"], "values": ["Headache", "null", "Not in dataset"]}, {"core_id": "CORE-000264", "message": "Primary analysis used but AEBODSYS and AESOC are not equal", "executability": "fully executable", "dataset": "AE", "USUBJID": "CART-T-PILOT-01-DF-020", "row": 28, "SEQ": 1, "variables": ["AETERM", "AEBODSYS", "AESOC"], "values": ["Headache", "null", "Not in dataset"]}, {"core_id": "CORE-000264", "message": "Primary analysis used but AEBODSYS and AESOC are not equal", "executability": "fully executable", "dataset": "AE", "USUBJID": "CART-T-PILOT-01-DF-022", "row": 29, "SEQ": 1, "variables": ["AETERM", "AEBODSYS", "AESOC"], "values": ["Headache", "null", "Not in dataset"]}, {"core_id": "CORE-000264", "message": "Primary analysis used but AEBODSYS and AESOC are not equal", "executability": "fully executable", "dataset": "AE", "USUBJID": "CART-T-PILOT-01-DF-027", "row": 30, "SEQ": 1, "variables": ["AETERM", "AEBODSYS", "AESOC"], "values": ["Hypotension", "null", "Not in dataset"]}, {"core_id": "CORE-000264", "message": "Primary analysis used but AEBODSYS and AESOC are not equal", "executability": "fully executable", "dataset": "AE", "USUBJID": "CART-T-PILOT-01-DF-031", "row": 31, "SEQ": 1, "variables": ["AETERM", "AEBODSYS", "AESOC"], "values": ["Depression", "null", "Not in dataset"]}, {"core_id": "CORE-000264", "message": "Primary analysis used but AEBODSYS and AESOC are not equal", "executability": "fully executable", "dataset": "AE", "USUBJID": "CART-T-PILOT-01-DF-032", "row": 32, "SEQ": 1, "variables": ["AETERM", "AEBODSYS", "AESOC"], "values": ["Anxiety", "null", "Not in dataset"]}, {"core_id": "CORE-000264", "message": "Primary analysis used but AEBODSYS and AESOC are not equal", "executability": "fully executable", "dataset": "AE", "USUBJID": "CART-T-PILOT-01-DF-033", "row": 33, "SEQ": 1, "variables": ["AETERM", "AEBODSYS", "AESOC"], "values": ["Syncope", "null", "Not in dataset"]}, {"core_id": "CORE-000264", "message": "Primary analysis used but AEBODSYS and AESOC are not equal", "executability": "fully executable", "dataset": "AE", "USUBJID": "CART-T-PILOT-01-DF-034", "row": 34, "SEQ": 1, "variables": ["AETERM", "AEBODSYS", "AESOC"], "values": ["hypotension", "null", "Not in dataset"]}, {"core_id": "CORE-000264", "message": "Primary analysis used but AEBODSYS and AESOC are not equal", "executability": "fully executable", "dataset": "AE", "USUBJID": "CART-T-PILOT-01-DF-036", "row": 35, "SEQ": 1, "variables": ["AETERM", "AEBODSYS", "AESOC"], "values": ["Diahhrhea", "null", "Not in dataset"]}, {"core_id": "CORE-000264", "message": "Primary analysis used but AEBODSYS and AESOC are not equal", "executability": "fully executable", "dataset": "AE", "USUBJID": "CART-T-PILOT-01-DF-041", "row": 36, "SEQ": 1, "variables": ["AETERM", "AEBODSYS", "AESOC"], "values": ["mycardio infraction", "null", "Not in dataset"]}, {"core_id": "CORE-000264", "message": "Primary analysis used but AEBODSYS and AESOC are not equal", "executability": "fully executable", "dataset": "AE", "USUBJID": "CART-T-PILOT-01-DF-043", "row": 37, "SEQ": 1, "variables": ["AETERM", "AEBODSYS", "AESOC"], "values": ["COVID", "null", "Not in dataset"]}, {"core_id": "CORE-000264", "message": "Primary analysis used but AEBODSYS and AESOC are not equal", "executability": "fully executable", "dataset": "AE", "USUBJID": "CART-T-PILOT-01-DF-046", "row": 38, "SEQ": 1, "variables": ["AETERM", "AEBODSYS", "AESOC"], "values": ["Hypotension", "null", "Not in dataset"]}, {"core_id": "CORE-000264", "message": "Primary analysis used but AEBODSYS and AESOC are not equal", "executability": "fully executable", "dataset": "AE", "USUBJID": "CART-T-PILOT-01-DF-047", "row": 39, "SEQ": 1, "variables": ["AETERM", "AEBODSYS", "AESOC"], "values": ["hypotension", "null", "Not in dataset"]}, {"core_id": "CORE-000264", "message": "Primary analysis used but AEBODSYS and AESOC are not equal", "executability": "fully executable", "dataset": "AE", "USUBJID": "CART-T-PILOT-01-DF-049", "row": 40, "SEQ": 1, "variables": ["AETERM", "AEBODSYS", "AESOC"], "values": ["Hypotension", "null", "Not in dataset"]}, {"core_id": "CORE-000264", "message": "Primary analysis used but AEBODSYS and AESOC are not equal", "executability": "fully executable", "dataset": "AE", "USUBJID": "CART-T-PILOT-01-DF-050", "row": 41, "SEQ": 1, "variables": ["AETERM", "AEBODSYS", "AESOC"], "values": ["Thrombosis", "null", "Not in dataset"]}, {"core_id": "CORE-000264", "message": "Primary analysis used but AEBODSYS and AESOC are not equal", "executability": "fully executable", "dataset": "AE", "USUBJID": "CART-T-PILOT-01-DF-054", "row": 42, "SEQ": 1, "variables": ["AETERM", "AEBODSYS", "AESOC"], "values": ["Hypotension", "null", "Not in dataset"]}, {"core_id": "CORE-000264", "message": "Primary analysis used but AEBODSYS and AESOC are not equal", "executability": "fully executable", "dataset": "AE", "USUBJID": "CART-T-PILOT-01-DF-056", "row": 43, "SEQ": 1, "variables": ["AETERM", "AEBODSYS", "AESOC"], "values": ["Hypotension", "null", "Not in dataset"]}, {"core_id": "CORE-000264", "message": "Primary analysis used but AEBODSYS and AESOC are not equal", "executability": "fully executable", "dataset": "AE", "USUBJID": "CART-T-PILOT-01-DF-057", "row": 44, "SEQ": 1, "variables": ["AETERM", "AEBODSYS", "AESOC"], "values": ["MI", "null", "Not in dataset"]}, {"core_id": "CORE-000264", "message": "Primary analysis used but AEBODSYS and AESOC are not equal", "executability": "fully executable", "dataset": "AE", "USUBJID": "CART-T-PILOT-01-DF-063", "row": 45, "SEQ": 1, "variables": ["AETERM", "AEBODSYS", "AESOC"], "values": ["Hypotension", "null", "Not in dataset"]}, {"core_id": "CORE-000264", "message": "Primary analysis used but AEBODSYS and AESOC are not equal", "executability": "fully executable", "dataset": "AE", "USUBJID": "CART-T-PILOT-01-DF-065", "row": 46, "SEQ": 1, "variables": ["AETERM", "AEBODSYS", "AESOC"], "values": ["Hypotension", "null", "Not in dataset"]}, {"core_id": "CORE-000264", "message": "Primary analysis used but AEBODSYS and AESOC are not equal", "executability": "fully executable", "dataset": "AE", "USUBJID": "CART-T-PILOT-01-DF-069", "row": 47, "SEQ": 1, "variables": ["AETERM", "AEBODSYS", "AESOC"], "values": ["Hypotension", "null", "Not in dataset"]}, {"core_id": "CORE-000264", "message": "Primary analysis used but AEBODSYS and AESOC are not equal", "executability": "fully executable", "dataset": "AE", "USUBJID": "CART-T-PILOT-01-DF-073", "row": 48, "SEQ": 1, "variables": ["AETERM", "AEBODSYS", "AESOC"], "values": ["Hypotension", "null", "Not in dataset"]}, {"core_id": "CORE-000264", "message": "Primary analysis used but AEBODSYS and AESOC are not equal", "executability": "fully executable", "dataset": "AE", "USUBJID": "CART-T-PILOT-01-DF-074", "row": 49, "SEQ": 1, "variables": ["AETERM", "AEBODSYS", "AESOC"], "values": ["Headache", "null", "Not in dataset"]}, {"core_id": "CORE-000264", "message": "Primary analysis used but AEBODSYS and AESOC are not equal", "executability": "fully executable", "dataset": "AE", "USUBJID": "CART-T-PILOT-01-DF-075", "row": 50, "SEQ": 1, "variables": ["AETERM", "AEBODSYS", "AESOC"], "values": ["headache", "null", "Not in dataset"]}, {"core_id": "CORE-000264", "message": "Primary analysis used but AEBODSYS and AESOC are not equal", "executability": "fully executable", "dataset": "AE", "USUBJID": "CART-T-PILOT-01-DF-077", "row": 51, "SEQ": 1, "variables": ["AETERM", "AEBODSYS", "AESOC"], "values": ["MI", "null", "Not in dataset"]}, {"core_id": "CORE-000264", "message": "Primary analysis used but AEBODSYS and AESOC are not equal", "executability": "fully executable", "dataset": "AE", "USUBJID": "CART-T-PILOT-01-DF-078", "row": 52, "SEQ": 1, "variables": ["AETERM", "AEBODSYS", "AESOC"], "values": ["MI", "null", "Not in dataset"]}, {"core_id": "CORE-000264", "message": "Primary analysis used but AEBODSYS and AESOC are not equal", "executability": "fully executable", "dataset": "AE", "USUBJID": "CART-T-PILOT-01-DF-083", "row": 53, "SEQ": 1, "variables": ["AETERM", "AEBODSYS", "AESOC"], "values": ["Hypotension", "null", "Not in dataset"]}, {"core_id": "CORE-000264", "message": "Primary analysis used but AEBODSYS and AESOC are not equal", "executability": "fully executable", "dataset": "AE", "USUBJID": "CART-T-PILOT-01-DF-085", "row": 54, "SEQ": 1, "variables": ["AETERM", "AEBODSYS", "AESOC"], "values": ["Fever", "null", "Not in dataset"]}, {"core_id": "CORE-000264", "message": "Primary analysis used but AEBODSYS and AESOC are not equal", "executability": "fully executable", "dataset": "AE", "USUBJID": "CART-T-PILOT-01-DF-086", "row": 55, "SEQ": 1, "variables": ["AETERM", "AEBODSYS", "AESOC"], "values": ["hypotension", "null", "Not in dataset"]}, {"core_id": "CORE-000264", "message": "Primary analysis used but AEBODSYS and AESOC are not equal", "executability": "fully executable", "dataset": "AE", "USUBJID": "CART-T-PILOT-01-DF-088", "row": 56, "SEQ": 1, "variables": ["AETERM", "AEBODSYS", "AESOC"], "values": ["Hypotension", "null", "Not in dataset"]}, {"core_id": "CORE-000264", "message": "Primary analysis used but AEBODSYS and AESOC are not equal", "executability": "fully executable", "dataset": "AE", "USUBJID": "CART-T-PILOT-01-DF-092", "row": 57, "SEQ": 1, "variables": ["AETERM", "AEBODSYS", "AESOC"], "values": ["Hypotension", "null", "Not in dataset"]}, {"core_id": "CORE-000264", "message": "Primary analysis used but AEBODSYS and AESOC are not equal", "executability": "fully executable", "dataset": "AE", "USUBJID": "CART-T-PILOT-01-DF-094", "row": 58, "SEQ": 1, "variables": ["AETERM", "AEBODSYS", "AESOC"], "values": ["Fever", "null", "Not in dataset"]}, {"core_id": "CORE-000264", "message": "Primary analysis used but AEBODSYS and AESOC are not equal", "executability": "fully executable", "dataset": "AE", "USUBJID": "CART-T-PILOT-01-DF-095", "row": 59, "SEQ": 1, "variables": ["AETERM", "AEBODSYS", "AESOC"], "values": ["Hypotension", "null", "Not in dataset"]}, {"core_id": "CORE-000264", "message": "Primary analysis used but AEBODSYS and AESOC are not equal", "executability": "fully executable", "dataset": "AE", "USUBJID": "CART-T-PILOT-01-DF-096", "row": 60, "SEQ": 1, "variables": ["AETERM", "AEBODSYS", "AESOC"], "values": ["Hypertension", "null", "Not in dataset"]}, {"core_id": "CORE-000264", "message": "Primary analysis used but AEBODSYS and AESOC are not equal", "executability": "fully executable", "dataset": "AE", "USUBJID": "CART-T-PILOT-01-DF-098", "row": 61, "SEQ": 1, "variables": ["AETERM", "AEBODSYS", "AESOC"], "values": ["Hypotension", "null", "Not in dataset"]}, {"core_id": "CORE-000264", "message": "Primary analysis used but AEBODSYS and AESOC are not equal", "executability": "fully executable", "dataset": "AE", "USUBJID": "CART-T-PILOT-01-DF-102", "row": 62, "SEQ": 1, "variables": ["AETERM", "AEBODSYS", "AESOC"], "values": ["dizzy", "null", "Not in dataset"]}, {"core_id": "CORE-000264", "message": "Primary analysis used but AEBODSYS and AESOC are not equal", "executability": "fully executable", "dataset": "AE", "USUBJID": "CART-T-PILOT-01-DF-104", "row": 63, "SEQ": 1, "variables": ["AETERM", "AEBODSYS", "AESOC"], "values": ["Hypotension", "null", "Not in dataset"]}, {"core_id": "CORE-000264", "message": "Primary analysis used but AEBODSYS and AESOC are not equal", "executability": "fully executable", "dataset": "AE", "USUBJID": "CART-T-PILOT-01-DF-111", "row": 64, "SEQ": 1, "variables": ["AETERM", "AEBODSYS", "AESOC"], "values": ["Headache", "null", "Not in dataset"]}, {"core_id": "CORE-000264", "message": "Primary analysis used but AEBODSYS and AESOC are not equal", "executability": "fully executable", "dataset": "AE", "USUBJID": "CART-T-PILOT-01-DF-112", "row": 65, "SEQ": 1, "variables": ["AETERM", "AEBODSYS", "AESOC"], "values": ["Hypotension", "null", "Not in dataset"]}, {"core_id": "CORE-000264", "message": "Primary analysis used but AEBODSYS and AESOC are not equal", "executability": "fully executable", "dataset": "AE", "USUBJID": "CART-T-PILOT-01-DF-113", "row": 66, "SEQ": 1, "variables": ["AETERM", "AEBODSYS", "AESOC"], "values": ["dizzy", "null", "Not in dataset"]}, {"core_id": "CORE-000264", "message": "Primary analysis used but AEBODSYS and AESOC are not equal", "executability": "fully executable", "dataset": "AE", "USUBJID": "CART-T-PILOT-01-DF-115", "row": 67, "SEQ": 1, "variables": ["AETERM", "AEBODSYS", "AESOC"], "values": ["HEadache", "null", "Not in dataset"]}, {"core_id": "CORE-000264", "message": "Primary analysis used but AEBODSYS and AESOC are not equal", "executability": "fully executable", "dataset": "AE", "USUBJID": "CART-T-PILOT-01-DF-117", "row": 68, "SEQ": 1, "variables": ["AETERM", "AEBODSYS", "AESOC"], "values": ["Headache", "null", "Not in dataset"]}, {"core_id": "CORE-000264", "message": "Primary analysis used but AEBODSYS and AESOC are not equal", "executability": "fully executable", "dataset": "AE", "USUBJID": "CART-T-PILOT-01-DF-118", "row": 69, "SEQ": 1, "variables": ["AETERM", "AEBODSYS", "AESOC"], "values": ["Headache", "null", "Not in dataset"]}, {"core_id": "CORE-000264", "message": "Primary analysis used but AEBODSYS and AESOC are not equal", "executability": "fully executable", "dataset": "AE", "USUBJID": "CART-T-PILOT-01-DF-120", "row": 70, "SEQ": 1, "variables": ["AETERM", "AEBODSYS", "AESOC"], "values": ["hypotension", "null", "Not in dataset"]}, {"core_id": "CORE-000264", "message": "Primary analysis used but AEBODSYS and AESOC are not equal", "executability": "fully executable", "dataset": "AE", "USUBJID": "CART-T-PILOT-01-DF-122", "row": 71, "SEQ": 1, "variables": ["AETERM", "AEBODSYS", "AESOC"], "values": ["Broken leg", "null", "Not in dataset"]}, {"core_id": "CORE-000264", "message": "Primary analysis used but AEBODSYS and AESOC are not equal", "executability": "fully executable", "dataset": "AE", "USUBJID": "CART-T-PILOT-01-DF-123", "row": 72, "SEQ": 1, "variables": ["AETERM", "AEBODSYS", "AESOC"], "values": ["hypotension", "null", "Not in dataset"]}, {"core_id": "CORE-000264", "message": "Primary analysis used but AEBODSYS and AESOC are not equal", "executability": "fully executable", "dataset": "AE", "USUBJID": "CART-T-PILOT-01-DF-124", "row": 73, "SEQ": 1, "variables": ["AETERM", "AEBODSYS", "AESOC"], "values": ["Headache", "null", "Not in dataset"]}, {"core_id": "CORE-000264", "message": "Primary analysis used but AEBODSYS and AESOC are not equal", "executability": "fully executable", "dataset": "AE", "USUBJID": "CART-T-PILOT-01-DF-129", "row": 74, "SEQ": 1, "variables": ["AETERM", "AEBODSYS", "AESOC"], "values": ["Headache", "null", "Not in dataset"]}, {"core_id": "CORE-000264", "message": "Primary analysis used but AEBODSYS and AESOC are not equal", "executability": "fully executable", "dataset": "AE", "USUBJID": "CART-T-PILOT-01-DF-131", "row": 75, "SEQ": 1, "variables": ["AETERM", "AEBODSYS", "AESOC"], "values": ["hypotension", "null", "Not in dataset"]}, {"core_id": "CORE-000264", "message": "Primary analysis used but AEBODSYS and AESOC are not equal", "executability": "fully executable", "dataset": "AE", "USUBJID": "CART-T-PILOT-01-DF-143", "row": 76, "SEQ": 1, "variables": ["AETERM", "AEBODSYS", "AESOC"], "values": ["headache", "null", "Not in dataset"]}, {"core_id": "CORE-000264", "message": "Primary analysis used but AEBODSYS and AESOC are not equal", "executability": "fully executable", "dataset": "AE", "USUBJID": "CART-T-PILOT-01-DF-144", "row": 77, "SEQ": 1, "variables": ["AETERM", "AEBODSYS", "AESOC"], "values": ["Headache", "null", "Not in dataset"]}, {"core_id": "CORE-000264", "message": "Primary analysis used but AEBODSYS and AESOC are not equal", "executability": "fully executable", "dataset": "AE", "USUBJID": "CART-T-PILOT-01-DF-160", "row": 78, "SEQ": 1, "variables": ["AETERM", "AEBODSYS", "AESOC"], "values": ["Headache", "null", "Not in dataset"]}, {"core_id": "CORE-000264", "message": "Primary analysis used but AEBODSYS and AESOC are not equal", "executability": "fully executable", "dataset": "AE", "USUBJID": "CART-T-PILOT-01-DF-162", "row": 79, "SEQ": 1, "variables": ["AETERM", "AEBODSYS", "AESOC"], "values": ["Headache", "null", "Not in dataset"]}, {"core_id": "CORE-000264", "message": "Primary analysis used but AEBODSYS and AESOC are not equal", "executability": "fully executable", "dataset": "AE", "USUBJID": "CART-T-PILOT-01-DF-163", "row": 80, "SEQ": 1, "variables": ["AETERM", "AEBODSYS", "AESOC"], "values": ["Headache", "null", "Not in dataset"]}, {"core_id": "CORE-000264", "message": "Primary analysis used but AEBODSYS and AESOC are not equal", "executability": "fully executable", "dataset": "AE", "USUBJID": "CART-T-PILOT-01-DF-167", "row": 81, "SEQ": 1, "variables": ["AETERM", "AEBODSYS", "AESOC"], "values": ["MI", "null", "Not in dataset"]}, {"core_id": "CORE-000264", "message": "Primary analysis used but AEBODSYS and AESOC are not equal", "executability": "fully executable", "dataset": "AE", "USUBJID": "CART-T-PILOT-01-DF-170", "row": 82, "SEQ": 1, "variables": ["AETERM", "AEBODSYS", "AESOC"], "values": ["Stroke", "null", "Not in dataset"]}, {"core_id": "CORE-000264", "message": "Primary analysis used but AEBODSYS and AESOC are not equal", "executability": "fully executable", "dataset": "AE", "USUBJID": "CART-T-PILOT-01-DF-172", "row": 83, "SEQ": 1, "variables": ["AETERM", "AEBODSYS", "AESOC"], "values": ["Backache", "null", "Not in dataset"]}, {"core_id": "CORE-000264", "message": "Primary analysis used but AEBODSYS and AESOC are not equal", "executability": "fully executable", "dataset": "AE", "USUBJID": "CART-T-PILOT-01-DF-175", "row": 84, "SEQ": 1, "variables": ["AETERM", "AEBODSYS", "AESOC"], "values": ["Headache", "null", "Not in dataset"]}, {"core_id": "CORE-000264", "message": "Primary analysis used but AEBODSYS and AESOC are not equal", "executability": "fully executable", "dataset": "AE", "USUBJID": "CART-T-PILOT-01-DF-178", "row": 85, "SEQ": 1, "variables": ["AETERM", "AEBODSYS", "AESOC"], "values": ["Headache", "null", "Not in dataset"]}, {"core_id": "CORE-000264", "message": "Primary analysis used but AEBODSYS and AESOC are not equal", "executability": "fully executable", "dataset": "AE", "USUBJID": "CART-T-PILOT-01-DF-183", "row": 86, "SEQ": 1, "variables": ["AETERM", "AEBODSYS", "AESOC"], "values": ["fainting", "null", "Not in dataset"]}, {"core_id": "CORE-000264", "message": "Primary analysis used but AEBODSYS and AESOC are not equal", "executability": "fully executable", "dataset": "AE", "USUBJID": "CART-T-PILOT-01-DF-185", "row": 87, "SEQ": 1, "variables": ["AETERM", "AEBODSYS", "AESOC"], "values": ["Dizziness", "null", "Not in dataset"]}, {"core_id": "CORE-000264", "message": "Primary analysis used but AEBODSYS and AESOC are not equal", "executability": "fully executable", "dataset": "AE", "USUBJID": "CART-T-PILOT-01-DF-186", "row": 88, "SEQ": 1, "variables": ["AETERM", "AEBODSYS", "AESOC"], "values": ["Syncope", "null", "Not in dataset"]}, {"core_id": "CORE-000264", "message": "Primary analysis used but AEBODSYS and AESOC are not equal", "executability": "fully executable", "dataset": "AE", "USUBJID": "CART-T-PILOT-01-DF-187", "row": 89, "SEQ": 1, "variables": ["AETERM", "AEBODSYS", "AESOC"], "values": ["Synope", "null", "Not in dataset"]}, {"core_id": "CORE-000264", "message": "Primary analysis used but AEBODSYS and AESOC are not equal", "executability": "fully executable", "dataset": "AE", "USUBJID": "CART-T-PILOT-01-DF-191", "row": 90, "SEQ": 1, "variables": ["AETERM", "AEBODSYS", "AESOC"], "values": ["Headache", "null", "Not in dataset"]}, {"core_id": "CORE-000264", "message": "Primary analysis used but AEBODSYS and AESOC are not equal", "executability": "fully executable", "dataset": "AE", "USUBJID": "CART-T-PILOT-01-DF-192", "row": 91, "SEQ": 1, "variables": ["AETERM", "AEBODSYS", "AESOC"], "values": ["Lump on my breast", "null", "Not in dataset"]}, {"core_id": "CORE-000264", "message": "Primary analysis used but AEBODSYS and AESOC are not equal", "executability": "fully executable", "dataset": "AE", "USUBJID": "CART-T-PILOT-01-DF-193", "row": 92, "SEQ": 1, "variables": ["AETERM", "AEBODSYS", "AESOC"], "values": ["Headache", "null", "Not in dataset"]}, {"core_id": "CORE-000264", "message": "Primary analysis used but AEBODSYS and AESOC are not equal", "executability": "fully executable", "dataset": "AE", "USUBJID": "CART-T-PILOT-01-DF-194", "row": 93, "SEQ": 1, "variables": ["AETERM", "AEBODSYS", "AESOC"], "values": ["HEadache", "null", "Not in dataset"]}, {"core_id": "CORE-000264", "message": "Primary analysis used but AEBODSYS and AESOC are not equal", "executability": "fully executable", "dataset": "AE", "USUBJID": "CART-T-PILOT-01-DF-198", "row": 94, "SEQ": 1, "variables": ["AETERM", "AEBODSYS", "AESOC"], "values": ["Headache", "null", "Not in dataset"]}, {"core_id": "CORE-000264", "message": "Primary analysis used but AEBODSYS and AESOC are not equal", "executability": "fully executable", "dataset": "AE", "USUBJID": "CART-T-PILOT-01-DF-200", "row": 95, "SEQ": 1, "variables": ["AETERM", "AEBODSYS", "AESOC"], "values": ["Sycope", "null", "Not in dataset"]}, {"core_id": "CORE-000264", "message": "Primary analysis used but AEBODSYS and AESOC are not equal", "executability": "fully executable", "dataset": "AE", "USUBJID": "CART-T-PILOT-01-DF-201", "row": 96, "SEQ": 1, "variables": ["AETERM", "AEBODSYS", "AESOC"], "values": ["Headache", "null", "Not in dataset"]}, {"core_id": "CORE-000264", "message": "Primary analysis used but AEBODSYS and AESOC are not equal", "executability": "fully executable", "dataset": "AE", "USUBJID": "CART-T-PILOT-01-DF-202", "row": 97, "SEQ": 1, "variables": ["AETERM", "AEBODSYS", "AESOC"], "values": ["Subdural infection", "null", "Not in dataset"]}, {"core_id": "CORE-000264", "message": "Primary analysis used but AEBODSYS and AESOC are not equal", "executability": "fully executable", "dataset": "AE", "USUBJID": "CART-T-PILOT-01-DF-203", "row": 98, "SEQ": 1, "variables": ["AETERM", "AEBODSYS", "AESOC"], "values": ["Headache", "null", "Not in dataset"]}, {"core_id": "CORE-000264", "message": "Primary analysis used but AEBODSYS and AESOC are not equal", "executability": "fully executable", "dataset": "AE", "USUBJID": "CART-T-PILOT-01-DF-204", "row": 99, "SEQ": 1, "variables": ["AETERM", "AEBODSYS", "AESOC"], "values": ["Headache", "null", "Not in dataset"]}, {"core_id": "CORE-000264", "message": "Primary analysis used but AEBODSYS and AESOC are not equal", "executability": "fully executable", "dataset": "AE", "USUBJID": "CART-T-PILOT-01-DF-208", "row": 100, "SEQ": 1, "variables": ["AETERM", "AEBODSYS", "AESOC"], "values": ["Headache", "null", "Not in dataset"]}, {"core_id": "CORE-000264", "message": "Primary analysis used but AEBODSYS and AESOC are not equal", "executability": "fully executable", "dataset": "AE", "USUBJID": "CART-T-PILOT-01-DF-209", "row": 101, "SEQ": 1, "variables": ["AETERM", "AEBODSYS", "AESOC"], "values": ["Neck pain", "null", "Not in dataset"]}, {"core_id": "CORE-000264", "message": "Primary analysis used but AEBODSYS and AESOC are not equal", "executability": "fully executable", "dataset": "AE", "USUBJID": "CART-T-PILOT-01-DF-211", "row": 102, "SEQ": 1, "variables": ["AETERM", "AEBODSYS", "AESOC"], "values": ["Headache", "null", "Not in dataset"]}, {"core_id": "CORE-000264", "message": "Primary analysis used but AEBODSYS and AESOC are not equal", "executability": "fully executable", "dataset": "AE", "USUBJID": "CART-T-PILOT-01-DF-213", "row": 103, "SEQ": 1, "variables": ["AETERM", "AEBODSYS", "AESOC"], "values": ["Headache", "null", "Not in dataset"]}, {"core_id": "CORE-000264", "message": "Primary analysis used but AEBODSYS and AESOC are not equal", "executability": "fully executable", "dataset": "AE", "USUBJID": "CART-T-PILOT-01-DF-214", "row": 104, "SEQ": 1, "variables": ["AETERM", "AEBODSYS", "AESOC"], "values": ["Headache", "null", "Not in dataset"]}, {"core_id": "CORE-000264", "message": "Primary analysis used but AEBODSYS and AESOC are not equal", "executability": "fully executable", "dataset": "AE", "USUBJID": "CART-T-PILOT-01-DF-217", "row": 105, "SEQ": 1, "variables": ["AETERM", "AEBODSYS", "AESOC"], "values": ["Headache", "null", "Not in dataset"]}, {"core_id": "CORE-000264", "message": "Primary analysis used but AEBODSYS and AESOC are not equal", "executability": "fully executable", "dataset": "AE", "USUBJID": "CART-T-PILOT-01-DF-218", "row": 106, "SEQ": 1, "variables": ["AETERM", "AEBODSYS", "AESOC"], "values": ["Headache", "null", "Not in dataset"]}, {"core_id": "CORE-000264", "message": "Primary analysis used but AEBODSYS and AESOC are not equal", "executability": "fully executable", "dataset": "AE", "USUBJID": "CART-T-PILOT-01-DF-225", "row": 107, "SEQ": 1, "variables": ["AETERM", "AEBODSYS", "AESOC"], "values": ["Headache", "null", "Not in dataset"]}, {"core_id": "CORE-000264", "message": "Primary analysis used but AEBODSYS and AESOC are not equal", "executability": "fully executable", "dataset": "AE", "USUBJID": "CART-T-PILOT-01-DF-228", "row": 108, "SEQ": 1, "variables": ["AETERM", "AEBODSYS", "AESOC"], "values": ["Headache", "null", "Not in dataset"]}, {"core_id": "CORE-000264", "message": "Primary analysis used but AEBODSYS and AESOC are not equal", "executability": "fully executable", "dataset": "AE", "USUBJID": "CART-T-PILOT-01-DF-239", "row": 109, "SEQ": 1, "variables": ["AETERM", "AEBODSYS", "AESOC"], "values": ["Headache", "null", "Not in dataset"]}, {"core_id": "CORE-000264", "message": "Primary analysis used but AEBODSYS and AESOC are not equal", "executability": "fully executable", "dataset": "AE", "USUBJID": "CART-T-PILOT-01-DF-242", "row": 110, "SEQ": 1, "variables": ["AETERM", "AEBODSYS", "AESOC"], "values": ["Headache", "null", "Not in dataset"]}, {"core_id": "CORE-000264", "message": "Primary analysis used but AEBODSYS and AESOC are not equal", "executability": "fully executable", "dataset": "AE", "USUBJID": "CART-T-PILOT-01-DF-244", "row": 111, "SEQ": 1, "variables": ["AETERM", "AEBODSYS", "AESOC"], "values": ["Pain", "null", "Not in dataset"]}, {"core_id": "CORE-000264", "message": "Primary analysis used but AEBODSYS and AESOC are not equal", "executability": "fully executable", "dataset": "AE", "USUBJID": "CART-T-PILOT-01-DF-245", "row": 112, "SEQ": 1, "variables": ["AETERM", "AEBODSYS", "AESOC"], "values": ["Headache", "null", "Not in dataset"]}, {"core_id": "CORE-000264", "message": "Primary analysis used but AEBODSYS and AESOC are not equal", "executability": "fully executable", "dataset": "AE", "USUBJID": "CART-T-PILOT-01-DF-246", "row": 113, "SEQ": 1, "variables": ["AETERM", "AEBODSYS", "AESOC"], "values": ["hypotension", "null", "Not in dataset"]}, {"core_id": "CORE-000264", "message": "Primary analysis used but AEBODSYS and AESOC are not equal", "executability": "fully executable", "dataset": "AE", "USUBJID": "CART-T-PILOT-01-DF-247", "row": 114, "SEQ": 1, "variables": ["AETERM", "AEBODSYS", "AESOC"], "values": ["hypotension", "null", "Not in dataset"]}, {"core_id": "CORE-000264", "message": "Primary analysis used but AEBODSYS and AESOC are not equal", "executability": "fully executable", "dataset": "AE", "USUBJID": "CART-T-PILOT-01-DF-250", "row": 115, "SEQ": 1, "variables": ["AETERM", "AEBODSYS", "AESOC"], "values": ["Headache", "null", "Not in dataset"]}, {"core_id": "CORE-000264", "message": "Primary analysis used but AEBODSYS and AESOC are not equal", "executability": "fully executable", "dataset": "AE", "USUBJID": "CART-T-PILOT-01-DF-251", "row": 116, "SEQ": 1, "variables": ["AETERM", "AEBODSYS", "AESOC"], "values": ["MI", "null", "Not in dataset"]}, {"core_id": "CORE-000264", "message": "Primary analysis used but AEBODSYS and AESOC are not equal", "executability": "fully executable", "dataset": "AE", "USUBJID": "CART-T-PILOT-01-DF-254", "row": 117, "SEQ": 1, "variables": ["AETERM", "AEBODSYS", "AESOC"], "values": ["Headache", "null", "Not in dataset"]}, {"core_id": "CORE-000264", "message": "Primary analysis used but AEBODSYS and AESOC are not equal", "executability": "fully executable", "dataset": "AE", "USUBJID": "CART-T-PILOT-01-DF-266", "row": 118, "SEQ": 1, "variables": ["AETERM", "AEBODSYS", "AESOC"], "values": ["Headache", "null", "Not in dataset"]}, {"core_id": "CORE-000264", "message": "Primary analysis used but AEBODSYS and AESOC are not equal", "executability": "fully executable", "dataset": "AE", "USUBJID": "CART-T-PILOT-01-DF-268", "row": 119, "SEQ": 1, "variables": ["AETERM", "AEBODSYS", "AESOC"], "values": ["HEadache", "null", "Not in dataset"]}, {"core_id": "CORE-000264", "message": "Primary analysis used but AEBODSYS and AESOC are not equal", "executability": "fully executable", "dataset": "AE", "USUBJID": "CART-T-PILOT-01-DF-270", "row": 120, "SEQ": 1, "variables": ["AETERM", "AEBODSYS", "AESOC"], "values": ["Back ache", "null", "Not in dataset"]}, {"core_id": "CORE-000264", "message": "Primary analysis used but AEBODSYS and AESOC are not equal", "executability": "fully executable", "dataset": "AE", "USUBJID": "CART-T-PILOT-01-DF-271", "row": 121, "SEQ": 1, "variables": ["AETERM", "AEBODSYS", "AESOC"], "values": ["Headache", "null", "Not in dataset"]}, {"core_id": "CORE-000264", "message": "Primary analysis used but AEBODSYS and AESOC are not equal", "executability": "fully executable", "dataset": "AE", "USUBJID": "CART-T-PILOT-01-DF-273", "row": 122, "SEQ": 1, "variables": ["AETERM", "AEBODSYS", "AESOC"], "values": ["hypotension", "null", "Not in dataset"]}, {"core_id": "CORE-000264", "message": "Primary analysis used but AEBODSYS and AESOC are not equal", "executability": "fully executable", "dataset": "AE", "USUBJID": "CART-T-PILOT-01-DF-274", "row": 123, "SEQ": 1, "variables": ["AETERM", "AEBODSYS", "AESOC"], "values": ["hypotension", "null", "Not in dataset"]}, {"core_id": "CORE-000264", "message": "Primary analysis used but AEBODSYS and AESOC are not equal", "executability": "fully executable", "dataset": "AE", "USUBJID": "CART-T-PILOT-01-DF-275", "row": 124, "SEQ": 1, "variables": ["AETERM", "AEBODSYS", "AESOC"], "values": ["hypotension", "null", "Not in dataset"]}, {"core_id": "CORE-000264", "message": "Primary analysis used but AEBODSYS and AESOC are not equal", "executability": "fully executable", "dataset": "AE", "USUBJID": "CART-T-PILOT-01-DF-276", "row": 125, "SEQ": 1, "variables": ["AETERM", "AEBODSYS", "AESOC"], "values": ["Headache", "null", "Not in dataset"]}, {"core_id": "CORE-000264", "message": "Primary analysis used but AEBODSYS and AESOC are not equal", "executability": "fully executable", "dataset": "AE", "USUBJID": "CART-T-PILOT-01-DF-277", "row": 126, "SEQ": 1, "variables": ["AETERM", "AEBODSYS", "AESOC"], "values": ["Headache", "null", "Not in dataset"]}, {"core_id": "CORE-000264", "message": "Primary analysis used but AEBODSYS and AESOC are not equal", "executability": "fully executable", "dataset": "AE", "USUBJID": "CART-T-PILOT-01-DF-278", "row": 127, "SEQ": 1, "variables": ["AETERM", "AEBODSYS", "AESOC"], "values": ["hypotension", "null", "Not in dataset"]}, {"core_id": "CORE-000264", "message": "Primary analysis used but AEBODSYS and AESOC are not equal", "executability": "fully executable", "dataset": "AE", "USUBJID": "CART-T-PILOT-01-DF-282", "row": 128, "SEQ": 1, "variables": ["AETERM", "AEBODSYS", "AESOC"], "values": ["Headache", "null", "Not in dataset"]}, {"core_id": "CORE-000264", "message": "Primary analysis used but AEBODSYS and AESOC are not equal", "executability": "fully executable", "dataset": "AE", "USUBJID": "CART-T-PILOT-01-DF-284", "row": 129, "SEQ": 1, "variables": ["AETERM", "AEBODSYS", "AESOC"], "values": ["Headache", "null", "Not in dataset"]}, {"core_id": "CORE-000264", "message": "Primary analysis used but AEBODSYS and AESOC are not equal", "executability": "fully executable", "dataset": "AE", "USUBJID": "CART-T-PILOT-01-DF-285", "row": 130, "SEQ": 1, "variables": ["AETERM", "AEBODSYS", "AESOC"], "values": ["Syncope", "null", "Not in dataset"]}, {"core_id": "CORE-000264", "message": "Primary analysis used but AEBODSYS and AESOC are not equal", "executability": "fully executable", "dataset": "AE", "USUBJID": "CART-T-PILOT-01-DF-286", "row": 131, "SEQ": 1, "variables": ["AETERM", "AEBODSYS", "AESOC"], "values": ["Headache", "null", "Not in dataset"]}, {"core_id": "CORE-000264", "message": "Primary analysis used but AEBODSYS and AESOC are not equal", "executability": "fully executable", "dataset": "AE", "USUBJID": "CART-T-PILOT-01-DF-287", "row": 132, "SEQ": 1, "variables": ["AETERM", "AEBODSYS", "AESOC"], "values": ["Headache", "null", "Not in dataset"]}, {"core_id": "CORE-000264", "message": "Primary analysis used but AEBODSYS and AESOC are not equal", "executability": "fully executable", "dataset": "AE", "USUBJID": "CART-T-PILOT-01-DF-288", "row": 133, "SEQ": 1, "variables": ["AETERM", "AEBODSYS", "AESOC"], "values": ["Headache", "null", "Not in dataset"]}, {"core_id": "CORE-000264", "message": "Primary analysis used but AEBODSYS and AESOC are not equal", "executability": "fully executable", "dataset": "AE", "USUBJID": "CART-T-PILOT-01-DF-289", "row": 134, "SEQ": 1, "variables": ["AETERM", "AEBODSYS", "AESOC"], "values": ["Headache", "null", "Not in dataset"]}, {"core_id": "CORE-000264", "message": "Primary analysis used but AEBODSYS and AESOC are not equal", "executability": "fully executable", "dataset": "AE", "USUBJID": "CART-T-PILOT-01-DF-290", "row": 135, "SEQ": 1, "variables": ["AETERM", "AEBODSYS", "AESOC"], "values": ["Broken Arm", "null", "Not in dataset"]}, {"core_id": "CORE-000264", "message": "Primary analysis used but AEBODSYS and AESOC are not equal", "executability": "fully executable", "dataset": "AE", "USUBJID": "CART-T-PILOT-01-DF-292", "row": 136, "SEQ": 1, "variables": ["AETERM", "AEBODSYS", "AESOC"], "values": ["headache", "null", "Not in dataset"]}, {"core_id": "CORE-000264", "message": "Primary analysis used but AEBODSYS and AESOC are not equal", "executability": "fully executable", "dataset": "AE", "USUBJID": "CART-T-PILOT-01-DF-297", "row": 137, "SEQ": 1, "variables": ["AETERM", "AEBODSYS", "AESOC"], "values": ["Headache", "null", "Not in dataset"]}, {"core_id": "CORE-000264", "message": "Primary analysis used but AEBODSYS and AESOC are not equal", "executability": "fully executable", "dataset": "AE", "USUBJID": "CART-T-PILOT-01-DF-307", "row": 138, "SEQ": 1, "variables": ["AETERM", "AEBODSYS", "AESOC"], "values": ["Headache", "null", "Not in dataset"]}, {"core_id": "CORE-000264", "message": "Primary analysis used but AEBODSYS and AESOC are not equal", "executability": "fully executable", "dataset": "AE", "USUBJID": "CART-T-PILOT-01-DF-313", "row": 139, "SEQ": 1, "variables": ["AETERM", "AEBODSYS", "AESOC"], "values": ["hypotension", "null", "Not in dataset"]}, {"core_id": "CORE-000264", "message": "Primary analysis used but AEBODSYS and AESOC are not equal", "executability": "fully executable", "dataset": "AE", "USUBJID": "CART-T-PILOT-01-DF-316", "row": 140, "SEQ": 1, "variables": ["AETERM", "AEBODSYS", "AESOC"], "values": ["hypotension", "null", "Not in dataset"]}, {"core_id": "CORE-000264", "message": "Primary analysis used but AEBODSYS and AESOC are not equal", "executability": "fully executable", "dataset": "AE", "USUBJID": "CART-T-PILOT-01-DF-318", "row": 141, "SEQ": 1, "variables": ["AETERM", "AEBODSYS", "AESOC"], "values": ["Headache", "null", "Not in dataset"]}, {"core_id": "CORE-000264", "message": "Primary analysis used but AEBODSYS and AESOC are not equal", "executability": "fully executable", "dataset": "AE", "USUBJID": "CART-T-PILOT-01-DF-326", "row": 142, "SEQ": 1, "variables": ["AETERM", "AEBODSYS", "AESOC"], "values": ["Headache", "null", "Not in dataset"]}, {"core_id": "CORE-000264", "message": "Primary analysis used but AEBODSYS and AESOC are not equal", "executability": "fully executable", "dataset": "AE", "USUBJID": "CART-T-PILOT-01-DF-327", "row": 143, "SEQ": 1, "variables": ["AETERM", "AEBODSYS", "AESOC"], "values": ["Headache", "null", "Not in dataset"]}, {"core_id": "CORE-000264", "message": "Primary analysis used but AEBODSYS and AESOC are not equal", "executability": "fully executable", "dataset": "AE", "USUBJID": "CART-T-PILOT-01-DF-329", "row": 144, "SEQ": 1, "variables": ["AETERM", "AEBODSYS", "AESOC"], "values": ["Headache", "null", "Not in dataset"]}, {"core_id": "CORE-000264", "message": "Primary analysis used but AEBODSYS and AESOC are not equal", "executability": "fully executable", "dataset": "AE", "USUBJID": "CART-T-PILOT-01-DF-330", "row": 145, "SEQ": 1, "variables": ["AETERM", "AEBODSYS", "AESOC"], "values": ["Headache", "null", "Not in dataset"]}, {"core_id": "CORE-000264", "message": "Primary analysis used but AEBODSYS and AESOC are not equal", "executability": "fully executable", "dataset": "AE", "USUBJID": "CART-T-PILOT-01-DF-334", "row": 146, "SEQ": 1, "variables": ["AETERM", "AEBODSYS", "AESOC"], "values": ["Headach", "null", "Not in dataset"]}, {"core_id": "CORE-000264", "message": "Primary analysis used but AEBODSYS and AESOC are not equal", "executability": "fully executable", "dataset": "AE", "USUBJID": "CART-T-PILOT-01-DF-338", "row": 147, "SEQ": 1, "variables": ["AETERM", "AEBODSYS", "AESOC"], "values": ["hypotension", "null", "Not in dataset"]}, {"core_id": "CORE-000264", "message": "Primary analysis used but AEBODSYS and AESOC are not equal", "executability": "fully executable", "dataset": "AE", "USUBJID": "CART-T-PILOT-01-DF-342", "row": 148, "SEQ": 1, "variables": ["AETERM", "AEBODSYS", "AESOC"], "values": ["Headache", "null", "Not in dataset"]}, {"core_id": "CORE-000264", "message": "Primary analysis used but AEBODSYS and AESOC are not equal", "executability": "fully executable", "dataset": "AE", "USUBJID": "CART-T-PILOT-01-DF-344", "row": 149, "SEQ": 1, "variables": ["AETERM", "AEBODSYS", "AESOC"], "values": ["Headache", "null", "Not in dataset"]}, {"core_id": "CORE-000264", "message": "Primary analysis used but AEBODSYS and AESOC are not equal", "executability": "fully executable", "dataset": "AE", "USUBJID": "CART-T-PILOT-01-DF-351", "row": 150, "SEQ": 1, "variables": ["AETERM", "AEBODSYS", "AESOC"], "values": ["Headache", "null", "Not in dataset"]}, {"core_id": "CORE-000264", "message": "Primary analysis used but AEBODSYS and AESOC are not equal", "executability": "fully executable", "dataset": "AE", "USUBJID": "CART-T-PILOT-01-DF-352", "row": 151, "SEQ": 1, "variables": ["AETERM", "AEBODSYS", "AESOC"], "values": ["Syncope", "null", "Not in dataset"]}, {"core_id": "CORE-000264", "message": "Primary analysis used but AEBODSYS and AESOC are not equal", "executability": "fully executable", "dataset": "AE", "USUBJID": "CART-T-PILOT-01-DF-353", "row": 152, "SEQ": 1, "variables": ["AETERM", "AEBODSYS", "AESOC"], "values": ["Syncope", "null", "Not in dataset"]}, {"core_id": "CORE-000264", "message": "Primary analysis used but AEBODSYS and AESOC are not equal", "executability": "fully executable", "dataset": "AE", "USUBJID": "CART-T-PILOT-01-DF-354", "row": 153, "SEQ": 1, "variables": ["AETERM", "AEBODSYS", "AESOC"], "values": ["Syncope", "null", "Not in dataset"]}, {"core_id": "CORE-000264", "message": "Primary analysis used but AEBODSYS and AESOC are not equal", "executability": "fully executable", "dataset": "AE", "USUBJID": "CART-T-PILOT-01-DF-355", "row": 154, "SEQ": 1, "variables": ["AETERM", "AEBODSYS", "AESOC"], "values": ["syncope", "null", "Not in dataset"]}, {"core_id": "CORE-000264", "message": "Primary analysis used but AEBODSYS and AESOC are not equal", "executability": "fully executable", "dataset": "AE", "USUBJID": "CART-T-PILOT-01-DF-356", "row": 155, "SEQ": 1, "variables": ["AETERM", "AEBODSYS", "AESOC"], "values": ["Syncope", "null", "Not in dataset"]}, {"core_id": "CORE-000264", "message": "Primary analysis used but AEBODSYS and AESOC are not equal", "executability": "fully executable", "dataset": "AE", "USUBJID": "CART-T-PILOT-01-DF-359", "row": 156, "SEQ": 1, "variables": ["AETERM", "AEBODSYS", "AESOC"], "values": ["Headache", "null", "Not in dataset"]}, {"core_id": "CORE-000264", "message": "Primary analysis used but AEBODSYS and AESOC are not equal", "executability": "fully executable", "dataset": "AE", "USUBJID": "CART-T-PILOT-01-DF-360", "row": 157, "SEQ": 1, "variables": ["AETERM", "AEBODSYS", "AESOC"], "values": ["Headache", "null", "Not in dataset"]}, {"core_id": "CORE-000264", "message": "Primary analysis used but AEBODSYS and AESOC are not equal", "executability": "fully executable", "dataset": "AE", "USUBJID": "CART-T-PILOT-01-DF-361", "row": 158, "SEQ": 1, "variables": ["AETERM", "AEBODSYS", "AESOC"], "values": ["Headache", "null", "Not in dataset"]}, {"core_id": "CORE-000264", "message": "Primary analysis used but AEBODSYS and AESOC are not equal", "executability": "fully executable", "dataset": "AE", "USUBJID": "CART-T-PILOT-01-DF-362", "row": 159, "SEQ": 1, "variables": ["AETERM", "AEBODSYS", "AESOC"], "values": ["Headache", "null", "Not in dataset"]}, {"core_id": "CORE-000264", "message": "Primary analysis used but AEBODSYS and AESOC are not equal", "executability": "fully executable", "dataset": "AE", "USUBJID": "CART-T-PILOT-01-DF-363", "row": 160, "SEQ": 1, "variables": ["AETERM", "AEBODSYS", "AESOC"], "values": ["Headache", "null", "Not in dataset"]}, {"core_id": "CORE-000264", "message": "Primary analysis used but AEBODSYS and AESOC are not equal", "executability": "fully executable", "dataset": "AE", "USUBJID": "CART-T-PILOT-01-DF-364", "row": 161, "SEQ": 1, "variables": ["AETERM", "AEBODSYS", "AESOC"], "values": ["Headache", "null", "Not in dataset"]}, {"core_id": "CORE-000264", "message": "Primary analysis used but AEBODSYS and AESOC are not equal", "executability": "fully executable", "dataset": "AE", "USUBJID": "CART-T-PILOT-01-DF-365", "row": 162, "SEQ": 1, "variables": ["AETERM", "AEBODSYS", "AESOC"], "values": ["Headache", "null", "Not in dataset"]}, {"core_id": "CORE-000264", "message": "Primary analysis used but AEBODSYS and AESOC are not equal", "executability": "fully executable", "dataset": "AE", "USUBJID": "CART-T-PILOT-01-DF-368", "row": 163, "SEQ": 1, "variables": ["AETERM", "AEBODSYS", "AESOC"], "values": ["Headache", "null", "Not in dataset"]}, {"core_id": "CORE-000264", "message": "Primary analysis used but AEBODSYS and AESOC are not equal", "executability": "fully executable", "dataset": "AE", "USUBJID": "CART-T-PILOT-01-DF-369", "row": 164, "SEQ": 1, "variables": ["AETERM", "AEBODSYS", "AESOC"], "values": ["Headache", "null", "Not in dataset"]}, {"core_id": "CORE-000264", "message": "Primary analysis used but AEBODSYS and AESOC are not equal", "executability": "fully executable", "dataset": "AE", "USUBJID": "CART-T-PILOT-01-DF-370", "row": 165, "SEQ": 1, "variables": ["AETERM", "AEBODSYS", "AESOC"], "values": ["Headache", "null", "Not in dataset"]}, {"core_id": "CORE-000264", "message": "Primary analysis used but AEBODSYS and AESOC are not equal", "executability": "fully executable", "dataset": "AE", "USUBJID": "CART-T-PILOT-01-DF-371", "row": 166, "SEQ": 1, "variables": ["AETERM", "AEBODSYS", "AESOC"], "values": ["headache", "null", "Not in dataset"]}, {"core_id": "CORE-000264", "message": "Primary analysis used but AEBODSYS and AESOC are not equal", "executability": "fully executable", "dataset": "AE", "USUBJID": "CART-T-PILOT-01-DF-372", "row": 167, "SEQ": 1, "variables": ["AETERM", "AEBODSYS", "AESOC"], "values": ["Broken Leg", "null", "Not in dataset"]}, {"core_id": "CORE-000264", "message": "Primary analysis used but AEBODSYS and AESOC are not equal", "executability": "fully executable", "dataset": "AE", "USUBJID": "CART-T-PILOT-01-DF-373", "row": 168, "SEQ": 1, "variables": ["AETERM", "AEBODSYS", "AESOC"], "values": ["Headache", "null", "Not in dataset"]}, {"core_id": "CORE-000264", "message": "Primary analysis used but AEBODSYS and AESOC are not equal", "executability": "fully executable", "dataset": "AE", "USUBJID": "CART-T-PILOT-01-DF-377", "row": 169, "SEQ": 1, "variables": ["AETERM", "AEBODSYS", "AESOC"], "values": ["Headache", "null", "Not in dataset"]}, {"core_id": "CORE-000264", "message": "Primary analysis used but AEBODSYS and AESOC are not equal", "executability": "fully executable", "dataset": "AE", "USUBJID": "CART-T-PILOT-01-DF-378", "row": 170, "SEQ": 1, "variables": ["AETERM", "AEBODSYS", "AESOC"], "values": ["Headache", "null", "Not in dataset"]}, {"core_id": "CORE-000264", "message": "Primary analysis used but AEBODSYS and AESOC are not equal", "executability": "fully executable", "dataset": "AE", "USUBJID": "CART-T-PILOT-01-DF-382", "row": 171, "SEQ": 1, "variables": ["AETERM", "AEBODSYS", "AESOC"], "values": ["Infection", "null", "Not in dataset"]}, {"core_id": "CORE-000264", "message": "Primary analysis used but AEBODSYS and AESOC are not equal", "executability": "fully executable", "dataset": "AE", "USUBJID": "CART-T-PILOT-01-DF-383", "row": 172, "SEQ": 1, "variables": ["AETERM", "AEBODSYS", "AESOC"], "values": ["Headache", "null", "Not in dataset"]}, {"core_id": "CORE-000264", "message": "Primary analysis used but AEBODSYS and AESOC are not equal", "executability": "fully executable", "dataset": "AE", "USUBJID": "CART-T-PILOT-01-DF-385", "row": 173, "SEQ": 1, "variables": ["AETERM", "AEBODSYS", "AESOC"], "values": ["Headache", "null", "Not in dataset"]}, {"core_id": "CORE-000264", "message": "Primary analysis used but AEBODSYS and AESOC are not equal", "executability": "fully executable", "dataset": "AE", "USUBJID": "CART-T-PILOT-01-DF-386", "row": 174, "SEQ": 1, "variables": ["AETERM", "AEBODSYS", "AESOC"], "values": ["Headache", "null", "Not in dataset"]}, {"core_id": "CORE-000264", "message": "Primary analysis used but AEBODSYS and AESOC are not equal", "executability": "fully executable", "dataset": "AE", "USUBJID": "CART-T-PILOT-01-DF-387", "row": 175, "SEQ": 1, "variables": ["AETERM", "AEBODSYS", "AESOC"], "values": ["Headache", "null", "Not in dataset"]}, {"core_id": "CORE-000264", "message": "Primary analysis used but AEBODSYS and AESOC are not equal", "executability": "fully executable", "dataset": "AE", "USUBJID": "CART-T-PILOT-01-DF-389", "row": 176, "SEQ": 1, "variables": ["AETERM", "AEBODSYS", "AESOC"], "values": ["Headache", "null", "Not in dataset"]}, {"core_id": "CORE-000264", "message": "Primary analysis used but AEBODSYS and AESOC are not equal", "executability": "fully executable", "dataset": "AE", "USUBJID": "CART-T-PILOT-01-DF-396", "row": 177, "SEQ": 1, "variables": ["AETERM", "AEBODSYS", "AESOC"], "values": ["Headache", "null", "Not in dataset"]}, {"core_id": "CORE-000264", "message": "Primary analysis used but AEBODSYS and AESOC are not equal", "executability": "fully executable", "dataset": "AE", "USUBJID": "CART-T-PILOT-01-DF-397", "row": 178, "SEQ": 1, "variables": ["AETERM", "AEBODSYS", "AESOC"], "values": ["Infection", "null", "Not in dataset"]}, {"core_id": "CORE-000264", "message": "Primary analysis used but AEBODSYS and AESOC are not equal", "executability": "fully executable", "dataset": "AE", "USUBJID": "CART-T-PILOT-01-DF-398", "row": 179, "SEQ": 1, "variables": ["AETERM", "AEBODSYS", "AESOC"], "values": ["Headache", "null", "Not in dataset"]}, {"core_id": "CORE-000264", "message": "Primary analysis used but AEBODSYS and AESOC are not equal", "executability": "fully executable", "dataset": "AE", "USUBJID": "CART-T-PILOT-01-DF-399", "row": 180, "SEQ": 1, "variables": ["AETERM", "AEBODSYS", "AESOC"], "values": ["Headache", "null", "Not in dataset"]}, {"core_id": "CORE-000264", "message": "Primary analysis used but AEBODSYS and AESOC are not equal", "executability": "fully executable", "dataset": "AE", "USUBJID": "CART-T-PILOT-01-DF-400", "row": 181, "SEQ": 1, "variables": ["AETERM", "AEBODSYS", "AESOC"], "values": ["MI", "null", "Not in dataset"]}, {"core_id": "CORE-000264", "message": "Primary analysis used but AEBODSYS and AESOC are not equal", "executability": "fully executable", "dataset": "AE", "USUBJID": "CART-T-PILOT-01-DF-430", "row": 182, "SEQ": 1, "variables": ["AETERM", "AEBODSYS", "AESOC"], "values": ["HEadache", "null", "Not in dataset"]}, {"core_id": "CORE-000264", "message": "Primary analysis used but AEBODSYS and AESOC are not equal", "executability": "fully executable", "dataset": "AE", "USUBJID": "CART-T-PILOT-01-DF-433", "row": 183, "SEQ": 1, "variables": ["AETERM", "AEBODSYS", "AESOC"], "values": ["Headache", "null", "Not in dataset"]}, {"core_id": "CORE-000264", "message": "Primary analysis used but AEBODSYS and AESOC are not equal", "executability": "fully executable", "dataset": "AE", "USUBJID": "CART-T-PILOT-01-DF-435", "row": 184, "SEQ": 1, "variables": ["AETERM", "AEBODSYS", "AESOC"], "values": ["Tinnitus", "null", "Not in dataset"]}, {"core_id": "CORE-000264", "message": "Primary analysis used but AEBODSYS and AESOC are not equal", "executability": "fully executable", "dataset": "AE", "USUBJID": "CART-T-PILOT-01-DF-436", "row": 185, "SEQ": 1, "variables": ["AETERM", "AEBODSYS", "AESOC"], "values": ["Syncope", "null", "Not in dataset"]}, {"core_id": "CORE-000264", "message": "Primary analysis used but AEBODSYS and AESOC are not equal", "executability": "fully executable", "dataset": "AE", "USUBJID": "CART-T-PILOT-01-DF-454", "row": 186, "SEQ": 1, "variables": ["AETERM", "AEBODSYS", "AESOC"], "values": ["Sycope", "null", "Not in dataset"]}, {"core_id": "CORE-000264", "message": "Primary analysis used but AEBODSYS and AESOC are not equal", "executability": "fully executable", "dataset": "AE", "USUBJID": "CART-T-PILOT-01-DF-457", "row": 187, "SEQ": 1, "variables": ["AETERM", "AEBODSYS", "AESOC"], "values": ["HEadache", "null", "Not in dataset"]}, {"core_id": "CORE-000264", "message": "Primary analysis used but AEBODSYS and AESOC are not equal", "executability": "fully executable", "dataset": "AE", "USUBJID": "CART-T-PILOT-01-DF-461", "row": 188, "SEQ": 1, "variables": ["AETERM", "AEBODSYS", "AESOC"], "values": ["Syncope", "null", "Not in dataset"]}, {"core_id": "CORE-000264", "message": "Primary analysis used but AEBODSYS and AESOC are not equal", "executability": "fully executable", "dataset": "AE", "USUBJID": "CART-T-PILOT-01-DF-462", "row": 189, "SEQ": 1, "variables": ["AETERM", "AEBODSYS", "AESOC"], "values": ["Syncope", "null", "Not in dataset"]}, {"core_id": "CORE-000264", "message": "Primary analysis used but AEBODSYS and AESOC are not equal", "executability": "fully executable", "dataset": "AE", "USUBJID": "CART-T-PILOT-01-DF-469", "row": 190, "SEQ": 1, "variables": ["AETERM", "AEBODSYS", "AESOC"], "values": ["Headache", "null", "Not in dataset"]}, {"core_id": "CORE-000264", "message": "Primary analysis used but AEBODSYS and AESOC are not equal", "executability": "fully executable", "dataset": "AE", "USUBJID": "CART-T-PILOT-01-DF-470", "row": 191, "SEQ": 1, "variables": ["AETERM", "AEBODSYS", "AESOC"], "values": ["Headache", "null", "Not in dataset"]}, {"core_id": "CORE-000264", "message": "Primary analysis used but AEBODSYS and AESOC are not equal", "executability": "fully executable", "dataset": "AE", "USUBJID": "CART-T-PILOT-01-DF-472", "row": 192, "SEQ": 1, "variables": ["AETERM", "AEBODSYS", "AESOC"], "values": ["Syncope", "null", "Not in dataset"]}, {"core_id": "CORE-000264", "message": "Primary analysis used but AEBODSYS and AESOC are not equal", "executability": "fully executable", "dataset": "AE", "USUBJID": "CART-T-PILOT-01-DF-483", "row": 193, "SEQ": 1, "variables": ["AETERM", "AEBODSYS", "AESOC"], "values": ["Headache", "null", "Not in dataset"]}, {"core_id": "CORE-000264", "message": "Primary analysis used but AEBODSYS and AESOC are not equal", "executability": "fully executable", "dataset": "AE", "USUBJID": "CART-T-PILOT-01-DF-484", "row": 194, "SEQ": 1, "variables": ["AETERM", "AEBODSYS", "AESOC"], "values": ["Headache", "null", "Not in dataset"]}, {"core_id": "CORE-000264", "message": "Primary analysis used but AEBODSYS and AESOC are not equal", "executability": "fully executable", "dataset": "AE", "USUBJID": "CART-T-PILOT-01-DF-487", "row": 195, "SEQ": 1, "variables": ["AETERM", "AEBODSYS", "AESOC"], "values": ["rash", "null", "Not in dataset"]}, {"core_id": "CORE-000264", "message": "Primary analysis used but AEBODSYS and AESOC are not equal", "executability": "fully executable", "dataset": "AE", "USUBJID": "CART-T-PILOT-01-DF-488", "row": 196, "SEQ": 1, "variables": ["AETERM", "AEBODSYS", "AESOC"], "values": ["Syncope", "null", "Not in dataset"]}, {"core_id": "CORE-000264", "message": "Primary analysis used but AEBODSYS and AESOC are not equal", "executability": "fully executable", "dataset": "AE", "USUBJID": "CART-T-PILOT-01-DF-489", "row": 197, "SEQ": 1, "variables": ["AETERM", "AEBODSYS", "AESOC"], "values": ["Syncope", "null", "Not in dataset"]}, {"core_id": "CORE-000264", "message": "Primary analysis used but AEBODSYS and AESOC are not equal", "executability": "fully executable", "dataset": "AE", "USUBJID": "CART-T-PILOT-01-DF-494", "row": 198, "SEQ": 1, "variables": ["AETERM", "AEBODSYS", "AESOC"], "values": ["Headache", "null", "Not in dataset"]}, {"core_id": "CORE-000264", "message": "Primary analysis used but AEBODSYS and AESOC are not equal", "executability": "fully executable", "dataset": "AE", "USUBJID": "CART-T-PILOT-01-DF-495", "row": 199, "SEQ": 1, "variables": ["AETERM", "AEBODSYS", "AESOC"], "values": ["Syncope", "null", "Not in dataset"]}, {"core_id": "CORE-000264", "message": "Primary analysis used but AEBODSYS and AESOC are not equal", "executability": "fully executable", "dataset": "AE", "USUBJID": "CART-T-PILOT-01-DF-501", "row": 200, "SEQ": 1, "variables": ["AETERM", "AEBODSYS", "AESOC"], "values": ["Sycope", "null", "Not in dataset"]}, {"core_id": "CORE-000264", "message": "Primary analysis used but AEBODSYS and AESOC are not equal", "executability": "fully executable", "dataset": "AE", "USUBJID": "CART-T-PILOT-01-DF-502", "row": 201, "SEQ": 1, "variables": ["AETERM", "AEBODSYS", "AESOC"], "values": ["Headache", "null", "Not in dataset"]}, {"core_id": "CORE-000264", "message": "Primary analysis used but AEBODSYS and AESOC are not equal", "executability": "fully executable", "dataset": "AE", "USUBJID": "CART-T-PILOT-01-DF-504", "row": 202, "SEQ": 1, "variables": ["AETERM", "AEBODSYS", "AESOC"], "values": ["Headache", "null", "Not in dataset"]}, {"core_id": "CORE-000264", "message": "Primary analysis used but AEBODSYS and AESOC are not equal", "executability": "fully executable", "dataset": "AE", "USUBJID": "CART-T-PILOT-01-DF-505", "row": 203, "SEQ": 1, "variables": ["AETERM", "AEBODSYS", "AESOC"], "values": ["Syncope", "null", "Not in dataset"]}, {"core_id": "CORE-000264", "message": "Primary analysis used but AEBODSYS and AESOC are not equal", "executability": "fully executable", "dataset": "AE", "USUBJID": "CART-T-PILOT-01-DF-506", "row": 204, "SEQ": 1, "variables": ["AETERM", "AEBODSYS", "AESOC"], "values": ["Syncope", "null", "Not in dataset"]}, {"core_id": "CORE-000264", "message": "Primary analysis used but AEBODSYS and AESOC are not equal", "executability": "fully executable", "dataset": "AE", "USUBJID": "CART-T-PILOT-01-DF-507", "row": 205, "SEQ": 1, "variables": ["AETERM", "AEBODSYS", "AESOC"], "values": ["headache", "null", "Not in dataset"]}, {"core_id": "CORE-000264", "message": "Primary analysis used but AEBODSYS and AESOC are not equal", "executability": "fully executable", "dataset": "AE", "USUBJID": "CART-T-PILOT-01-DF-508", "row": 206, "SEQ": 1, "variables": ["AETERM", "AEBODSYS", "AESOC"], "values": ["Syncope", "null", "Not in dataset"]}, {"core_id": "CORE-000264", "message": "Primary analysis used but AEBODSYS and AESOC are not equal", "executability": "fully executable", "dataset": "AE", "USUBJID": "CART-T-PILOT-01-DF-509", "row": 207, "SEQ": 1, "variables": ["AETERM", "AEBODSYS", "AESOC"], "values": ["Headache", "null", "Not in dataset"]}, {"core_id": "CORE-000264", "message": "Primary analysis used but AEBODSYS and AESOC are not equal", "executability": "fully executable", "dataset": "AE", "USUBJID": "CART-T-PILOT-01-DF-513", "row": 208, "SEQ": 1, "variables": ["AETERM", "AEBODSYS", "AESOC"], "values": ["Syncope", "null", "Not in dataset"]}, {"core_id": "CORE-000264", "message": "Primary analysis used but AEBODSYS and AESOC are not equal", "executability": "fully executable", "dataset": "AE", "USUBJID": "CART-T-PILOT-01-DF-514", "row": 209, "SEQ": 1, "variables": ["AETERM", "AEBODSYS", "AESOC"], "values": ["Syncope", "null", "Not in dataset"]}, {"core_id": "CORE-000264", "message": "Primary analysis used but AEBODSYS and AESOC are not equal", "executability": "fully executable", "dataset": "AE", "USUBJID": "CART-T-PILOT-01-DF-522", "row": 210, "SEQ": 1, "variables": ["AETERM", "AEBODSYS", "AESOC"], "values": ["Syncope", "null", "Not in dataset"]}, {"core_id": "CORE-000264", "message": "Primary analysis used but AEBODSYS and AESOC are not equal", "executability": "fully executable", "dataset": "AE", "USUBJID": "CART-T-PILOT-01-DF-528", "row": 211, "SEQ": 1, "variables": ["AETERM", "AEBODSYS", "AESOC"], "values": ["Syncope", "null", "Not in dataset"]}, {"core_id": "CORE-000264", "message": "Primary analysis used but AEBODSYS and AESOC are not equal", "executability": "fully executable", "dataset": "AE", "USUBJID": "CART-T-PILOT-01-DF-536", "row": 212, "SEQ": 1, "variables": ["AETERM", "AEBODSYS", "AESOC"], "values": ["Syncope", "null", "Not in dataset"]}, {"core_id": "CORE-000264", "message": "Primary analysis used but AEBODSYS and AESOC are not equal", "executability": "fully executable", "dataset": "AE", "USUBJID": "CART-T-PILOT-01-DF-538", "row": 213, "SEQ": 1, "variables": ["AETERM", "AEBODSYS", "AESOC"], "values": ["Syncope", "null", "Not in dataset"]}, {"core_id": "CORE-000264", "message": "Primary analysis used but AEBODSYS and AESOC are not equal", "executability": "fully executable", "dataset": "AE", "USUBJID": "CART-T-PILOT-01-DF-539", "row": 214, "SEQ": 1, "variables": ["AETERM", "AEBODSYS", "AESOC"], "values": ["Syncope", "null", "Not in dataset"]}, {"core_id": "CORE-000264", "message": "Primary analysis used but AEBODSYS and AESOC are not equal", "executability": "fully executable", "dataset": "AE", "USUBJID": "CART-T-PILOT-01-DF-541", "row": 215, "SEQ": 1, "variables": ["AETERM", "AEBODSYS", "AESOC"], "values": ["Syncope", "null", "Not in dataset"]}, {"core_id": "CORE-000264", "message": "Primary analysis used but AEBODSYS and AESOC are not equal", "executability": "fully executable", "dataset": "AE", "USUBJID": "CART-T-PILOT-01-DF-548", "row": 216, "SEQ": 1, "variables": ["AETERM", "AEBODSYS", "AESOC"], "values": ["Syncope", "null", "Not in dataset"]}, {"core_id": "CORE-000264", "message": "Primary analysis used but AEBODSYS and AESOC are not equal", "executability": "fully executable", "dataset": "AE", "USUBJID": "CART-T-PILOT-01-DF-549", "row": 217, "SEQ": 1, "variables": ["AETERM", "AEBODSYS", "AESOC"], "values": ["Syncope", "null", "Not in dataset"]}, {"core_id": "CORE-000264", "message": "Primary analysis used but AEBODSYS and AESOC are not equal", "executability": "fully executable", "dataset": "AE", "USUBJID": "CART-T-PILOT-01-DF-552", "row": 218, "SEQ": 1, "variables": ["AETERM", "AEBODSYS", "AESOC"], "values": ["Headache", "null", "Not in dataset"]}, {"core_id": "CORE-000264", "message": "Primary analysis used but AEBODSYS and AESOC are not equal", "executability": "fully executable", "dataset": "AE", "USUBJID": "CART-T-PILOT-01-DF-553", "row": 219, "SEQ": 1, "variables": ["AETERM", "AEBODSYS", "AESOC"], "values": ["Syncope", "null", "Not in dataset"]}, {"core_id": "CORE-000264", "message": "Primary analysis used but AEBODSYS and AESOC are not equal", "executability": "fully executable", "dataset": "AE", "USUBJID": "CART-T-PILOT-01-DF-555", "row": 220, "SEQ": 1, "variables": ["AETERM", "AEBODSYS", "AESOC"], "values": ["Syncope", "null", "Not in dataset"]}, {"core_id": "CORE-000264", "message": "Primary analysis used but AEBODSYS and AESOC are not equal", "executability": "fully executable", "dataset": "AE", "USUBJID": "CART-T-PILOT-01-DF-557", "row": 221, "SEQ": 1, "variables": ["AETERM", "AEBODSYS", "AESOC"], "values": ["Syncope", "null", "Not in dataset"]}, {"core_id": "CORE-000264", "message": "Primary analysis used but AEBODSYS and AESOC are not equal", "executability": "fully executable", "dataset": "AE", "USUBJID": "CART-T-PILOT-01-DF-558", "row": 222, "SEQ": 1, "variables": ["AETERM", "AEBODSYS", "AESOC"], "values": ["Syncope", "null", "Not in dataset"]}, {"core_id": "CORE-000264", "message": "Primary analysis used but AEBODSYS and AESOC are not equal", "executability": "fully executable", "dataset": "AE", "USUBJID": "CART-T-PILOT-01-DF-562", "row": 223, "SEQ": 1, "variables": ["AETERM", "AEBODSYS", "AESOC"], "values": ["Syncope", "null", "Not in dataset"]}, {"core_id": "CORE-000264", "message": "Primary analysis used but AEBODSYS and AESOC are not equal", "executability": "fully executable", "dataset": "AE", "USUBJID": "CART-T-PILOT-01-DF-563", "row": 224, "SEQ": 1, "variables": ["AETERM", "AEBODSYS", "AESOC"], "values": ["syncope", "null", "Not in dataset"]}, {"core_id": "CORE-000264", "message": "Primary analysis used but AEBODSYS and AESOC are not equal", "executability": "fully executable", "dataset": "AE", "USUBJID": "CART-T-PILOT-01-DF-564", "row": 225, "SEQ": 1, "variables": ["AETERM", "AEBODSYS", "AESOC"], "values": ["syncope", "null", "Not in dataset"]}, {"core_id": "CORE-000264", "message": "Primary analysis used but AEBODSYS and AESOC are not equal", "executability": "fully executable", "dataset": "AE", "USUBJID": "CART-T-PILOT-01-DF-565", "row": 226, "SEQ": 1, "variables": ["AETERM", "AEBODSYS", "AESOC"], "values": ["Headache", "null", "Not in dataset"]}, {"core_id": "CORE-000264", "message": "Primary analysis used but AEBODSYS and AESOC are not equal", "executability": "fully executable", "dataset": "AE", "USUBJID": "CART-T-PILOT-01-DF-566", "row": 227, "SEQ": 1, "variables": ["AETERM", "AEBODSYS", "AESOC"], "values": ["syncope", "null", "Not in dataset"]}, {"core_id": "CORE-000264", "message": "Primary analysis used but AEBODSYS and AESOC are not equal", "executability": "fully executable", "dataset": "AE", "USUBJID": "CART-T-PILOT-01-DF-575", "row": 228, "SEQ": 1, "variables": ["AETERM", "AEBODSYS", "AESOC"], "values": ["Syncope", "null", "Not in dataset"]}, {"core_id": "CORE-000264", "message": "Primary analysis used but AEBODSYS and AESOC are not equal", "executability": "fully executable", "dataset": "AE", "USUBJID": "CART-T-PILOT-01-DF-577", "row": 229, "SEQ": 1, "variables": ["AETERM", "AEBODSYS", "AESOC"], "values": ["Syncope", "null", "Not in dataset"]}, {"core_id": "CORE-000264", "message": "Primary analysis used but AEBODSYS and AESOC are not equal", "executability": "fully executable", "dataset": "AE", "USUBJID": "CART-T-PILOT-01-DF-579", "row": 230, "SEQ": 1, "variables": ["AETERM", "AEBODSYS", "AESOC"], "values": ["Sycope", "null", "Not in dataset"]}, {"core_id": "CORE-000264", "message": "Primary analysis used but AEBODSYS and AESOC are not equal", "executability": "fully executable", "dataset": "AE", "USUBJID": "CART-T-PILOT-01-DF-580", "row": 231, "SEQ": 1, "variables": ["AETERM", "AEBODSYS", "AESOC"], "values": ["Syncope", "null", "Not in dataset"]}, {"core_id": "CORE-000264", "message": "Primary analysis used but AEBODSYS and AESOC are not equal", "executability": "fully executable", "dataset": "AE", "USUBJID": "CART-T-PILOT-01-DF-584", "row": 232, "SEQ": 1, "variables": ["AETERM", "AEBODSYS", "AESOC"], "values": ["Headache", "null", "Not in dataset"]}, {"core_id": "CORE-000264", "message": "Primary analysis used but AEBODSYS and AESOC are not equal", "executability": "fully executable", "dataset": "AE", "USUBJID": "CART-T-PILOT-01-DF-586", "row": 233, "SEQ": 1, "variables": ["AETERM", "AEBODSYS", "AESOC"], "values": ["Syncope", "null", "Not in dataset"]}, {"core_id": "CORE-000264", "message": "Primary analysis used but AEBODSYS and AESOC are not equal", "executability": "fully executable", "dataset": "AE", "USUBJID": "CART-T-PILOT-01-DF-587", "row": 234, "SEQ": 1, "variables": ["AETERM", "AEBODSYS", "AESOC"], "values": ["Fainting", "null", "Not in dataset"]}, {"core_id": "CORE-000264", "message": "Primary analysis used but AEBODSYS and AESOC are not equal", "executability": "fully executable", "dataset": "AE", "USUBJID": "CART-T-PILOT-01-DF-590", "row": 235, "SEQ": 1, "variables": ["AETERM", "AEBODSYS", "AESOC"], "values": ["Syncope", "null", "Not in dataset"]}, {"core_id": "CORE-000264", "message": "Primary analysis used but AEBODSYS and AESOC are not equal", "executability": "fully executable", "dataset": "AE", "USUBJID": "CART-T-PILOT-01-DF-592", "row": 236, "SEQ": 1, "variables": ["AETERM", "AEBODSYS", "AESOC"], "values": ["Syncope", "null", "Not in dataset"]}, {"core_id": "CORE-000264", "message": "Primary analysis used but AEBODSYS and AESOC are not equal", "executability": "fully executable", "dataset": "AE", "USUBJID": "CART-T-PILOT-01-DF-593", "row": 237, "SEQ": 1, "variables": ["AETERM", "AEBODSYS", "AESOC"], "values": ["Headache", "null", "Not in dataset"]}, {"core_id": "CORE-000264", "message": "Primary analysis used but AEBODSYS and AESOC are not equal", "executability": "fully executable", "dataset": "AE", "USUBJID": "CART-T-PILOT-01-DF-594", "row": 238, "SEQ": 1, "variables": ["AETERM", "AEBODSYS", "AESOC"], "values": ["Inflammation", "null", "Not in dataset"]}, {"core_id": "CORE-000264", "message": "Primary analysis used but AEBODSYS and AESOC are not equal", "executability": "fully executable", "dataset": "AE", "USUBJID": "CART-T-PILOT-01-DF-597", "row": 239, "SEQ": 1, "variables": ["AETERM", "AEBODSYS", "AESOC"], "values": ["Syncope", "null", "Not in dataset"]}, {"core_id": "CORE-000264", "message": "Primary analysis used but AEBODSYS and AESOC are not equal", "executability": "fully executable", "dataset": "AE", "USUBJID": "CART-T-PILOT-01-DF-601", "row": 240, "SEQ": 1, "variables": ["AETERM", "AEBODSYS", "AESOC"], "values": ["Syncope", "null", "Not in dataset"]}, {"core_id": "CORE-000264", "message": "Primary analysis used but AEBODSYS and AESOC are not equal", "executability": "fully executable", "dataset": "AE", "USUBJID": "CART-T-PILOT-01-DF-602", "row": 241, "SEQ": 1, "variables": ["AETERM", "AEBODSYS", "AESOC"], "values": ["Syncope", "null", "Not in dataset"]}, {"core_id": "CORE-000264", "message": "Primary analysis used but AEBODSYS and AESOC are not equal", "executability": "fully executable", "dataset": "AE", "USUBJID": "CART-T-PILOT-01-DF-609", "row": 242, "SEQ": 1, "variables": ["AETERM", "AEBODSYS", "AESOC"], "values": ["Syncope", "null", "Not in dataset"]}, {"core_id": "CORE-000264", "message": "Primary analysis used but AEBODSYS and AESOC are not equal", "executability": "fully executable", "dataset": "AE", "USUBJID": "CART-T-PILOT-01-DF-612", "row": 243, "SEQ": 1, "variables": ["AETERM", "AEBODSYS", "AESOC"], "values": ["Sycope", "null", "Not in dataset"]}, {"core_id": "CORE-000264", "message": "Primary analysis used but AEBODSYS and AESOC are not equal", "executability": "fully executable", "dataset": "AE", "USUBJID": "CART-T-PILOT-01-DF-615", "row": 244, "SEQ": 1, "variables": ["AETERM", "AEBODSYS", "AESOC"], "values": ["Headache", "null", "Not in dataset"]}, {"core_id": "CORE-000264", "message": "Primary analysis used but AEBODSYS and AESOC are not equal", "executability": "fully executable", "dataset": "AE", "USUBJID": "CART-T-PILOT-01-DF-619", "row": 245, "SEQ": 1, "variables": ["AETERM", "AEBODSYS", "AESOC"], "values": ["Sycope", "null", "Not in dataset"]}, {"core_id": "CORE-000264", "message": "Primary analysis used but AEBODSYS and AESOC are not equal", "executability": "fully executable", "dataset": "AE", "USUBJID": "CART-T-PILOT-01-DF-622", "row": 246, "SEQ": 1, "variables": ["AETERM", "AEBODSYS", "AESOC"], "values": ["Nausea", "null", "Not in dataset"]}, {"core_id": "CORE-000264", "message": "Primary analysis used but AEBODSYS and AESOC are not equal", "executability": "fully executable", "dataset": "AE", "USUBJID": "CART-T-PILOT-01-DF-625", "row": 247, "SEQ": 1, "variables": ["AETERM", "AEBODSYS", "AESOC"], "values": ["Syncope", "null", "Not in dataset"]}, {"core_id": "CORE-000264", "message": "Primary analysis used but AEBODSYS and AESOC are not equal", "executability": "fully executable", "dataset": "AE", "USUBJID": "CART-T-PILOT-01-DF-629", "row": 248, "SEQ": 1, "variables": ["AETERM", "AEBODSYS", "AESOC"], "values": ["Headache", "null", "Not in dataset"]}, {"core_id": "CORE-000264", "message": "Primary analysis used but AEBODSYS and AESOC are not equal", "executability": "fully executable", "dataset": "AE", "USUBJID": "CART-T-PILOT-01-DF-634", "row": 249, "SEQ": 1, "variables": ["AETERM", "AEBODSYS", "AESOC"], "values": ["Syncope", "null", "Not in dataset"]}, {"core_id": "CORE-000264", "message": "Primary analysis used but AEBODSYS and AESOC are not equal", "executability": "fully executable", "dataset": "AE", "USUBJID": "CART-T-PILOT-01-James Bean", "row": 250, "SEQ": 1, "variables": ["AETERM", "AEBODSYS", "AESOC"], "values": ["Hypotension", "null", "Not in dataset"]}, {"core_id": "CORE-000264", "message": "Primary analysis used but AEBODSYS and AESOC are not equal", "executability": "fully executable", "dataset": "AE", "USUBJID": "CART-T-PILOT-01-LH-CARTFA-050", "row": 251, "SEQ": 1, "variables": ["AETERM", "AEBODSYS", "AESOC"], "values": ["migraine", "null", "Not in dataset"]}, {"core_id": "CORE-000264", "message": "Primary analysis used but AEBODSYS and AESOC are not equal", "executability": "fully executable", "dataset": "AE", "USUBJID": "CART-T-PILOT-01-MGH-012", "row": 252, "SEQ": 1, "variables": ["AETERM", "AEBODSYS", "AESOC"], "values": ["headache", "null", "Not in dataset"]}, {"core_id": "CORE-000264", "message": "Primary analysis used but AEBODSYS and AE