domain: DS
label: Disposition
class: Events
structure: One record per disposition event per subject
purpose: Tabulation
keys: [STUDYID, USUBJID, DSCAT, DSDECOD, DSSTDTC]
ig_anchor: "DS+Specification"

sources:
  - form: "Disposition"
    item_groups: [PD]
  - form: "Eligibility"
    notes: |
      Contributes INFORMED CONSENT OBTAINED and ELIGIBILITY CRITERIA MET
      disposition events for all 580 subjects in the Eligibility form.
  - form: "3. Randomize"
    notes: Contributes RANDOMIZED event for 280 randomized subjects.

record_rule: |
  Emit one row per disposition milestone or terminal event per subject.

  PROTOCOL MILESTONE rows (DSCAT = "PROTOCOL MILESTONE"):
    CONSENTED, ELIGIBLE, RANDOMIZED, RECEIVED INTERVENTION,
    COMPLETED PRIMARY OUTCOMES, COMPLETED SECONDARY OUTCOMES.
  SCREENED / STATUSONSTUDY rows are NOT generated:
    - "SCREENING COMPLETED" is not in the PROTMLST extensible codelist (CT2005 fix).
    - STATUSONSTUDY='Early Termination' is redundant with EARLYTERMINATIONREASON rows.

  DISPOSITION EVENT rows (DSCAT = "DISPOSITION EVENT") — required for every subject:
    P21 requires at least one DSCAT = "DISPOSITION EVENT" record per DM subject.
    - Early-terminated subjects: DSDECOD mapped from EARLYTERMINATIONREASON via
      map_et_reason() (NCOMPLT terms: ADVERSE EVENT, DEATH, etc.)
    - Randomized subjects with no ET: DSDECOD = "COMPLETED" (NCOMPLT C66727).
    - Screen failures with no ET: DSDECOD = "SCREEN FAILURE" (sponsor-extended
      value in the extensible NCOMPLT codelist; documented in define.xml).

  Each PD-item that resolves "Y" or carries a reason/date triggers a row.
  Dedup: for each (subjectkey, DSDECOD), keep the row with the best available
  DSSTDTC (non-null preferred), then lowest source-priority.

variables:
  STUDYID:
    label: Study Identifier
    type: Char
    length: 12
    role: Identifier
    core: Req
    origin: Sponsor Defined
    derivation: Study constant ("CART-T-PILOT").

  DOMAIN:
    label: Domain Abbreviation
    type: Char
    length: 2
    role: Identifier
    core: Req
    origin: Assigned
    derivation: Constant value "DS".

  USUBJID:
    label: Unique Subject Identifier
    type: Char
    length: 30
    role: Identifier
    core: Req
    origin: Derived
    derivation: Joined from DM via subjectkey.

  DSSEQ:
    label: Sequence Number
    type: Num
    length: 8
    role: Identifier
    core: Req
    origin: Derived
    derivation: row_number() within USUBJID, ordered by DSSTDTC, DSCAT, DSDECOD.

  DSTERM:
    label: Reported Term for the Disposition Event
    type: Char
    length: 200
    role: Topic
    core: Req
    origin: CRF
    derivation: |
      Constructed from the contributing PD item or form date:
        CONSENTED=Yes              -> "Informed consent obtained"
        ELIGIBLE=Yes               -> "Determined eligible"
        RANDOMIZED=Yes             -> "Randomized"
        RECEIVEDINTERVENTION=Yes   -> "Received study intervention"
        PRIMARYOUTCOMESCOMPLETE=Yes   -> "Completed primary outcomes"
        SECONDARYOUTCOMESCOMPLETE=Yes -> "Completed secondary outcomes"
        EARLYTERMINATIONREASON (free text) -> copied verbatim as DSTERM.
      For layer-2 subjects (IE form only), DSTERM is set to:
        "Informed consent obtained" / "Determined eligible" as appropriate.
      NOTE: SCREENED -> "Screening completed" is NOT generated (CT2005: not in PROTMLST).
      NOTE: STATUSONSTUDY rows are suppressed (redundant with EARLYTERMINATIONREASON rows).

  DSDECOD:
    label: Standardized Disposition Term
    type: Char
    length: 40
    role: Synonym Qualifier
    core: Req
    origin: Assigned
    codelist: NCOMPLT
    derivation: |
      Map DSTERM to CDISC NCOMPLT (C66727) or PROTMLST (C114118) CT:
        consent obtained               -> "INFORMED CONSENT OBTAINED"  (PROTMLST)
        eligibility met                -> "ELIGIBILITY CRITERIA MET"   (PROTMLST)
        randomized                     -> "RANDOMIZED"                 (PROTMLST)
        treatment received             -> "TREATMENT STARTED"          (PROTMLST)
        primary outcomes complete      -> "COMPLETED PRIMARY OUTCOMES" (PROTMLST)
        completed study (no ET)        -> "COMPLETED"                  (NCOMPLT)
        screen failure (no ET/rand)    -> "SCREEN FAILURE"             (NCOMPLT extensible)
        EARLYTERMINATIONREASON mapped via map_et_reason() function:
          "Adverse Event" / AE text    -> "ADVERSE EVENT"              (NCOMPLT)
          "Withdrew Consent" / consent -> "WITHDRAWAL BY SUBJECT"      (NCOMPLT)
          "Death" / "Died"             -> "DEATH"                      (NCOMPLT)
          "Lack of Efficacy"           -> "LACK OF EFFICACY"           (NCOMPLT)
          "Lost to Follow"             -> "LOST TO FOLLOW-UP"          (NCOMPLT)
          Physician/Investigator       -> "PHYSICIAN DECISION"         (NCOMPLT)
          Protocol                     -> "PROTOCOL DEVIATION"         (NCOMPLT)
          Sponsor                      -> "STUDY TERMINATED BY SPONSOR" (NCOMPLT)
          Other/Unknown                -> "PROTOCOL DEVIATION"         (NCOMPLT)
      NOTE: "EARLY TERMINATION" is NOT used — it is not in the NCOMPLT codelist (CT2005 fix).
      NOTE: "SCREENING COMPLETED" is NOT used — it is not in PROTMLST (CT2005 fix).
      NOTE: "SCREEN FAILURE" is a sponsor-extended value in the extensible NCOMPLT
            codelist; documented in define.xml.

  DSCAT:
    label: Category for Disposition Event
    type: Char
    length: 40
    role: Grouping Qualifier
    core: Req
    origin: Assigned
    codelist: DSCAT
    derivation: |
      "PROTOCOL MILESTONE" for CONSENTED / ELIGIBLE / RANDOMIZED / RECEIVEDINTERVENTION
        / PRIMARYOUTCOMESCOMPLETE / SECONDARYOUTCOMESCOMPLETE
      "DISPOSITION EVENT" for early-termination rows (all EARLYTERMINATIONREASON-derived rows).

  DSSCAT:
    label: Subcategory for Disposition Event
    type: Char
    length: 40
    role: Grouping Qualifier
    core: Perm
    origin: Assigned
    derivation: |
      Null for all records in this pilot — no subcategory is captured in the source export.
      Known limitation (SD1078): P21 will flag this as a permissible variable with
      all-null values. Acceptable per SDTMIG — Perm variables may be omitted or null.

  EPOCH:
    label: Epoch
    type: Char
    length: 40
    role: Timing
    core: Perm
    origin: Derived
    codelist: EPOCH
    derivation: |
      "SCREENING" for CONSENTED / ELIGIBLE rows
      "TREATMENT" for RANDOMIZED / RECEIVEDINTERVENTION / PRIMARYOUTCOMESCOMPLETE /
        SECONDARYOUTCOMESCOMPLETE rows
      "FOLLOW-UP" for early-termination rows

  DSSTDTC:
    label: Start Date/Time of Disposition Event
    type: Char
    length: 10
    role: Timing
    core: Exp
    origin: CRF
    derivation: |
      Priority (highest first):
        1. Disposition-form CONSENTEDDT (for CONSENTED flag)
        2. Disposition-form EARLYTERMINATIONDATE (for ET rows)
        3. SE_ENROLLMENT startdate from Eligibility form (proxy date for all 580 subjects)
        4. Startdate of "3. Randomize" form (for RANDOMIZED rows)
      Dedup prefers rows with non-null DSSTDTC so that layer-2 proxy dates
      supersede layer-1 Disposition-form rows that have a null startdate.
      Known limitation (SD0022/SD1118): 1 row remains null — SS_MGH213's ADVERSE EVENT
      row has no EARLYTERMINATIONDATE in the source and the Disposition form carries
      no startdate; this is a genuine data gap in the synthetic export.

  DSSTDY:
    label: Study Day of Start of Disposition Event
    type: Num
    length: 8
    role: Timing
    core: Perm
    origin: Derived
    derivation: |
      Derived as: as.integer(as.Date(DSSTDTC) - as.Date(DM.RFSTDTC))
                  + ifelse(DSSTDTC >= RFSTDTC, 1L, 0L)
      Populated for 1441 / 1442 rows (all rows where both DSSTDTC and DM.RFSTDTC
      are non-null). Null for the 1 row where DSSTDTC is missing (data limitation).

  VISITNUM:
    label: Visit Number
    type: Num
    length: 8
    role: Timing
    core: Perm
    origin: CRF
    derivation: |
      From the OpenClinica study event OID of the contributing form, mapped via
      derive_visitnum() in ut_visits.R. SE_ENROLLMENT -> 1, SE_DISPOSITION -> 10.

  VISIT:
    label: Visit Name
    type: Char
    length: 40
    role: Timing
    core: Perm
    origin: CRF
    derivation: From OpenClinica eventname of the contributing form.
