STUDYID,DOMAIN,USUBJID,SUBJID,RFSTDTC,RFENDTC,RFXSTDTC,RFXENDTC,SITEID,AGE,AGEU,SEX,RACE,ETHNIC,ARMCD,ARM,ACTARMCD,ACTARM,COUNTRY
2020-001407-17-00,DM,2020-001407-17-00-P001,001,2025-10-16T11:43,2025-10-30,2025-10-16T11:43,2025-10-16T11:43,01,50,YEARS,F,WHITE,HISPANIC OR LATINO,50MG,EIDD-2801 50 mg Solution,50MG,EIDD-2801 50 mg Solution,GBR
2020-001407-17-00,DM,2020-001407-17-00-P002,002,2025-06-30T10:08,2025-07-14,2025-06-30T10:08,2025-06-30T10:08,01,22,YEARS,M,WHITE,HISPANIC OR LATINO,50MG,EIDD-2801 50 mg Solution,50MG,EIDD-2801 50 mg Solution,GBR
2020-001407-17-00,DM,2020-001407-17-00-P003,003,2025-12-27T09:07,2026-01-10,2025-12-27T09:07,2025-12-27T09:07,01,42,YEARS,M,WHITE,HISPANIC OR LATINO,50MG,EIDD-2801 50 mg Solution,50MG,EIDD-2801 50 mg Solution,GBR
2020-001407-17-00,DM,2020-001407-17-00-P004,004,2025-06-23T08:02,2025-07-07,2025-06-23T08:02,2025-06-23T08:02,01,27,YEARS,M,ASIAN,NOT HISPANIC OR LATINO,50MG,EIDD-2801 50 mg Solution,50MG,EIDD-2801 50 mg Solution,GBR
2020-001407-17-00,DM,2020-001407-17-00-P005,005,2026-01-07T09:41,2026-01-21,2026-01-07T09:41,2026-01-07T09:41,01,30,YEARS,F,ASIAN,NOT HISPANIC OR LATINO,50MG,EIDD-2801 50 mg Solution,50MG,EIDD-2801 50 mg Solution,GBR
2020-001407-17-00,DM,2020-001407-17-00-P006,006,2025-11-09T08:25,2025-11-23,2025-11-09T08:25,2025-11-09T08:25,01,45,YEARS,F,WHITE,NOT HISPANIC OR LATINO,50MG,EIDD-2801 50 mg Solution,50MG,EIDD-2801 50 mg Solution,GBR
2020-001407-17-00,DM,2020-001407-17-00-P007,007,2025-12-05T10:53,2025-12-19,2025-12-05T10:53,2025-12-05T10:53,01,23,YEARS,F,WHITE,NOT HISPANIC OR LATINO,50MG,EIDD-2801 50 mg Solution,50MG,EIDD-2801 50 mg Solution,GBR
2020-001407-17-00,DM,2020-001407-17-00-P008,008,2025-01-19T10:28,2025-02-02,2025-01-19T10:28,2025-01-19T10:28,01,47,YEARS,F,WHITE,NOT HISPANIC OR LATINO,50MG,EIDD-2801 50 mg Solution,50MG,EIDD-2801 50 mg Solution,GBR
2020-001407-17-00,DM,2020-001407-17-00-P009,009,2025-10-15T09:02,2025-10-29,2025-10-15T09:02,2025-10-15T09:02,01,43,YEARS,F,WHITE,NOT HISPANIC OR LATINO,50MG,EIDD-2801 50 mg Solution,50MG,EIDD-2801 50 mg Solution,GBR
2020-001407-17-00,DM,2020-001407-17-00-P010,010,2025-10-05T09:34,2025-10-19,2025-10-05T09:34,2025-10-05T09:34,01,20,YEARS,M,WHITE,HISPANIC OR LATINO,50MG,EIDD-2801 50 mg Solution,50MG,EIDD-2801 50 mg Solution,GBR
2020-001407-17-00,DM,2020-001407-17-00-P011,011,2025-05-15T08:10,2025-05-29,2025-05-15T08:10,2025-05-15T08:10,01,18,YEARS,F,WHITE,HISPANIC OR LATINO,50MG,EIDD-2801 50 mg Solution,50MG,EIDD-2801 50 mg Solution,GBR
2020-001407-17-00,DM,2020-001407-17-00-P012,012,,2025-10-18,,,01,50,YEARS,F,AMERICAN INDIAN OR ALASKA NATIVE,HISPANIC OR LATINO,SCRNFAIL,Screen Failure,SCRNFAIL,Screen Failure,GBR
2020-001407-17-00,DM,2020-001407-17-00-P013,013,2025-05-20T10:26,2025-06-03,2025-05-20T10:26,2025-05-20T10:26,01,24,YEARS,F,OTHER,HISPANIC OR LATINO,50MG,EIDD-2801 50 mg Solution,50MG,EIDD-2801 50 mg Solution,GBR
2020-001407-17-00,DM,2020-001407-17-00-P014,014,2025-07-18T11:20,2025-08-01,2025-07-18T11:20,2025-07-18T11:20,01,46,YEARS,F,ASIAN,NOT HISPANIC OR LATINO,50MG,EIDD-2801 50 mg Solution,50MG,EIDD-2801 50 mg Solution,GBR
2020-001407-17-00,DM,2020-001407-17-00-P015,015,2025-12-11T10:53,2025-12-25,2025-12-11T10:53,2025-12-11T10:53,01,39,YEARS,F,BLACK OR AFRICAN AMERICAN,NOT HISPANIC OR LATINO,50MG,EIDD-2801 50 mg Solution,50MG,EIDD-2801 50 mg Solution,GBR
2020-001407-17-00,DM,2020-001407-17-00-P016,016,2025-04-12T11:58,2025-04-26,2025-04-12T11:58,2025-04-12T11:58,01,30,YEARS,M,AMERICAN INDIAN OR ALASKA NATIVE,NOT HISPANIC OR LATINO,50MG,EIDD-2801 50 mg Solution,50MG,EIDD-2801 50 mg Solution,GBR
2020-001407-17-00,DM,2020-001407-17-00-P017,017,2025-07-03T11:56,2025-07-17,2025-07-03T11:56,2025-07-03T11:56,01,40,YEARS,M,ASIAN,NOT HISPANIC OR LATINO,50MG,EIDD-2801 50 mg Solution,50MG,EIDD-2801 50 mg Solution,GBR
2020-001407-17-00,DM,2020-001407-17-00-P018,018,2025-04-26T11:30,2025-05-10,2025-04-26T11:30,2025-04-26T11:30,01,33,YEARS,M,ASIAN,NOT HISPANIC OR LATINO,50MG,EIDD-2801 50 mg Solution,50MG,EIDD-2801 50 mg Solution,GBR
2020-001407-17-00,DM,2020-001407-17-00-P019,019,2025-06-27T08:43,2025-07-11,2025-06-27T08:43,2025-06-27T08:43,01,41,YEARS,M,WHITE,NOT HISPANIC OR LATINO,50MG,EIDD-2801 50 mg Solution,50MG,EIDD-2801 50 mg Solution,GBR
2020-001407-17-00,DM,2020-001407-17-00-P020,020,2025-09-21T11:07,2025-10-05,2025-09-21T11:07,2025-09-21T11:07,01,18,YEARS,M,WHITE,NOT HISPANIC OR LATINO,50MG,EIDD-2801 50 mg Solution,50MG,EIDD-2801 50 mg Solution,GBR
2020-001407-17-00,DM,2020-001407-17-00-P021,021,2025-10-29T10:13,2025-11-12,2025-10-29T10:13,2025-10-29T10:13,01,25,YEARS,F,WHITE,HISPANIC OR LATINO,50MG,EIDD-2801 50 mg Solution,50MG,EIDD-2801 50 mg Solution,GBR
2020-001407-17-00,DM,2020-001407-17-00-P022,022,2025-12-20T10:29,2026-01-03,2025-12-20T10:29,2025-12-20T10:29,01,22,YEARS,M,AMERICAN INDIAN OR ALASKA NATIVE,HISPANIC OR LATINO,50MG,EIDD-2801 50 mg Solution,50MG,EIDD-2801 50 mg Solution,GBR
2020-001407-17-00,DM,2020-001407-17-00-P023,023,2025-02-27T08:14,2025-03-13,2025-02-27T08:14,2025-02-27T08:14,01,26,YEARS,M,AMERICAN INDIAN OR ALASKA NATIVE,NOT HISPANIC OR LATINO,50MG,EIDD-2801 50 mg Solution,50MG,EIDD-2801 50 mg Solution,GBR
2020-001407-17-00,DM,2020-001407-17-00-P024,024,2025-09-10T11:24,2025-09-24,2025-09-10T11:24,2025-09-10T11:24,01,44,YEARS,M,AMERICAN INDIAN OR ALASKA NATIVE,HISPANIC OR LATINO,50MG,EIDD-2801 50 mg Solution,50MG,EIDD-2801 50 mg Solution,GBR
2020-001407-17-00,DM,2020-001407-17-00-P025,025,2025-12-18T09:40,2026-01-01,2025-12-18T09:40,2025-12-18T09:40,01,39,YEARS,M,OTHER,NOT HISPANIC OR LATINO,50MG,EIDD-2801 50 mg Solution,50MG,EIDD-2801 50 mg Solution,GBR
2020-001407-17-00,DM,2020-001407-17-00-P026,026,2025-12-08T08:33,2025-12-22,2025-12-08T08:33,2025-12-08T08:33,01,40,YEARS,F,AMERICAN INDIAN OR ALASKA NATIVE,NOT HISPANIC OR LATINO,50MG,EIDD-2801 50 mg Solution,50MG,EIDD-2801 50 mg Solution,GBR
2020-001407-17-00,DM,2020-001407-17-00-P027,027,2025-04-04T09:15,2025-04-18,2025-04-04T09:15,2025-04-04T09:15,01,23,YEARS,F,OTHER,NOT HISPANIC OR LATINO,50MG,EIDD-2801 50 mg Solution,50MG,EIDD-2801 50 mg Solution,GBR
2020-001407-17-00,DM,2020-001407-17-00-P028,028,2025-02-16T11:53,2025-03-02,2025-02-16T11:53,2025-02-16T11:53,01,30,YEARS,F,BLACK OR AFRICAN AMERICAN,HISPANIC OR LATINO,50MG,EIDD-2801 50 mg Solution,50MG,EIDD-2801 50 mg Solution,GBR
2020-001407-17-00,DM,2020-001407-17-00-P029,029,2025-08-29T08:33,2025-09-12,2025-08-29T08:33,2025-08-29T08:33,01,39,YEARS,M,WHITE,NOT HISPANIC OR LATINO,50MG,EIDD-2801 50 mg Solution,50MG,EIDD-2801 50 mg Solution,GBR
2020-001407-17-00,DM,2020-001407-17-00-P030,030,2025-03-31T10:53,2025-04-14,2025-03-31T10:53,2025-03-31T10:53,01,27,YEARS,M,BLACK OR AFRICAN AMERICAN,NOT HISPANIC OR LATINO,50MG,EIDD-2801 50 mg Solution,50MG,EIDD-2801 50 mg Solution,GBR
2020-001407-17-00,DM,2020-001407-17-00-P031,031,2025-11-15T10:36,2025-11-29,2025-11-15T10:36,2025-11-15T10:36,01,27,YEARS,M,WHITE,NOT HISPANIC OR LATINO,50MG,EIDD-2801 50 mg Solution,50MG,EIDD-2801 50 mg Solution,GBR
2020-001407-17-00,DM,2020-001407-17-00-P032,032,2025-04-28T11:53,2025-05-12,2025-04-28T11:53,2025-04-28T11:53,01,20,YEARS,M,WHITE,NOT HISPANIC OR LATINO,50MG,EIDD-2801 50 mg Solution,50MG,EIDD-2801 50 mg Solution,GBR
2020-001407-17-00,DM,2020-001407-17-00-P033,033,2025-03-17T10:21,2025-03-31,2025-03-17T10:21,2025-03-17T10:21,01,18,YEARS,F,BLACK OR AFRICAN AMERICAN,NOT HISPANIC OR LATINO,50MG,EIDD-2801 50 mg Solution,50MG,EIDD-2801 50 mg Solution,GBR
2020-001407-17-00,DM,2020-001407-17-00-P034,034,2025-07-08T09:52,2025-07-22,2025-07-08T09:52,2025-07-08T09:52,01,50,YEARS,F,WHITE,NOT HISPANIC OR LATINO,50MG,EIDD-2801 50 mg Solution,50MG,EIDD-2801 50 mg Solution,GBR
2020-001407-17-00,DM,2020-001407-17-00-P035,035,2025-09-25T10:00,2025-10-09,2025-09-25T10:00,2025-09-25T10:00,01,24,YEARS,F,WHITE,NOT HISPANIC OR LATINO,50MG,EIDD-2801 50 mg Solution,50MG,EIDD-2801 50 mg Solution,GBR
2020-001407-17-00,DM,2020-001407-17-00-P036,036,2025-03-10T08:00,2025-03-24,2025-03-10T08:00,2025-03-10T08:00,01,23,YEARS,F,AMERICAN INDIAN OR ALASKA NATIVE,HISPANIC OR LATINO,50MG,EIDD-2801 50 mg Solution,50MG,EIDD-2801 50 mg Solution,GBR
2020-001407-17-00,DM,2020-001407-17-00-P037,037,2025-02-10T08:30,2025-02-24,2025-02-10T08:30,2025-02-10T08:30,01,46,YEARS,F,ASIAN,HISPANIC OR LATINO,50MG,EIDD-2801 50 mg Solution,50MG,EIDD-2801 50 mg Solution,GBR
2020-001407-17-00,DM,2020-001407-17-00-P038,038,2025-12-29T10:42,2026-01-12,2025-12-29T10:42,2025-12-29T10:42,01,47,YEARS,F,WHITE,HISPANIC OR LATINO,50MG,EIDD-2801 50 mg Solution,50MG,EIDD-2801 50 mg Solution,GBR
2020-001407-17-00,DM,2020-001407-17-00-P039,039,2025-04-14T08:52,2025-04-28,2025-04-14T08:52,2025-04-14T08:52,01,26,YEARS,M,WHITE,NOT HISPANIC OR LATINO,50MG,EIDD-2801 50 mg Solution,50MG,EIDD-2801 50 mg Solution,GBR
2020-001407-17-00,DM,2020-001407-17-00-P040,040,2025-10-04T10:17,2025-10-18,2025-10-04T10:17,2025-10-04T10:17,01,41,YEARS,F,AMERICAN INDIAN OR ALASKA NATIVE,HISPANIC OR LATINO,50MG,EIDD-2801 50 mg Solution,50MG,EIDD-2801 50 mg Solution,GBR
2020-001407-17-00,DM,2020-001407-17-00-P041,041,2025-03-09T10:49,2025-03-23,2025-03-09T10:49,2025-03-09T10:49,01,49,YEARS,F,AMERICAN INDIAN OR ALASKA NATIVE,NOT HISPANIC OR LATINO,50MG,EIDD-2801 50 mg Solution,50MG,EIDD-2801 50 mg Solution,GBR
2020-001407-17-00,DM,2020-001407-17-00-P042,042,2025-08-27T10:29,2025-09-10,2025-08-27T10:29,2025-08-27T10:29,01,36,YEARS,F,BLACK OR AFRICAN AMERICAN,NOT HISPANIC OR LATINO,50MG,EIDD-2801 50 mg Solution,50MG,EIDD-2801 50 mg Solution,GBR
2020-001407-17-00,DM,2020-001407-17-00-P043,043,2025-11-01T08:05,2025-11-15,2025-11-01T08:05,2025-11-01T08:05,01,24,YEARS,F,WHITE,NOT HISPANIC OR LATINO,50MG,EIDD-2801 50 mg Solution,50MG,EIDD-2801 50 mg Solution,GBR
2020-001407-17-00,DM,2020-001407-17-00-P044,044,2025-11-06T10:44,2025-11-20,2025-11-06T10:44,2025-11-06T10:44,01,35,YEARS,F,ASIAN,HISPANIC OR LATINO,50MG,EIDD-2801 50 mg Solution,50MG,EIDD-2801 50 mg Solution,GBR
2020-001407-17-00,DM,2020-001407-17-00-P045,045,2025-06-09T09:10,2025-06-23,2025-06-09T09:10,2025-06-09T09:10,01,21,YEARS,F,WHITE,HISPANIC OR LATINO,50MG,EIDD-2801 50 mg Solution,50MG,EIDD-2801 50 mg Solution,GBR
2020-001407-17-00,DM,2020-001407-17-00-P046,046,2025-04-19T09:30,2025-05-03,2025-04-19T09:30,2025-04-19T09:30,01,23,YEARS,F,ASIAN,HISPANIC OR LATINO,50MG,EIDD-2801 50 mg Solution,50MG,EIDD-2801 50 mg Solution,GBR
2020-001407-17-00,DM,2020-001407-17-00-P047,047,2025-04-05T09:56,2025-04-19,2025-04-05T09:56,2025-04-05T09:56,01,48,YEARS,F,WHITE,NOT HISPANIC OR LATINO,50MG,EIDD-2801 50 mg Solution,50MG,EIDD-2801 50 mg Solution,GBR
2020-001407-17-00,DM,2020-001407-17-00-P048,048,2025-02-28T08:42,2025-03-14,2025-02-28T08:42,2025-02-28T08:42,01,18,YEARS,F,BLACK OR AFRICAN AMERICAN,HISPANIC OR LATINO,50MG,EIDD-2801 50 mg Solution,50MG,EIDD-2801 50 mg Solution,GBR
2020-001407-17-00,DM,2020-001407-17-00-P049,049,2025-06-13T08:24,2025-06-27,2025-06-13T08:24,2025-06-13T08:24,01,34,YEARS,F,ASIAN,NOT HISPANIC OR LATINO,50MG,EIDD-2801 50 mg Solution,50MG,EIDD-2801 50 mg Solution,GBR
2020-001407-17-00,DM,2020-001407-17-00-P050,050,2025-05-20T09:57,2025-06-03,2025-05-20T09:57,2025-05-20T09:57,01,36,YEARS,M,WHITE,NOT HISPANIC OR LATINO,50MG,EIDD-2801 50 mg Solution,50MG,EIDD-2801 50 mg Solution,GBR
2020-001407-17-00,DM,2020-001407-17-00-P051,051,2025-02-14T08:01,2025-02-28,2025-02-14T08:01,2025-02-14T08:01,01,25,YEARS,F,WHITE,NOT HISPANIC OR LATINO,50MG,EIDD-2801 50 mg Solution,50MG,EIDD-2801 50 mg Solution,GBR
2020-001407-17-00,DM,2020-001407-17-00-P052,052,2025-10-22T10:29,2025-11-05,2025-10-22T10:29,2025-10-22T10:29,01,29,YEARS,F,WHITE,NOT HISPANIC OR LATINO,50MG,EIDD-2801 50 mg Solution,50MG,EIDD-2801 50 mg Solution,GBR
2020-001407-17-00,DM,2020-001407-17-00-P053,053,2025-09-15T08:08,2025-09-29,2025-09-15T08:08,2025-09-15T08:08,01,51,YEARS,M,AMERICAN INDIAN OR ALASKA NATIVE,HISPANIC OR LATINO,50MG,EIDD-2801 50 mg Solution,50MG,EIDD-2801 50 mg Solution,GBR
2020-001407-17-00,DM,2020-001407-17-00-P054,054,2025-12-08T08:43,2025-12-22,2025-12-08T08:43,2025-12-08T08:43,01,28,YEARS,M,ASIAN,NOT HISPANIC OR LATINO,50MG,EIDD-2801 50 mg Solution,50MG,EIDD-2801 50 mg Solution,GBR
2020-001407-17-00,DM,2020-001407-17-00-P055,055,,2025-07-19,,,01,46,YEARS,M,WHITE,NOT HISPANIC OR LATINO,SCRNFAIL,Screen Failure,SCRNFAIL,Screen Failure,GBR
2020-001407-17-00,DM,2020-001407-17-00-P056,056,2025-09-15T11:41,2025-09-29,2025-09-15T11:41,2025-09-15T11:41,01,47,YEARS,F,WHITE,NOT HISPANIC OR LATINO,50MG,EIDD-2801 50 mg Solution,50MG,EIDD-2801 50 mg Solution,GBR
2020-001407-17-00,DM,2020-001407-17-00-P057,057,2025-03-12T11:57,2025-03-26,2025-03-12T11:57,2025-03-12T11:57,01,27,YEARS,F,AMERICAN INDIAN OR ALASKA NATIVE,HISPANIC OR LATINO,50MG,EIDD-2801 50 mg Solution,50MG,EIDD-2801 50 mg Solution,GBR
2020-001407-17-00,DM,2020-001407-17-00-P058,058,,2025-04-14,,,01,18,YEARS,M,BLACK OR AFRICAN AMERICAN,NOT HISPANIC OR LATINO,SCRNFAIL,Screen Failure,SCRNFAIL,Screen Failure,GBR
2020-001407-17-00,DM,2020-001407-17-00-P059,059,2025-08-27T09:32,2025-09-10,2025-08-27T09:32,2025-08-27T09:32,01,30,YEARS,F,BLACK OR AFRICAN AMERICAN,NOT HISPANIC OR LATINO,50MG,EIDD-2801 50 mg Solution,50MG,EIDD-2801 50 mg Solution,GBR
2020-001407-17-00,DM,2020-001407-17-00-P060,060,2025-12-24T10:15,2026-01-07,2025-12-24T10:15,2025-12-24T10:15,01,33,YEARS,F,ASIAN,HISPANIC OR LATINO,50MG,EIDD-2801 50 mg Solution,50MG,EIDD-2801 50 mg Solution,GBR
2020-001407-17-00,DM,2020-001407-17-00-P061,061,2025-11-15T09:47,2025-11-29,2025-11-15T09:47,2025-11-15T09:47,01,48,YEARS,M,WHITE,NOT HISPANIC OR LATINO,50MG,EIDD-2801 50 mg Solution,50MG,EIDD-2801 50 mg Solution,GBR
2020-001407-17-00,DM,2020-001407-17-00-P062,062,2025-09-05T10:43,2025-09-19,2025-09-05T10:43,2025-09-05T10:43,01,54,YEARS,M,AMERICAN INDIAN OR ALASKA NATIVE,HISPANIC OR LATINO,50MG,EIDD-2801 50 mg Solution,50MG,EIDD-2801 50 mg Solution,GBR
2020-001407-17-00,DM,2020-001407-17-00-P063,063,2025-01-21T09:55,2025-02-04,2025-01-21T09:55,2025-01-21T09:55,01,51,YEARS,F,WHITE,NOT HISPANIC OR LATINO,50MG,EIDD-2801 50 mg Solution,50MG,EIDD-2801 50 mg Solution,GBR
2020-001407-17-00,DM,2020-001407-17-00-P064,064,2025-06-19T09:39,2025-07-03,2025-06-19T09:39,2025-06-19T09:39,01,40,YEARS,F,WHITE,HISPANIC OR LATINO,50MG,EIDD-2801 50 mg Solution,50MG,EIDD-2801 50 mg Solution,GBR
2020-001407-17-00,DM,2020-001407-17-00-P065,065,2025-05-24T11:58,2025-06-07,2025-05-24T11:58,2025-05-24T11:58,01,28,YEARS,M,OTHER,NOT HISPANIC OR LATINO,50MG,EIDD-2801 50 mg Solution,50MG,EIDD-2801 50 mg Solution,GBR
2020-001407-17-00,DM,2020-001407-17-00-P066,066,2025-05-17T10:43,2025-05-31,2025-05-17T10:43,2025-05-17T10:43,01,40,YEARS,F,OTHER,NOT HISPANIC OR LATINO,50MG,EIDD-2801 50 mg Solution,50MG,EIDD-2801 50 mg Solution,GBR
2020-001407-17-00,DM,2020-001407-17-00-P067,067,2025-10-25T08:54,2025-11-08,2025-10-25T08:54,2025-10-25T08:54,01,33,YEARS,F,WHITE,NOT HISPANIC OR LATINO,50MG,EIDD-2801 50 mg Solution,50MG,EIDD-2801 50 mg Solution,GBR
2020-001407-17-00,DM,2020-001407-17-00-P068,068,2025-03-11T08:49,2025-03-25,2025-03-11T08:49,2025-03-11T08:49,01,46,YEARS,M,AMERICAN INDIAN OR ALASKA NATIVE,NOT HISPANIC OR LATINO,50MG,EIDD-2801 50 mg Solution,50MG,EIDD-2801 50 mg Solution,GBR
2020-001407-17-00,DM,2020-001407-17-00-P069,069,2025-02-10T09:48,2025-02-24,2025-02-10T09:48,2025-02-10T09:48,01,37,YEARS,F,OTHER,NOT HISPANIC OR LATINO,50MG,EIDD-2801 50 mg Solution,50MG,EIDD-2801 50 mg Solution,GBR
2020-001407-17-00,DM,2020-001407-17-00-P070,070,2025-09-24T11:49,2025-10-08,2025-09-24T11:49,2025-09-24T11:49,01,30,YEARS,F,WHITE,NOT HISPANIC OR LATINO,50MG,EIDD-2801 50 mg Solution,50MG,EIDD-2801 50 mg Solution,GBR
2020-001407-17-00,DM,2020-001407-17-00-P071,071,2025-03-06T09:58,2025-03-20,2025-03-06T09:58,2025-03-06T09:58,01,45,YEARS,M,WHITE,NOT HISPANIC OR LATINO,50MG,EIDD-2801 50 mg Solution,50MG,EIDD-2801 50 mg Solution,GBR
2020-001407-17-00,DM,2020-001407-17-00-P072,072,2025-05-06T10:02,2025-05-20,2025-05-06T10:02,2025-05-06T10:02,01,19,YEARS,M,BLACK OR AFRICAN AMERICAN,NOT HISPANIC OR LATINO,50MG,EIDD-2801 50 mg Solution,50MG,EIDD-2801 50 mg Solution,GBR
2020-001407-17-00,DM,2020-001407-17-00-P073,073,2025-11-04T11:00,2025-11-18,2025-11-04T11:00,2025-11-04T11:00,01,49,YEARS,F,BLACK OR AFRICAN AMERICAN,NOT HISPANIC OR LATINO,50MG,EIDD-2801 50 mg Solution,50MG,EIDD-2801 50 mg Solution,GBR
2020-001407-17-00,DM,2020-001407-17-00-P074,074,2025-11-15T10:22,2025-11-29,2025-11-15T10:22,2025-11-15T10:22,01,41,YEARS,M,ASIAN,NOT HISPANIC OR LATINO,50MG,EIDD-2801 50 mg Solution,50MG,EIDD-2801 50 mg Solution,GBR
2020-001407-17-00,DM,2020-001407-17-00-P075,075,2025-08-16T10:00,2025-08-30,2025-08-16T10:00,2025-08-16T10:00,01,54,YEARS,M,WHITE,NOT HISPANIC OR LATINO,50MG,EIDD-2801 50 mg Solution,50MG,EIDD-2801 50 mg Solution,GBR
2020-001407-17-00,DM,2020-001407-17-00-P076,076,2025-07-24T10:43,2025-08-07,2025-07-24T10:43,2025-07-24T10:43,01,38,YEARS,M,AMERICAN INDIAN OR ALASKA NATIVE,HISPANIC OR LATINO,50MG,EIDD-2801 50 mg Solution,50MG,EIDD-2801 50 mg Solution,GBR
2020-001407-17-00,DM,2020-001407-17-00-P077,077,2026-01-01T11:16,2026-01-15,2026-01-01T11:16,2026-01-01T11:16,01,43,YEARS,M,AMERICAN INDIAN OR ALASKA NATIVE,NOT HISPANIC OR LATINO,50MG,EIDD-2801 50 mg Solution,50MG,EIDD-2801 50 mg Solution,GBR
2020-001407-17-00,DM,2020-001407-17-00-P078,078,2025-05-03T09:57,2025-05-17,2025-05-03T09:57,2025-05-03T09:57,01,43,YEARS,M,ASIAN,NOT HISPANIC OR LATINO,50MG,EIDD-2801 50 mg Solution,50MG,EIDD-2801 50 mg Solution,GBR
2020-001407-17-00,DM,2020-001407-17-00-P079,079,2026-01-02T10:20,2026-01-16,2026-01-02T10:20,2026-01-02T10:20,01,47,YEARS,F,OTHER,NOT HISPANIC OR LATINO,50MG,EIDD-2801 50 mg Solution,50MG,EIDD-2801 50 mg Solution,GBR
2020-001407-17-00,DM,2020-001407-17-00-P080,080,2025-04-04T10:25,2025-04-18,2025-04-04T10:25,2025-04-04T10:25,01,24,YEARS,M,AMERICAN INDIAN OR ALASKA NATIVE,HISPANIC OR LATINO,50MG,EIDD-2801 50 mg Solution,50MG,EIDD-2801 50 mg Solution,GBR
2020-001407-17-00,DM,2020-001407-17-00-P081,081,2025-10-09T11:18,2025-10-23,2025-10-09T11:18,2025-10-09T11:18,01,32,YEARS,F,ASIAN,HISPANIC OR LATINO,50MG,EIDD-2801 50 mg Solution,50MG,EIDD-2801 50 mg Solution,GBR
2020-001407-17-00,DM,2020-001407-17-00-P082,082,2025-03-13T10:06,2025-03-27,2025-03-13T10:06,2025-03-13T10:06,01,54,YEARS,M,WHITE,NOT HISPANIC OR LATINO,50MG,EIDD-2801 50 mg Solution,50MG,EIDD-2801 50 mg Solution,GBR
2020-001407-17-00,DM,2020-001407-17-00-P083,083,2025-03-25T08:40,2025-04-08,2025-03-25T08:40,2025-03-25T08:40,01,20,YEARS,M,WHITE,NOT HISPANIC OR LATINO,50MG,EIDD-2801 50 mg Solution,50MG,EIDD-2801 50 mg Solution,GBR
2020-001407-17-00,DM,2020-001407-17-00-P084,084,2025-06-23T11:35,2025-07-07,2025-06-23T11:35,2025-06-23T11:35,01,45,YEARS,F,ASIAN,HISPANIC OR LATINO,50MG,EIDD-2801 50 mg Solution,50MG,EIDD-2801 50 mg Solution,GBR
2020-001407-17-00,DM,2020-001407-17-00-P085,085,2025-01-24T10:01,2025-02-07,2025-01-24T10:01,2025-01-24T10:01,01,23,YEARS,M,WHITE,NOT HISPANIC OR LATINO,50MG,EIDD-2801 50 mg Solution,50MG,EIDD-2801 50 mg Solution,GBR
2020-001407-17-00,DM,2020-001407-17-00-P086,086,2025-02-09T08:29,2025-02-23,2025-02-09T08:29,2025-02-09T08:29,01,54,YEARS,M,BLACK OR AFRICAN AMERICAN,NOT HISPANIC OR LATINO,50MG,EIDD-2801 50 mg Solution,50MG,EIDD-2801 50 mg Solution,GBR
2020-001407-17-00,DM,2020-001407-17-00-P087,087,2025-07-29T10:34,2025-08-12,2025-07-29T10:34,2025-07-29T10:34,01,46,YEARS,F,BLACK OR AFRICAN AMERICAN,NOT HISPANIC OR LATINO,50MG,EIDD-2801 50 mg Solution,50MG,EIDD-2801 50 mg Solution,GBR
2020-001407-17-00,DM,2020-001407-17-00-P088,088,2025-12-18T11:40,2026-01-01,2025-12-18T11:40,2025-12-18T11:40,01,41,YEARS,F,WHITE,NOT HISPANIC OR LATINO,50MG,EIDD-2801 50 mg Solution,50MG,EIDD-2801 50 mg Solution,GBR
2020-001407-17-00,DM,2020-001407-17-00-P089,089,,2025-01-29,,,01,45,YEARS,M,BLACK OR AFRICAN AMERICAN,NOT HISPANIC OR LATINO,SCRNFAIL,Screen Failure,SCRNFAIL,Screen Failure,GBR
2020-001407-17-00,DM,2020-001407-17-00-P090,090,2025-12-16T11:16,2025-12-30,2025-12-16T11:16,2025-12-16T11:16,01,22,YEARS,F,AMERICAN INDIAN OR ALASKA NATIVE,NOT HISPANIC OR LATINO,50MG,EIDD-2801 50 mg Solution,50MG,EIDD-2801 50 mg Solution,GBR
2020-001407-17-00,DM,2020-001407-17-00-P091,091,2025-12-22T10:45,2026-01-05,2025-12-22T10:45,2025-12-22T10:45,01,36,YEARS,F,BLACK OR AFRICAN AMERICAN,HISPANIC OR LATINO,50MG,EIDD-2801 50 mg Solution,50MG,EIDD-2801 50 mg Solution,GBR
2020-001407-17-00,DM,2020-001407-17-00-P092,092,2025-03-21T10:22,2025-04-04,2025-03-21T10:22,2025-03-21T10:22,01,27,YEARS,M,WHITE,NOT HISPANIC OR LATINO,50MG,EIDD-2801 50 mg Solution,50MG,EIDD-2801 50 mg Solution,GBR
2020-001407-17-00,DM,2020-001407-17-00-P093,093,2025-12-23T09:08,2026-01-06,2025-12-23T09:08,2025-12-23T09:08,01,50,YEARS,M,BLACK OR AFRICAN AMERICAN,NOT HISPANIC OR LATINO,50MG,EIDD-2801 50 mg Solution,50MG,EIDD-2801 50 mg Solution,GBR
2020-001407-17-00,DM,2020-001407-17-00-P094,094,2025-11-27T08:00,2025-12-11,2025-11-27T08:00,2025-11-27T08:00,01,38,YEARS,F,WHITE,NOT HISPANIC OR LATINO,50MG,EIDD-2801 50 mg Solution,50MG,EIDD-2801 50 mg Solution,GBR
2020-001407-17-00,DM,2020-001407-17-00-P095,095,2025-08-19T10:18,2025-09-02,2025-08-19T10:18,2025-08-19T10:18,01,39,YEARS,M,ASIAN,NOT HISPANIC OR LATINO,50MG,EIDD-2801 50 mg Solution,50MG,EIDD-2801 50 mg Solution,GBR
2020-001407-17-00,DM,2020-001407-17-00-P096,096,2025-06-30T10:21,2025-07-14,2025-06-30T10:21,2025-06-30T10:21,01,21,YEARS,F,AMERICAN INDIAN OR ALASKA NATIVE,NOT HISPANIC OR LATINO,50MG,EIDD-2801 50 mg Solution,50MG,EIDD-2801 50 mg Solution,GBR
2020-001407-17-00,DM,2020-001407-17-00-P097,097,2025-02-03T08:59,2025-02-17,2025-02-03T08:59,2025-02-03T08:59,01,33,YEARS,M,OTHER,NOT HISPANIC OR LATINO,50MG,EIDD-2801 50 mg Solution,50MG,EIDD-2801 50 mg Solution,GBR
2020-001407-17-00,DM,2020-001407-17-00-P098,098,2025-10-17T10:49,2025-10-31,2025-10-17T10:49,2025-10-17T10:49,01,49,YEARS,F,WHITE,NOT HISPANIC OR LATINO,50MG,EIDD-2801 50 mg Solution,50MG,EIDD-2801 50 mg Solution,GBR
2020-001407-17-00,DM,2020-001407-17-00-P099,099,2025-10-03T08:05,2025-10-17,2025-10-03T08:05,2025-10-03T08:05,01,36,YEARS,F,ASIAN,NOT HISPANIC OR LATINO,50MG,EIDD-2801 50 mg Solution,50MG,EIDD-2801 50 mg Solution,GBR
2020-001407-17-00,DM,2020-001407-17-00-P100,100,,2025-03-15,,,01,53,YEARS,F,OTHER,HISPANIC OR LATINO,SCRNFAIL,Screen Failure,SCRNFAIL,Screen Failure,GBR
