[
  {
    "STUDYID": "CDISCPILOT01",
    "DOMAIN": "DS",
    "USUBJID": "01-701-001",
    "DSSEQ": 1,
    "DSTERM": "INFORMED CONSENT OBTAINED",
    "DSDECOD": "INFORMED CONSENT OBTAINED",
    "DSCAT": "PROTOCOL MILESTONE",
    "DSSCAT": "",
    "DSSTDTC": "2013-06-11"
  },
  {
    "STUDYID": "CDISCPILOT01",
    "DOMAIN": "DS",
    "USUBJID": "01-701-001",
    "DSSEQ": 2,
    "DSTERM": "RANDOMIZED",
    "DSDECOD": "RANDOMIZED",
    "DSCAT": "PROTOCOL MILESTONE",
    "DSSCAT": "",
    "DSSTDTC": "2013-06-18",
    "DSDY": 1
  },
  {
    "STUDYID": "CDISCPILOT01",
    "DOMAIN": "DS",
    "USUBJID": "01-701-001",
    "DSSEQ": 3,
    "DSTERM": "COMPLETED TREATMENT",
    "DSDECOD": "COMPLETED",
    "DSCAT": "DISPOSITION EVENT",
    "DSSCAT": "TREATMENT",
    "DSSTDTC": "2013-12-03",
    "DSDY": 169
  },
  {
    "STUDYID": "CDISCPILOT01",
    "DOMAIN": "DS",
    "USUBJID": "01-701-001",
    "DSSEQ": 4,
    "DSTERM": "WITHDREW CONSENT",
    "DSDECOD": "WITHDREW CONSENT",
    "DSCAT": "DISPOSITION EVENT",
    "DSSCAT": "STUDY",
    "DSSTDTC": "2013-12-13",
    "DSDY": 179
  },
  {
    "STUDYID": "CDISCPILOT01",
    "DOMAIN": "DS",
    "USUBJID": "01-701-002",
    "DSSEQ": 1,
    "DSTERM": "INFORMED CONSENT OBTAINED",
    "DSDECOD": "INFORMED CONSENT OBTAINED",
    "DSCAT": "PROTOCOL MILESTONE",
    "DSSCAT": "",
    "DSSTDTC": "2013-03-13"
  },
  {
    "STUDYID": "CDISCPILOT01",
    "DOMAIN": "DS",
    "USUBJID": "01-701-002",
    "DSSEQ": 2,
    "DSTERM": "RANDOMIZED",
    "DSDECOD": "RANDOMIZED",
    "DSCAT": "PROTOCOL MILESTONE",
    "DSSCAT": "",
    "DSSTDTC": "2013-03-31",
    "DSDY": 1
  },
  {
    "STUDYID": "CDISCPILOT01",
    "DOMAIN": "DS",
    "USUBJID": "01-701-002",
    "DSSEQ": 3,
    "DSTERM": "COMPLETED TREATMENT",
    "DSDECOD": "COMPLETED",
    "DSCAT": "DISPOSITION EVENT",
    "DSSCAT": "TREATMENT",
    "DSSTDTC": "2013-09-15",
    "DSDY": 169
  },
  {
    "STUDYID": "CDISCPILOT01",
    "DOMAIN": "DS",
    "USUBJID": "01-701-002",
    "DSSEQ": 4,
    "DSTERM": "WITHDREW CONSENT",
    "DSDECOD": "WITHDREW CONSENT",
    "DSCAT": "DISPOSITION EVENT",
    "DSSCAT": "STUDY",
    "DSSTDTC": "2013-09-18",
    "DSDY": 172
  },
  {
    "STUDYID": "CDISCPILOT01",
    "DOMAIN": "DS",
    "USUBJID": "01-701-003",
    "DSSEQ": 1,
    "DSTERM": "INFORMED CONSENT OBTAINED",
    "DSDECOD": "INFORMED CONSENT OBTAINED",
    "DSCAT": "PROTOCOL MILESTONE",
    "DSSCAT": "",
    "DSSTDTC": "2012-12-12"
  },
  {
    "STUDYID": "CDISCPILOT01",
    "DOMAIN": "DS",
    "USUBJID": "01-701-003",
    "DSSEQ": 2,
    "DSTERM": "RANDOMIZED",
    "DSDECOD": "RANDOMIZED",
    "DSCAT": "PROTOCOL MILESTONE",
    "DSSCAT": "",
    "DSSTDTC": "2013-01-01",
    "DSDY": 1
  },
  {
    "STUDYID": "CDISCPILOT01",
    "DOMAIN": "DS",
    "USUBJID": "01-701-003",
    "DSSEQ": 3,
    "DSTERM": "COMPLETED TREATMENT",
    "DSDECOD": "COMPLETED",
    "DSCAT": "DISPOSITION EVENT",
    "DSSCAT": "TREATMENT",
    "DSSTDTC": "2013-06-18",
    "DSDY": 169
  },
  {
    "STUDYID": "CDISCPILOT01",
    "DOMAIN": "DS",
    "USUBJID": "01-701-003",
    "DSSEQ": 4,
    "DSTERM": "COMPLETED STUDY",
    "DSDECOD": "COMPLETED",
    "DSCAT": "DISPOSITION EVENT",
    "DSSCAT": "STUDY",
    "DSSTDTC": "2013-07-02",
    "DSDY": 183
  },
  {
    "STUDYID": "CDISCPILOT01",
    "DOMAIN": "DS",
    "USUBJID": "01-701-004",
    "DSSEQ": 1,
    "DSTERM": "INFORMED CONSENT OBTAINED",
    "DSDECOD": "INFORMED CONSENT OBTAINED",
    "DSCAT": "PROTOCOL MILESTONE",
    "DSSCAT": "",
    "DSSTDTC": "2013-08-15"
  },
  {
    "STUDYID": "CDISCPILOT01",
    "DOMAIN": "DS",
    "USUBJID": "01-701-004",
    "DSSEQ": 2,
    "DSTERM": "RANDOMIZED",
    "DSDECOD": "RANDOMIZED",
    "DSCAT": "PROTOCOL MILESTONE",
    "DSSCAT": "",
    "DSSTDTC": "2013-08-24",
    "DSDY": 1
  },
  {
    "STUDYID": "CDISCPILOT01",
    "DOMAIN": "DS",
    "USUBJID": "01-701-004",
    "DSSEQ": 3,
    "DSTERM": "ADVERSE EVENT",
    "DSDECOD": "ADVERSE EVENT",
    "DSCAT": "DISPOSITION EVENT",
    "DSSCAT": "TREATMENT",
    "DSSTDTC": "2013-11-16",
    "DSDY": 85
  },
  {
    "STUDYID": "CDISCPILOT01",
    "DOMAIN": "DS",
    "USUBJID": "01-701-004",
    "DSSEQ": 4,
    "DSTERM": "ADVERSE EVENT",
    "DSDECOD": "ADVERSE EVENT",
    "DSCAT": "DISPOSITION EVENT",
    "DSSCAT": "STUDY",
    "DSSTDTC": "2013-11-17",
    "DSDY": 86
  },
  {
    "STUDYID": "CDISCPILOT01",
    "DOMAIN": "DS",
    "USUBJID": "01-701-005",
    "DSSEQ": 1,
    "DSTERM": "INFORMED CONSENT OBTAINED",
    "DSDECOD": "INFORMED CONSENT OBTAINED",
    "DSCAT": "PROTOCOL MILESTONE",
    "DSSCAT": "",
    "DSSTDTC": "2013-01-24"
  },
  {
    "STUDYID": "CDISCPILOT01",
    "DOMAIN": "DS",
    "USUBJID": "01-701-005",
    "DSSEQ": 2,
    "DSTERM": "RANDOMIZED",
    "DSDECOD": "RANDOMIZED",
    "DSCAT": "PROTOCOL MILESTONE",
    "DSSCAT": "",
    "DSSTDTC": "2013-02-07",
    "DSDY": 1
  },
  {
    "STUDYID": "CDISCPILOT01",
    "DOMAIN": "DS",
    "USUBJID": "01-701-005",
    "DSSEQ": 3,
    "DSTERM": "COMPLETED TREATMENT",
    "DSDECOD": "COMPLETED",
    "DSCAT": "DISPOSITION EVENT",
    "DSSCAT": "TREATMENT",
    "DSSTDTC": "2013-07-25",
    "DSDY": 169
  },
  {
    "STUDYID": "CDISCPILOT01",
    "DOMAIN": "DS",
    "USUBJID": "01-701-005",
    "DSSEQ": 4,
    "DSTERM": "COMPLETED STUDY",
    "DSDECOD": "COMPLETED",
    "DSCAT": "DISPOSITION EVENT",
    "DSSCAT": "STUDY",
    "DSSTDTC": "2013-08-08",
    "DSDY": 183
  },
  {
    "STUDYID": "CDISCPILOT01",
    "DOMAIN": "DS",
    "USUBJID": "01-701-006",
    "DSSEQ": 1,
    "DSTERM": "INFORMED CONSENT OBTAINED",
    "DSDECOD": "INFORMED CONSENT OBTAINED",
    "DSCAT": "PROTOCOL MILESTONE",
    "DSSCAT": "",
    "DSSTDTC": "2013-06-08"
  },
  {
    "STUDYID": "CDISCPILOT01",
    "DOMAIN": "DS",
    "USUBJID": "01-701-006",
    "DSSEQ": 2,
    "DSTERM": "RANDOMIZED",
    "DSDECOD": "RANDOMIZED",
    "DSCAT": "PROTOCOL MILESTONE",
    "DSSCAT": "",
    "DSSTDTC": "2013-06-26",
    "DSDY": 1
  },
  {
    "STUDYID": "CDISCPILOT01",
    "DOMAIN": "DS",
    "USUBJID": "01-701-006",
    "DSSEQ": 3,
    "DSTERM": "COMPLETED TREATMENT",
    "DSDECOD": "COMPLETED",
    "DSCAT": "DISPOSITION EVENT",
    "DSSCAT": "TREATMENT",
    "DSSTDTC": "2013-12-11",
    "DSDY": 169
  },
  {
    "STUDYID": "CDISCPILOT01",
    "DOMAIN": "DS",
    "USUBJID": "01-701-006",
    "DSSEQ": 4,
    "DSTERM": "COMPLETED STUDY",
    "DSDECOD": "COMPLETED",
    "DSCAT": "DISPOSITION EVENT",
    "DSSCAT": "STUDY",
    "DSSTDTC": "2013-12-25",
    "DSDY": 183
  },
  {
    "STUDYID": "CDISCPILOT01",
    "DOMAIN": "DS",
    "USUBJID": "01-701-007",
    "DSSEQ": 1,
    "DSTERM": "INFORMED CONSENT OBTAINED",
    "DSDECOD": "INFORMED CONSENT OBTAINED",
    "DSCAT": "PROTOCOL MILESTONE",
    "DSSCAT": "",
    "DSSTDTC": "2013-06-27"
  },
  {
    "STUDYID": "CDISCPILOT01",
    "DOMAIN": "DS",
    "USUBJID": "01-701-007",
    "DSSEQ": 2,
    "DSTERM": "RANDOMIZED",
    "DSDECOD": "RANDOMIZED",
    "DSCAT": "PROTOCOL MILESTONE",
    "DSSCAT": "",
    "DSSTDTC": "2013-07-15",
    "DSDY": 1
  },
  {
    "STUDYID": "CDISCPILOT01",
    "DOMAIN": "DS",
    "USUBJID": "01-701-007",
    "DSSEQ": 3,
    "DSTERM": "COMPLETED TREATMENT",
    "DSDECOD": "COMPLETED",
    "DSCAT": "DISPOSITION EVENT",
    "DSSCAT": "TREATMENT",
    "DSSTDTC": "2013-12-30",
    "DSDY": 169
  },
  {
    "STUDYID": "CDISCPILOT01",
    "DOMAIN": "DS",
    "USUBJID": "01-701-007",
    "DSSEQ": 4,
    "DSTERM": "COMPLETED STUDY",
    "DSDECOD": "COMPLETED",
    "DSCAT": "DISPOSITION EVENT",
    "DSSCAT": "STUDY",
    "DSSTDTC": "2014-01-13",
    "DSDY": 183
  },
  {
    "STUDYID": "CDISCPILOT01",
    "DOMAIN": "DS",
    "USUBJID": "01-701-008",
    "DSSEQ": 1,
    "DSTERM": "INFORMED CONSENT OBTAINED",
    "DSDECOD": "INFORMED CONSENT OBTAINED",
    "DSCAT": "PROTOCOL MILESTONE",
    "DSSCAT": "",
    "DSSTDTC": "2013-11-04"
  },
  {
    "STUDYID": "CDISCPILOT01",
    "DOMAIN": "DS",
    "USUBJID": "01-701-008",
    "DSSEQ": 2,
    "DSTERM": "RANDOMIZED",
    "DSDECOD": "RANDOMIZED",
    "DSCAT": "PROTOCOL MILESTONE",
    "DSSCAT": "",
    "DSSTDTC": "2013-11-23",
    "DSDY": 1
  },
  {
    "STUDYID": "CDISCPILOT01",
    "DOMAIN": "DS",
    "USUBJID": "01-701-008",
    "DSSEQ": 3,
    "DSTERM": "COMPLETED TREATMENT",
    "DSDECOD": "COMPLETED",
    "DSCAT": "DISPOSITION EVENT",
    "DSSCAT": "TREATMENT",
    "DSSTDTC": "2014-05-10",
    "DSDY": 169
  },
  {
    "STUDYID": "CDISCPILOT01",
    "DOMAIN": "DS",
    "USUBJID": "01-701-008",
    "DSSEQ": 4,
    "DSTERM": "COMPLETED STUDY",
    "DSDECOD": "COMPLETED",
    "DSCAT": "DISPOSITION EVENT",
    "DSSCAT": "STUDY",
    "DSSTDTC": "2014-05-24",
    "DSDY": 183
  },
  {
    "STUDYID": "CDISCPILOT01",
    "DOMAIN": "DS",
    "USUBJID": "01-701-009",
    "DSSEQ": 1,
    "DSTERM": "INFORMED CONSENT OBTAINED",
    "DSDECOD": "INFORMED CONSENT OBTAINED",
    "DSCAT": "PROTOCOL MILESTONE",
    "DSSCAT": "",
    "DSSTDTC": "2013-05-30"
  },
  {
    "STUDYID": "CDISCPILOT01",
    "DOMAIN": "DS",
    "USUBJID": "01-701-009",
    "DSSEQ": 2,
    "DSTERM": "RANDOMIZED",
    "DSDECOD": "RANDOMIZED",
    "DSCAT": "PROTOCOL MILESTONE",
    "DSSCAT": "",
    "DSSTDTC": "2013-06-08",
    "DSDY": 1
  },
  {
    "STUDYID": "CDISCPILOT01",
    "DOMAIN": "DS",
    "USUBJID": "01-701-009",
    "DSSEQ": 3,
    "DSTERM": "ADVERSE EVENT",
    "DSDECOD": "ADVERSE EVENT",
    "DSCAT": "DISPOSITION EVENT",
    "DSSCAT": "TREATMENT",
    "DSSTDTC": "2013-07-13",
    "DSDY": 36
  },
  {
    "STUDYID": "CDISCPILOT01",
    "DOMAIN": "DS",
    "USUBJID": "01-701-009",
    "DSSEQ": 4,
    "DSTERM": "ADVERSE EVENT",
    "DSDECOD": "ADVERSE EVENT",
    "DSCAT": "DISPOSITION EVENT",
    "DSSCAT": "STUDY",
    "DSSTDTC": "2013-07-25",
    "DSDY": 48
  },
  {
    "STUDYID": "CDISCPILOT01",
    "DOMAIN": "DS",
    "USUBJID": "01-701-010",
    "DSSEQ": 1,
    "DSTERM": "INFORMED CONSENT OBTAINED",
    "DSDECOD": "INFORMED CONSENT OBTAINED",
    "DSCAT": "PROTOCOL MILESTONE",
    "DSSCAT": "",
    "DSSTDTC": "2013-11-19"
  },
  {
    "STUDYID": "CDISCPILOT01",
    "DOMAIN": "DS",
    "USUBJID": "01-701-010",
    "DSSEQ": 2,
    "DSTERM": "RANDOMIZED",
    "DSDECOD": "RANDOMIZED",
    "DSCAT": "PROTOCOL MILESTONE",
    "DSSCAT": "",
    "DSSTDTC": "2013-12-03",
    "DSDY": 1
  },
  {
    "STUDYID": "CDISCPILOT01",
    "DOMAIN": "DS",
    "USUBJID": "01-701-010",
    "DSSEQ": 3,
    "DSTERM": "WITHDREW CONSENT",
    "DSDECOD": "WITHDREW CONSENT",
    "DSCAT": "DISPOSITION EVENT",
    "DSSCAT": "TREATMENT",
    "DSSTDTC": "2014-05-20",
    "DSDY": 169
  },
  {
    "STUDYID": "CDISCPILOT01",
    "DOMAIN": "DS",
    "USUBJID": "01-701-010",
    "DSSEQ": 4,
    "DSTERM": "WITHDREW CONSENT",
    "DSDECOD": "WITHDREW CONSENT",
    "DSCAT": "DISPOSITION EVENT",
    "DSSCAT": "STUDY",
    "DSSTDTC": "2014-05-23",
    "DSDY": 172
  },
  {
    "STUDYID": "CDISCPILOT01",
    "DOMAIN": "DS",
    "USUBJID": "01-701-011",
    "DSSEQ": 1,
    "DSTERM": "INFORMED CONSENT OBTAINED",
    "DSDECOD": "INFORMED CONSENT OBTAINED",
    "DSCAT": "PROTOCOL MILESTONE",
    "DSSCAT": "",
    "DSSTDTC": "2013-07-13"
  },
  {
    "STUDYID": "CDISCPILOT01",
    "DOMAIN": "DS",
    "USUBJID": "01-701-011",
    "DSSEQ": 2,
    "DSTERM": "RANDOMIZED",
    "DSDECOD": "RANDOMIZED",
    "DSCAT": "PROTOCOL MILESTONE",
    "DSSCAT": "",
    "DSSTDTC": "2013-07-31",
    "DSDY": 1
  },
  {
    "STUDYID": "CDISCPILOT01",
    "DOMAIN": "DS",
    "USUBJID": "01-701-011",
    "DSSEQ": 3,
    "DSTERM": "COMPLETED TREATMENT",
    "DSDECOD": "COMPLETED",
    "DSCAT": "DISPOSITION EVENT",
    "DSSCAT": "TREATMENT",
    "DSSTDTC": "2014-01-15",
    "DSDY": 169
  },
  {
    "STUDYID": "CDISCPILOT01",
    "DOMAIN": "DS",
    "USUBJID": "01-701-011",
    "DSSEQ": 4,
    "DSTERM": "COMPLETED STUDY",
    "DSDECOD": "COMPLETED",
    "DSCAT": "DISPOSITION EVENT",
    "DSSCAT": "STUDY",
    "DSSTDTC": "2014-01-29",
    "DSDY": 183
  },
  {
    "STUDYID": "CDISCPILOT01",
    "DOMAIN": "DS",
    "USUBJID": "01-701-012",
    "DSSEQ": 1,
    "DSTERM": "INFORMED CONSENT OBTAINED",
    "DSDECOD": "INFORMED CONSENT OBTAINED",
    "DSCAT": "PROTOCOL MILESTONE",
    "DSSCAT": "",
    "DSSTDTC": "2013-02-19"
  },
  {
    "STUDYID": "CDISCPILOT01",
    "DOMAIN": "DS",
    "USUBJID": "01-701-012",
    "DSSEQ": 2,
    "DSTERM": "RANDOMIZED",
    "DSDECOD": "RANDOMIZED",
    "DSCAT": "PROTOCOL MILESTONE",
    "DSSCAT": "",
    "DSSTDTC": "2013-03-08",
    "DSDY": 1
  },
  {
    "STUDYID": "CDISCPILOT01",
    "DOMAIN": "DS",
    "USUBJID": "01-701-012",
    "DSSEQ": 3,
    "DSTERM": "COMPLETED TREATMENT",
    "DSDECOD": "COMPLETED",
    "DSCAT": "DISPOSITION EVENT",
    "DSSCAT": "TREATMENT",
    "DSSTDTC": "2013-08-23",
    "DSDY": 169
  },
  {
    "STUDYID": "CDISCPILOT01",
    "DOMAIN": "DS",
    "USUBJID": "01-701-012",
    "DSSEQ": 4,
    "DSTERM": "COMPLETED STUDY",
    "DSDECOD": "COMPLETED",
    "DSCAT": "DISPOSITION EVENT",
    "DSSCAT": "STUDY",
    "DSSTDTC": "2013-09-06",
    "DSDY": 183
  },
  {
    "STUDYID": "CDISCPILOT01",
    "DOMAIN": "DS",
    "USUBJID": "01-701-013",
    "DSSEQ": 1,
    "DSTERM": "INFORMED CONSENT OBTAINED",
    "DSDECOD": "INFORMED CONSENT OBTAINED",
    "DSCAT": "PROTOCOL MILESTONE",
    "DSSCAT": "",
    "DSSTDTC": "2013-10-08"
  },
  {
    "STUDYID": "CDISCPILOT01",
    "DOMAIN": "DS",
    "USUBJID": "01-701-013",
    "DSSEQ": 2,
    "DSTERM": "RANDOMIZED",
    "DSDECOD": "RANDOMIZED",
    "DSCAT": "PROTOCOL MILESTONE",
    "DSSCAT": "",
    "DSSTDTC": "2013-10-21",
    "DSDY": 1
  },
  {
    "STUDYID": "CDISCPILOT01",
    "DOMAIN": "DS",
    "USUBJID": "01-701-013",
    "DSSEQ": 3,
    "DSTERM": "ADVERSE EVENT",
    "DSDECOD": "ADVERSE EVENT",
    "DSCAT": "DISPOSITION EVENT",
    "DSSCAT": "TREATMENT",
    "DSSTDTC": "2014-01-06",
    "DSDY": 78
  },
  {
    "STUDYID": "CDISCPILOT01",
    "DOMAIN": "DS",
    "USUBJID": "01-701-013",
    "DSSEQ": 4,
    "DSTERM": "ADVERSE EVENT",
    "DSDECOD": "ADVERSE EVENT",
    "DSCAT": "DISPOSITION EVENT",
    "DSSCAT": "STUDY",
    "DSSTDTC": "2014-01-07",
    "DSDY": 79
  },
  {
    "STUDYID": "CDISCPILOT01",
    "DOMAIN": "DS",
    "USUBJID": "01-701-014",
    "DSSEQ": 1,
    "DSTERM": "INFORMED CONSENT OBTAINED",
    "DSDECOD": "INFORMED CONSENT OBTAINED",
    "DSCAT": "PROTOCOL MILESTONE",
    "DSSCAT": "",
    "DSSTDTC": "2013-11-30"
  },
  {
    "STUDYID": "CDISCPILOT01",
    "DOMAIN": "DS",
    "USUBJID": "01-701-014",
    "DSSEQ": 2,
    "DSTERM": "RANDOMIZED",
    "DSDECOD": "RANDOMIZED",
    "DSCAT": "PROTOCOL MILESTONE",
    "DSSCAT": "",
    "DSSTDTC": "2013-12-07",
    "DSDY": 1
  },
  {
    "STUDYID": "CDISCPILOT01",
    "DOMAIN": "DS",
    "USUBJID": "01-701-014",
    "DSSEQ": 3,
    "DSTERM": "ADVERSE EVENT",
    "DSDECOD": "ADVERSE EVENT",
    "DSCAT": "DISPOSITION EVENT",
    "DSSCAT": "TREATMENT",
    "DSSTDTC": "2014-05-17",
    "DSDY": 162
  },
  {
    "STUDYID": "CDISCPILOT01",
    "DOMAIN": "DS",
    "USUBJID": "01-701-014",
    "DSSEQ": 4,
    "DSTERM": "ADVERSE EVENT",
    "DSDECOD": "ADVERSE EVENT",
    "DSCAT": "DISPOSITION EVENT",
    "DSSCAT": "STUDY",
    "DSSTDTC": "2014-05-21",
    "DSDY": 166
  },
  {
    "STUDYID": "CDISCPILOT01",
    "DOMAIN": "DS",
    "USUBJID": "01-701-015",
    "DSSEQ": 1,
    "DSTERM": "INFORMED CONSENT OBTAINED",
    "DSDECOD": "INFORMED CONSENT OBTAINED",
    "DSCAT": "PROTOCOL MILESTONE",
    "DSSCAT": "",
    "DSSTDTC": "2013-06-10"
  },
  {
    "STUDYID": "CDISCPILOT01",
    "DOMAIN": "DS",
    "USUBJID": "01-701-015",
    "DSSEQ": 2,
    "DSTERM": "RANDOMIZED",
    "DSDECOD": "RANDOMIZED",
    "DSCAT": "PROTOCOL MILESTONE",
    "DSSCAT": "",
    "DSSTDTC": "2013-06-30",
    "DSDY": 1
  },
  {
    "STUDYID": "CDISCPILOT01",
    "DOMAIN": "DS",
    "USUBJID": "01-701-015",
    "DSSEQ": 3,
    "DSTERM": "COMPLETED TREATMENT",
    "DSDECOD": "COMPLETED",
    "DSCAT": "DISPOSITION EVENT",
    "DSSCAT": "TREATMENT",
    "DSSTDTC": "2013-12-15",
    "DSDY": 169
  },
  {
    "STUDYID": "CDISCPILOT01",
    "DOMAIN": "DS",
    "USUBJID": "01-701-015",
    "DSSEQ": 4,
    "DSTERM": "COMPLETED STUDY",
    "DSDECOD": "COMPLETED",
    "DSCAT": "DISPOSITION EVENT",
    "DSSCAT": "STUDY",
    "DSSTDTC": "2013-12-29",
    "DSDY": 183
  },
  {
    "STUDYID": "CDISCPILOT01",
    "DOMAIN": "DS",
    "USUBJID": "01-701-016",
    "DSSEQ": 1,
    "DSTERM": "INFORMED CONSENT OBTAINED",
    "DSDECOD": "INFORMED CONSENT OBTAINED",
    "DSCAT": "PROTOCOL MILESTONE",
    "DSSCAT": "",
    "DSSTDTC": "2013-08-26"
  },
  {
    "STUDYID": "CDISCPILOT01",
    "DOMAIN": "DS",
    "USUBJID": "01-701-016",
    "DSSEQ": 2,
    "DSTERM": "RANDOMIZED",
    "DSDECOD": "RANDOMIZED",
    "DSCAT": "PROTOCOL MILESTONE",
    "DSSCAT": "",
    "DSSTDTC": "2013-09-13",
    "DSDY": 1
  },
  {
    "STUDYID": "CDISCPILOT01",
    "DOMAIN": "DS",
    "USUBJID": "01-701-016",
    "DSSEQ": 3,
    "DSTERM": "COMPLETED TREATMENT",
    "DSDECOD": "COMPLETED",
    "DSCAT": "DISPOSITION EVENT",
    "DSSCAT": "TREATMENT",
    "DSSTDTC": "2014-02-28",
    "DSDY": 169
  },
  {
    "STUDYID": "CDISCPILOT01",
    "DOMAIN": "DS",
    "USUBJID": "01-701-016",
    "DSSEQ": 4,
    "DSTERM": "COMPLETED STUDY",
    "DSDECOD": "COMPLETED",
    "DSCAT": "DISPOSITION EVENT",
    "DSSCAT": "STUDY",
    "DSSTDTC": "2014-03-14",
    "DSDY": 183
  },
  {
    "STUDYID": "CDISCPILOT01",
    "DOMAIN": "DS",
    "USUBJID": "01-701-017",
    "DSSEQ": 1,
    "DSTERM": "INFORMED CONSENT OBTAINED",
    "DSDECOD": "INFORMED CONSENT OBTAINED",
    "DSCAT": "PROTOCOL MILESTONE",
    "DSSCAT": "",
    "DSSTDTC": "2013-05-16"
  },
  {
    "STUDYID": "CDISCPILOT01",
    "DOMAIN": "DS",
    "USUBJID": "01-701-017",
    "DSSEQ": 2,
    "DSTERM": "RANDOMIZED",
    "DSDECOD": "RANDOMIZED",
    "DSCAT": "PROTOCOL MILESTONE",
    "DSSCAT": "",
    "DSSTDTC": "2013-05-28",
    "DSDY": 1
  },
  {
    "STUDYID": "CDISCPILOT01",
    "DOMAIN": "DS",
    "USUBJID": "01-701-017",
    "DSSEQ": 3,
    "DSTERM": "COMPLETED TREATMENT",
    "DSDECOD": "COMPLETED",
    "DSCAT": "DISPOSITION EVENT",
    "DSSCAT": "TREATMENT",
    "DSSTDTC": "2013-11-12",
    "DSDY": 169
  },
  {
    "STUDYID": "CDISCPILOT01",
    "DOMAIN": "DS",
    "USUBJID": "01-701-017",
    "DSSEQ": 4,
    "DSTERM": "COMPLETED STUDY",
    "DSDECOD": "COMPLETED",
    "DSCAT": "DISPOSITION EVENT",
    "DSSCAT": "STUDY",
    "DSSTDTC": "2013-11-26",
    "DSDY": 183
  },
  {
    "STUDYID": "CDISCPILOT01",
    "DOMAIN": "DS",
    "USUBJID": "01-701-018",
    "DSSEQ": 1,
    "DSTERM": "INFORMED CONSENT OBTAINED",
    "DSDECOD": "INFORMED CONSENT OBTAINED",
    "DSCAT": "PROTOCOL MILESTONE",
    "DSSCAT": "",
    "DSSTDTC": "2013-04-07"
  },
  {
    "STUDYID": "CDISCPILOT01",
    "DOMAIN": "DS",
    "USUBJID": "01-701-018",
    "DSSEQ": 2,
    "DSTERM": "RANDOMIZED",
    "DSDECOD": "RANDOMIZED",
    "DSCAT": "PROTOCOL MILESTONE",
    "DSSCAT": "",
    "DSSTDTC": "2013-04-14",
    "DSDY": 1
  },
  {
    "STUDYID": "CDISCPILOT01",
    "DOMAIN": "DS",
    "USUBJID": "01-701-018",
    "DSSEQ": 3,
    "DSTERM": "COMPLETED TREATMENT",
    "DSDECOD": "COMPLETED",
    "DSCAT": "DISPOSITION EVENT",
    "DSSCAT": "TREATMENT",
    "DSSTDTC": "2013-09-29",
    "DSDY": 169
  },
  {
    "STUDYID": "CDISCPILOT01",
    "DOMAIN": "DS",
    "USUBJID": "01-701-018",
    "DSSEQ": 4,
    "DSTERM": "COMPLETED STUDY",
    "DSDECOD": "COMPLETED",
    "DSCAT": "DISPOSITION EVENT",
    "DSSCAT": "STUDY",
    "DSSTDTC": "2013-10-13",
    "DSDY": 183
  },
  {
    "STUDYID": "CDISCPILOT01",
    "DOMAIN": "DS",
    "USUBJID": "01-701-019",
    "DSSEQ": 1,
    "DSTERM": "INFORMED CONSENT OBTAINED",
    "DSDECOD": "INFORMED CONSENT OBTAINED",
    "DSCAT": "PROTOCOL MILESTONE",
    "DSSCAT": "",
    "DSSTDTC": "2013-04-04"
  },
  {
    "STUDYID": "CDISCPILOT01",
    "DOMAIN": "DS",
    "USUBJID": "01-701-019",
    "DSSEQ": 2,
    "DSTERM": "RANDOMIZED",
    "DSDECOD": "RANDOMIZED",
    "DSCAT": "PROTOCOL MILESTONE",
    "DSSCAT": "",
    "DSSTDTC": "2013-04-14",
    "DSDY": 1
  },
  {
    "STUDYID": "CDISCPILOT01",
    "DOMAIN": "DS",
    "USUBJID": "01-701-019",
    "DSSEQ": 3,
    "DSTERM": "ADVERSE EVENT",
    "DSDECOD": "ADVERSE EVENT",
    "DSCAT": "DISPOSITION EVENT",
    "DSSCAT": "TREATMENT",
    "DSSTDTC": "2013-05-05",
    "DSDY": 22
  },
  {
    "STUDYID": "CDISCPILOT01",
    "DOMAIN": "DS",
    "USUBJID": "01-701-019",
    "DSSEQ": 4,
    "DSTERM": "ADVERSE EVENT",
    "DSDECOD": "ADVERSE EVENT",
    "DSCAT": "DISPOSITION EVENT",
    "DSSCAT": "STUDY",
    "DSSTDTC": "2013-05-05",
    "DSDY": 22
  },
  {
    "STUDYID": "CDISCPILOT01",
    "DOMAIN": "DS",
    "USUBJID": "01-701-020",
    "DSSEQ": 1,
    "DSTERM": "INFORMED CONSENT OBTAINED",
    "DSDECOD": "INFORMED CONSENT OBTAINED",
    "DSCAT": "PROTOCOL MILESTONE",
    "DSSCAT": "",
    "DSSTDTC": "2013-04-03"
  },
  {
    "STUDYID": "CDISCPILOT01",
    "DOMAIN": "DS",
    "USUBJID": "01-701-020",
    "DSSEQ": 2,
    "DSTERM": "RANDOMIZED",
    "DSDECOD": "RANDOMIZED",
    "DSCAT": "PROTOCOL MILESTONE",
    "DSSCAT": "",
    "DSSTDTC": "2013-04-10",
    "DSDY": 1
  },
  {
    "STUDYID": "CDISCPILOT01",
    "DOMAIN": "DS",
    "USUBJID": "01-701-020",
    "DSSEQ": 3,
    "DSTERM": "COMPLETED TREATMENT",
    "DSDECOD": "COMPLETED",
    "DSCAT": "DISPOSITION EVENT",
    "DSSCAT": "TREATMENT",
    "DSSTDTC": "2013-09-25",
    "DSDY": 169
  },
  {
    "STUDYID": "CDISCPILOT01",
    "DOMAIN": "DS",
    "USUBJID": "01-701-020",
    "DSSEQ": 4,
    "DSTERM": "COMPLETED STUDY",
    "DSDECOD": "COMPLETED",
    "DSCAT": "DISPOSITION EVENT",
    "DSSCAT": "STUDY",
    "DSSTDTC": "2013-10-09",
    "DSDY": 183
  },
  {
    "STUDYID": "CDISCPILOT01",
    "DOMAIN": "DS",
    "USUBJID": "01-701-021",
    "DSSEQ": 1,
    "DSTERM": "INFORMED CONSENT OBTAINED",
    "DSDECOD": "INFORMED CONSENT OBTAINED",
    "DSCAT": "PROTOCOL MILESTONE",
    "DSSCAT": "",
    "DSSTDTC": "2013-03-23"
  },
  {
    "STUDYID": "CDISCPILOT01",
    "DOMAIN": "DS",
    "USUBJID": "01-701-021",
    "DSSEQ": 2,
    "DSTERM": "RANDOMIZED",
    "DSDECOD": "RANDOMIZED",
    "DSCAT": "PROTOCOL MILESTONE",
    "DSSCAT": "",
    "DSSTDTC": "2013-04-13",
    "DSDY": 1
  },
  {
    "STUDYID": "CDISCPILOT01",
    "DOMAIN": "DS",
    "USUBJID": "01-701-021",
    "DSSEQ": 3,
    "DSTERM": "COMPLETED TREATMENT",
    "DSDECOD": "COMPLETED",
    "DSCAT": "DISPOSITION EVENT",
    "DSSCAT": "TREATMENT",
    "DSSTDTC": "2013-09-28",
    "DSDY": 169
  },
  {
    "STUDYID": "CDISCPILOT01",
    "DOMAIN": "DS",
    "USUBJID": "01-701-021",
    "DSSEQ": 4,
    "DSTERM": "COMPLETED STUDY",
    "DSDECOD": "COMPLETED",
    "DSCAT": "DISPOSITION EVENT",
    "DSSCAT": "STUDY",
    "DSSTDTC": "2013-10-12",
    "DSDY": 183
  },
  {
    "STUDYID": "CDISCPILOT01",
    "DOMAIN": "DS",
    "USUBJID": "01-701-022",
    "DSSEQ": 1,
    "DSTERM": "INFORMED CONSENT OBTAINED",
    "DSDECOD": "INFORMED CONSENT OBTAINED",
    "DSCAT": "PROTOCOL MILESTONE",
    "DSSCAT": "",
    "DSSTDTC": "2013-09-14"
  },
  {
    "STUDYID": "CDISCPILOT01",
    "DOMAIN": "DS",
    "USUBJID": "01-701-022",
    "DSSEQ": 2,
    "DSTERM": "RANDOMIZED",
    "DSDECOD": "RANDOMIZED",
    "DSCAT": "PROTOCOL MILESTONE",
    "DSSCAT": "",
    "DSSTDTC": "2013-09-29",
    "DSDY": 1
  },
  {
    "STUDYID": "CDISCPILOT01",
    "DOMAIN": "DS",
    "USUBJID": "01-701-022",
    "DSSEQ": 3,
    "DSTERM": "COMPLETED TREATMENT",
    "DSDECOD": "COMPLETED",
    "DSCAT": "DISPOSITION EVENT",
    "DSSCAT": "TREATMENT",
    "DSSTDTC": "2014-03-16",
    "DSDY": 169
  },
  {
    "STUDYID": "CDISCPILOT01",
    "DOMAIN": "DS",
    "USUBJID": "01-701-022",
    "DSSEQ": 4,
    "DSTERM": "COMPLETED STUDY",
    "DSDECOD": "COMPLETED",
    "DSCAT": "DISPOSITION EVENT",
    "DSSCAT": "STUDY",
    "DSSTDTC": "2014-03-30",
    "DSDY": 183
  },
  {
    "STUDYID": "CDISCPILOT01",
    "DOMAIN": "DS",
    "USUBJID": "01-701-023",
    "DSSEQ": 1,
    "DSTERM": "INFORMED CONSENT OBTAINED",
    "DSDECOD": "INFORMED CONSENT OBTAINED",
    "DSCAT": "PROTOCOL MILESTONE",
    "DSSCAT": "",
    "DSSTDTC": "2013-07-08"
  },
  {
    "STUDYID": "CDISCPILOT01",
    "DOMAIN": "DS",
    "USUBJID": "01-701-023",
    "DSSEQ": 2,
    "DSTERM": "RANDOMIZED",
    "DSDECOD": "RANDOMIZED",
    "DSCAT": "PROTOCOL MILESTONE",
    "DSSCAT": "",
    "DSSTDTC": "2013-07-26",
    "DSDY": 1
  },
  {
    "STUDYID": "CDISCPILOT01",
    "DOMAIN": "DS",
    "USUBJID": "01-701-023",
    "DSSEQ": 3,
    "DSTERM": "COMPLETED TREATMENT",
    "DSDECOD": "COMPLETED",
    "DSCAT": "DISPOSITION EVENT",
    "DSSCAT": "TREATMENT",
    "DSSTDTC": "2014-01-10",
    "DSDY": 169
  },
  {
    "STUDYID": "CDISCPILOT01",
    "DOMAIN": "DS",
    "USUBJID": "01-701-023",
    "DSSEQ": 4,
    "DSTERM": "COMPLETED STUDY",
    "DSDECOD": "COMPLETED",
    "DSCAT": "DISPOSITION EVENT",
    "DSSCAT": "STUDY",
    "DSSTDTC": "2014-01-24",
    "DSDY": 183
  },
  {
    "STUDYID": "CDISCPILOT01",
    "DOMAIN": "DS",
    "USUBJID": "01-701-024",
    "DSSEQ": 1,
    "DSTERM": "INFORMED CONSENT OBTAINED",
    "DSDECOD": "INFORMED CONSENT OBTAINED",
    "DSCAT": "PROTOCOL MILESTONE",
    "DSSCAT": "",
    "DSSTDTC": "2013-12-05"
  },
  {
    "STUDYID": "CDISCPILOT01",
    "DOMAIN": "DS",
    "USUBJID": "01-701-024",
    "DSSEQ": 2,
    "DSTERM": "RANDOMIZED",
    "DSDECOD": "RANDOMIZED",
    "DSCAT": "PROTOCOL MILESTONE",
    "DSSCAT": "",
    "DSSTDTC": "2013-12-19",
    "DSDY": 1
  },
  {
    "STUDYID": "CDISCPILOT01",
    "DOMAIN": "DS",
    "USUBJID": "01-701-024",
    "DSSEQ": 3,
    "DSTERM": "COMPLETED TREATMENT",
    "DSDECOD": "COMPLETED",
    "DSCAT": "DISPOSITION EVENT",
    "DSSCAT": "TREATMENT",
    "DSSTDTC": "2014-06-05",
    "DSDY": 169
  },
  {
    "STUDYID": "CDISCPILOT01",
    "DOMAIN": "DS",
    "USUBJID": "01-701-024",
    "DSSEQ": 4,
    "DSTERM": "WITHDREW CONSENT",
    "DSDECOD": "WITHDREW CONSENT",
    "DSCAT": "DISPOSITION EVENT",
    "DSSCAT": "STUDY",
    "DSSTDTC": "2014-06-06",
    "DSDY": 170
  },
  {
    "STUDYID": "CDISCPILOT01",
    "DOMAIN": "DS",
    "USUBJID": "01-701-025",
    "DSSEQ": 1,
    "DSTERM": "INFORMED CONSENT OBTAINED",
    "DSDECOD": "INFORMED CONSENT OBTAINED",
    "DSCAT": "PROTOCOL MILESTONE",
    "DSSCAT": "",
    "DSSTDTC": "2013-11-10"
  },
  {
    "STUDYID": "CDISCPILOT01",
    "DOMAIN": "DS",
    "USUBJID": "01-701-025",
    "DSSEQ": 2,
    "DSTERM": "RANDOMIZED",
    "DSDECOD": "RANDOMIZED",
    "DSCAT": "PROTOCOL MILESTONE",
    "DSSCAT": "",
    "DSSTDTC": "2013-11-22",
    "DSDY": 1
  },
  {
    "STUDYID": "CDISCPILOT01",
    "DOMAIN": "DS",
    "USUBJID": "01-701-025",
    "DSSEQ": 3,
    "DSTERM": "COMPLETED TREATMENT",
    "DSDECOD": "COMPLETED",
    "DSCAT": "DISPOSITION EVENT",
    "DSSCAT": "TREATMENT",
    "DSSTDTC": "2014-05-09",
    "DSDY": 169
  },
  {
    "STUDYID": "CDISCPILOT01",
    "DOMAIN": "DS",
    "USUBJID": "01-701-025",
    "DSSEQ": 4,
    "DSTERM": "COMPLETED STUDY",
    "DSDECOD": "COMPLETED",
    "DSCAT": "DISPOSITION EVENT",
    "DSSCAT": "STUDY",
    "DSSTDTC": "2014-05-23",
    "DSDY": 183
  },
  {
    "STUDYID": "CDISCPILOT01",
    "DOMAIN": "DS",
    "USUBJID": "01-701-026",
    "DSSEQ": 1,
    "DSTERM": "INFORMED CONSENT OBTAINED",
    "DSDECOD": "INFORMED CONSENT OBTAINED",
    "DSCAT": "PROTOCOL MILESTONE",
    "DSSCAT": "",
    "DSSTDTC": "2013-02-13"
  },
  {
    "STUDYID": "CDISCPILOT01",
    "DOMAIN": "DS",
    "USUBJID": "01-701-026",
    "DSSEQ": 2,
    "DSTERM": "RANDOMIZED",
    "DSDECOD": "RANDOMIZED",
    "DSCAT": "PROTOCOL MILESTONE",
    "DSSCAT": "",
    "DSSTDTC": "2013-03-05",
    "DSDY": 1
  },
  {
    "STUDYID": "CDISCPILOT01",
    "DOMAIN": "DS",
    "USUBJID": "01-701-026",
    "DSSEQ": 3,
    "DSTERM": "COMPLETED TREATMENT",
    "DSDECOD": "COMPLETED",
    "DSCAT": "DISPOSITION EVENT",
    "DSSCAT": "TREATMENT",
    "DSSTDTC": "2013-08-20",
    "DSDY": 169
  },
  {
    "STUDYID": "CDISCPILOT01",
    "DOMAIN": "DS",
    "USUBJID": "01-701-026",
    "DSSEQ": 4,
    "DSTERM": "COMPLETED STUDY",
    "DSDECOD": "COMPLETED",
    "DSCAT": "DISPOSITION EVENT",
    "DSSCAT": "STUDY",
    "DSSTDTC": "2013-09-03",
    "DSDY": 183
  },
  {
    "STUDYID": "CDISCPILOT01",
    "DOMAIN": "DS",
    "USUBJID": "01-701-027",
    "DSSEQ": 1,
    "DSTERM": "INFORMED CONSENT OBTAINED",
    "DSDECOD": "INFORMED CONSENT OBTAINED",
    "DSCAT": "PROTOCOL MILESTONE",
    "DSSCAT": "",
    "DSSTDTC": "2013-11-16"
  },
  {
    "STUDYID": "CDISCPILOT01",
    "DOMAIN": "DS",
    "USUBJID": "01-701-027",
    "DSSEQ": 2,
    "DSTERM": "RANDOMIZED",
    "DSDECOD": "RANDOMIZED",
    "DSCAT": "PROTOCOL MILESTONE",
    "DSSCAT": "",
    "DSSTDTC": "2013-11-27",
    "DSDY": 1
  },
  {
    "STUDYID": "CDISCPILOT01",
    "DOMAIN": "DS",
    "USUBJID": "01-701-027",
    "DSSEQ": 3,
    "DSTERM": "ADVERSE EVENT",
    "DSDECOD": "ADVERSE EVENT",
    "DSCAT": "DISPOSITION EVENT",
    "DSSCAT": "TREATMENT",
    "DSSTDTC": "2014-02-05",
    "DSDY": 71
  },
  {
    "STUDYID": "CDISCPILOT01",
    "DOMAIN": "DS",
    "USUBJID": "01-701-027",
    "DSSEQ": 4,
    "DSTERM": "ADVERSE EVENT",
    "DSDECOD": "ADVERSE EVENT",
    "DSCAT": "DISPOSITION EVENT",
    "DSSCAT": "STUDY",
    "DSSTDTC": "2014-02-18",
    "DSDY": 84
  },
  {
    "STUDYID": "CDISCPILOT01",
    "DOMAIN": "DS",
    "USUBJID": "01-701-028",
    "DSSEQ": 1,
    "DSTERM": "INFORMED CONSENT OBTAINED",
    "DSDECOD": "INFORMED CONSENT OBTAINED",
    "DSCAT": "PROTOCOL MILESTONE",
    "DSSCAT": "",
    "DSSTDTC": "2013-07-17"
  },
  {
    "STUDYID": "CDISCPILOT01",
    "DOMAIN": "DS",
    "USUBJID": "01-701-028",
    "DSSEQ": 2,
    "DSTERM": "RANDOMIZED",
    "DSDECOD": "RANDOMIZED",
    "DSCAT": "PROTOCOL MILESTONE",
    "DSSCAT": "",
    "DSSTDTC": "2013-07-27",
    "DSDY": 1
  },
  {
    "STUDYID": "CDISCPILOT01",
    "DOMAIN": "DS",
    "USUBJID": "01-701-028",
    "DSSEQ": 3,
    "DSTERM": "COMPLETED TREATMENT",
    "DSDECOD": "COMPLETED",
    "DSCAT": "DISPOSITION EVENT",
    "DSSCAT": "TREATMENT",
    "DSSTDTC": "2014-01-11",
    "DSDY": 169
  },
  {
    "STUDYID": "CDISCPILOT01",
    "DOMAIN": "DS",
    "USUBJID": "01-701-028",
    "DSSEQ": 4,
    "DSTERM": "COMPLETED STUDY",
    "DSDECOD": "COMPLETED",
    "DSCAT": "DISPOSITION EVENT",
    "DSSCAT": "STUDY",
    "DSSTDTC": "2014-01-25",
    "DSDY": 183
  },
  {
    "STUDYID": "CDISCPILOT01",
    "DOMAIN": "DS",
    "USUBJID": "01-701-029",
    "DSSEQ": 1,
    "DSTERM": "INFORMED CONSENT OBTAINED",
    "DSDECOD": "INFORMED CONSENT OBTAINED",
    "DSCAT": "PROTOCOL MILESTONE",
    "DSSCAT": "",
    "DSSTDTC": "2013-10-12"
  },
  {
    "STUDYID": "CDISCPILOT01",
    "DOMAIN": "DS",
    "USUBJID": "01-701-029",
    "DSSEQ": 2,
    "DSTERM": "RANDOMIZED",
    "DSDECOD": "RANDOMIZED",
    "DSCAT": "PROTOCOL MILESTONE",
    "DSSCAT": "",
    "DSSTDTC": "2013-10-29",
    "DSDY": 1
  },
  {
    "STUDYID": "CDISCPILOT01",
    "DOMAIN": "DS",
    "USUBJID": "01-701-029",
    "DSSEQ": 3,
    "DSTERM": "PROTOCOL CRITERIA NOT MET",
    "DSDECOD": "PROTOCOL CRITERIA NOT MET",
    "DSCAT": "DISPOSITION EVENT",
    "DSSCAT": "TREATMENT",
    "DSSTDTC": "2013-12-03",
    "DSDY": 36
  },
  {
    "STUDYID": "CDISCPILOT01",
    "DOMAIN": "DS",
    "USUBJID": "01-701-029",
    "DSSEQ": 4,
    "DSTERM": "PROTOCOL CRITERIA NOT MET",
    "DSDECOD": "PROTOCOL CRITERIA NOT MET",
    "DSCAT": "DISPOSITION EVENT",
    "DSSCAT": "STUDY",
    "DSSTDTC": "2013-12-15",
    "DSDY": 48
  },
  {
    "STUDYID": "CDISCPILOT01",
    "DOMAIN": "DS",
    "USUBJID": "01-701-030",
    "DSSEQ": 1,
    "DSTERM": "INFORMED CONSENT OBTAINED",
    "DSDECOD": "INFORMED CONSENT OBTAINED",
    "DSCAT": "PROTOCOL MILESTONE",
    "DSSCAT": "",
    "DSSTDTC": "2013-06-22"
  },
  {
    "STUDYID": "CDISCPILOT01",
    "DOMAIN": "DS",
    "USUBJID": "01-701-030",
    "DSSEQ": 2,
    "DSTERM": "RANDOMIZED",
    "DSDECOD": "RANDOMIZED",
    "DSCAT": "PROTOCOL MILESTONE",
    "DSSCAT": "",
    "DSSTDTC": "2013-06-29",
    "DSDY": 1
  },
  {
    "STUDYID": "CDISCPILOT01",
    "DOMAIN": "DS",
    "USUBJID": "01-701-030",
    "DSSEQ": 3,
    "DSTERM": "COMPLETED TREATMENT",
    "DSDECOD": "COMPLETED",
    "DSCAT": "DISPOSITION EVENT",
    "DSSCAT": "TREATMENT",
    "DSSTDTC": "2013-12-14",
    "DSDY": 169
  },
  {
    "STUDYID": "CDISCPILOT01",
    "DOMAIN": "DS",
    "USUBJID": "01-701-030",
    "DSSEQ": 4,
    "DSTERM": "OTHER",
    "DSDECOD": "OTHER",
    "DSCAT": "DISPOSITION EVENT",
    "DSSCAT": "STUDY",
    "DSSTDTC": "2013-12-25",
    "DSDY": 180
  },
  {
    "STUDYID": "CDISCPILOT01",
    "DOMAIN": "DS",
    "USUBJID": "01-701-031",
    "DSSEQ": 1,
    "DSTERM": "INFORMED CONSENT OBTAINED",
    "DSDECOD": "INFORMED CONSENT OBTAINED",
    "DSCAT": "PROTOCOL MILESTONE",
    "DSSCAT": "",
    "DSSTDTC": "2013-09-08"
  },
  {
    "STUDYID": "CDISCPILOT01",
    "DOMAIN": "DS",
    "USUBJID": "01-701-031",
    "DSSEQ": 2,
    "DSTERM": "RANDOMIZED",
    "DSDECOD": "RANDOMIZED",
    "DSCAT": "PROTOCOL MILESTONE",
    "DSSCAT": "",
    "DSSTDTC": "2013-09-15",
    "DSDY": 1
  },
  {
    "STUDYID": "CDISCPILOT01",
    "DOMAIN": "DS",
    "USUBJID": "01-701-031",
    "DSSEQ": 3,
    "DSTERM": "ADVERSE EVENT",
    "DSDECOD": "ADVERSE EVENT",
    "DSCAT": "DISPOSITION EVENT",
    "DSSCAT": "TREATMENT",
    "DSSTDTC": "2013-10-13",
    "DSDY": 29
  },
  {
    "STUDYID": "CDISCPILOT01",
    "DOMAIN": "DS",
    "USUBJID": "01-701-031",
    "DSSEQ": 4,
    "DSTERM": "ADVERSE EVENT",
    "DSDECOD": "ADVERSE EVENT",
    "DSCAT": "DISPOSITION EVENT",
    "DSSCAT": "STUDY",
    "DSSTDTC": "2013-10-19",
    "DSDY": 35
  },
  {
    "STUDYID": "CDISCPILOT01",
    "DOMAIN": "DS",
    "USUBJID": "01-701-032",
    "DSSEQ": 1,
    "DSTERM": "INFORMED CONSENT OBTAINED",
    "DSDECOD": "INFORMED CONSENT OBTAINED",
    "DSCAT": "PROTOCOL MILESTONE",
    "DSSCAT": "",
    "DSSTDTC": "2013-02-27"
  },
  {
    "STUDYID": "CDISCPILOT01",
    "DOMAIN": "DS",
    "USUBJID": "01-701-032",
    "DSSEQ": 2,
    "DSTERM": "RANDOMIZED",
    "DSDECOD": "RANDOMIZED",
    "DSCAT": "PROTOCOL MILESTONE",
    "DSSCAT": "",
    "DSSTDTC": "2013-03-15",
    "DSDY": 1
  },
  {
    "STUDYID": "CDISCPILOT01",
    "DOMAIN": "DS",
    "USUBJID": "01-701-032",
    "DSSEQ": 3,
    "DSTERM": "LACK OF EFFICACY",
    "DSDECOD": "LACK OF EFFICACY",
    "DSCAT": "DISPOSITION EVENT",
    "DSSCAT": "TREATMENT",
    "DSSTDTC": "2013-03-29",
    "DSDY": 15
  },
  {
    "STUDYID": "CDISCPILOT01",
    "DOMAIN": "DS",
    "USUBJID": "01-701-032",
    "DSSEQ": 4,
    "DSTERM": "LACK OF EFFICACY",
    "DSDECOD": "LACK OF EFFICACY",
    "DSCAT": "DISPOSITION EVENT",
    "DSSCAT": "STUDY",
    "DSSTDTC": "2013-04-09",
    "DSDY": 26
  },
  {
    "STUDYID": "CDISCPILOT01",
    "DOMAIN": "DS",
    "USUBJID": "01-701-033",
    "DSSEQ": 1,
    "DSTERM": "INFORMED CONSENT OBTAINED",
    "DSDECOD": "INFORMED CONSENT OBTAINED",
    "DSCAT": "PROTOCOL MILESTONE",
    "DSSCAT": "",
    "DSSTDTC": "2013-10-20"
  },
  {
    "STUDYID": "CDISCPILOT01",
    "DOMAIN": "DS",
    "USUBJID": "01-701-033",
    "DSSEQ": 2,
    "DSTERM": "RANDOMIZED",
    "DSDECOD": "RANDOMIZED",
    "DSCAT": "PROTOCOL MILESTONE",
    "DSSCAT": "",
    "DSSTDTC": "2013-11-05",
    "DSDY": 1
  },
  {
    "STUDYID": "CDISCPILOT01",
    "DOMAIN": "DS",
    "USUBJID": "01-701-033",
    "DSSEQ": 3,
    "DSTERM": "COMPLETED TREATMENT",
    "DSDECOD": "COMPLETED",
    "DSCAT": "DISPOSITION EVENT",
    "DSSCAT": "TREATMENT",
    "DSSTDTC": "2014-04-22",
    "DSDY": 169
  },
  {
    "STUDYID": "CDISCPILOT01",
    "DOMAIN": "DS",
    "USUBJID": "01-701-033",
    "DSSEQ": 4,
    "DSTERM": "COMPLETED STUDY",
    "DSDECOD": "COMPLETED",
    "DSCAT": "DISPOSITION EVENT",
    "DSSCAT": "STUDY",
    "DSSTDTC": "2014-05-06",
    "DSDY": 183
  },
  {
    "STUDYID": "CDISCPILOT01",
    "DOMAIN": "DS",
    "USUBJID": "01-701-034",
    "DSSEQ": 1,
    "DSTERM": "INFORMED CONSENT OBTAINED",
    "DSDECOD": "INFORMED CONSENT OBTAINED",
    "DSCAT": "PROTOCOL MILESTONE",
    "DSSCAT": "",
    "DSSTDTC": "2013-07-30"
  },
  {
    "STUDYID": "CDISCPILOT01",
    "DOMAIN": "DS",
    "USUBJID": "01-701-034",
    "DSSEQ": 2,
    "DSTERM": "RANDOMIZED",
    "DSDECOD": "RANDOMIZED",
    "DSCAT": "PROTOCOL MILESTONE",
    "DSSCAT": "",
    "DSSTDTC": "2013-08-14",
    "DSDY": 1
  },
  {
    "STUDYID": "CDISCPILOT01",
    "DOMAIN": "DS",
    "USUBJID": "01-701-034",
    "DSSEQ": 3,
    "DSTERM": "COMPLETED TREATMENT",
    "DSDECOD": "COMPLETED",
    "DSCAT": "DISPOSITION EVENT",
    "DSSCAT": "TREATMENT",
    "DSSTDTC": "2014-01-29",
    "DSDY": 169
  },
  {
    "STUDYID": "CDISCPILOT01",
    "DOMAIN": "DS",
    "USUBJID": "01-701-034",
    "DSSEQ": 4,
    "DSTERM": "COMPLETED STUDY",
    "DSDECOD": "COMPLETED",
    "DSCAT": "DISPOSITION EVENT",
    "DSSCAT": "STUDY",
    "DSSTDTC": "2014-02-12",
    "DSDY": 183
  },
  {
    "STUDYID": "CDISCPILOT01",
    "DOMAIN": "DS",
    "USUBJID": "01-701-035",
    "DSSEQ": 1,
    "DSTERM": "INFORMED CONSENT OBTAINED",
    "DSDECOD": "INFORMED CONSENT OBTAINED",
    "DSCAT": "PROTOCOL MILESTONE",
    "DSSCAT": "",
    "DSSTDTC": "2013-04-06"
  },
  {
    "STUDYID": "CDISCPILOT01",
    "DOMAIN": "DS",
    "USUBJID": "01-701-035",
    "DSSEQ": 2,
    "DSTERM": "RANDOMIZED",
    "DSDECOD": "RANDOMIZED",
    "DSCAT": "PROTOCOL MILESTONE",
    "DSSCAT": "",
    "DSSTDTC": "2013-04-24",
    "DSDY": 1
  },
  {
    "STUDYID": "CDISCPILOT01",
    "DOMAIN": "DS",
    "USUBJID": "01-701-035",
    "DSSEQ": 3,
    "DSTERM": "COMPLETED TREATMENT",
    "DSDECOD": "COMPLETED",
    "DSCAT": "DISPOSITION EVENT",
    "DSSCAT": "TREATMENT",
    "DSSTDTC": "2013-10-09",
    "DSDY": 169
  },
  {
    "STUDYID": "CDISCPILOT01",
    "DOMAIN": "DS",
    "USUBJID": "01-701-035",
    "DSSEQ": 4,
    "DSTERM": "COMPLETED STUDY",
    "DSDECOD": "COMPLETED",
    "DSCAT": "DISPOSITION EVENT",
    "DSSCAT": "STUDY",
    "DSSTDTC": "2013-10-23",
    "DSDY": 183
  },
  {
    "STUDYID": "CDISCPILOT01",
    "DOMAIN": "DS",
    "USUBJID": "01-701-036",
    "DSSEQ": 1,
    "DSTERM": "INFORMED CONSENT OBTAINED",
    "DSDECOD": "INFORMED CONSENT OBTAINED",
    "DSCAT": "PROTOCOL MILESTONE",
    "DSSCAT": "",
    "DSSTDTC": "2013-07-29"
  },
  {
    "STUDYID": "CDISCPILOT01",
    "DOMAIN": "DS",
    "USUBJID": "01-701-036",
    "DSSEQ": 2,
    "DSTERM": "RANDOMIZED",
    "DSDECOD": "RANDOMIZED",
    "DSCAT": "PROTOCOL MILESTONE",
    "DSSCAT": "",
    "DSSTDTC": "2013-08-15",
    "DSDY": 1
  },
  {
    "STUDYID": "CDISCPILOT01",
    "DOMAIN": "DS",
    "USUBJID": "01-701-036",
    "DSSEQ": 3,
    "DSTERM": "ADVERSE EVENT",
    "DSDECOD": "ADVERSE EVENT",
    "DSCAT": "DISPOSITION EVENT",
    "DSSCAT": "TREATMENT",
    "DSSTDTC": "2013-09-19",
    "DSDY": 36
  },
  {
    "STUDYID": "CDISCPILOT01",
    "DOMAIN": "DS",
    "USUBJID": "01-701-036",
    "DSSEQ": 4,
    "DSTERM": "ADVERSE EVENT",
    "DSDECOD": "ADVERSE EVENT",
    "DSCAT": "DISPOSITION EVENT",
    "DSSCAT": "STUDY",
    "DSSTDTC": "2013-10-03",
    "DSDY": 50
  },
  {
    "STUDYID": "CDISCPILOT01",
    "DOMAIN": "DS",
    "USUBJID": "01-701-037",
    "DSSEQ": 1,
    "DSTERM": "INFORMED CONSENT OBTAINED",
    "DSDECOD": "INFORMED CONSENT OBTAINED",
    "DSCAT": "PROTOCOL MILESTONE",
    "DSSCAT": "",
    "DSSTDTC": "2012-12-25"
  },
  {
    "STUDYID": "CDISCPILOT01",
    "DOMAIN": "DS",
    "USUBJID": "01-701-037",
    "DSSEQ": 2,
    "DSTERM": "RANDOMIZED",
    "DSDECOD": "RANDOMIZED",
    "DSCAT": "PROTOCOL MILESTONE",
    "DSSCAT": "",
    "DSSTDTC": "2013-01-04",
    "DSDY": 1
  },
  {
    "STUDYID": "CDISCPILOT01",
    "DOMAIN": "DS",
    "USUBJID": "01-701-037",
    "DSSEQ": 3,
    "DSTERM": "COMPLETED TREATMENT",
    "DSDECOD": "COMPLETED",
    "DSCAT": "DISPOSITION EVENT",
    "DSSCAT": "TREATMENT",
    "DSSTDTC": "2013-06-21",
    "DSDY": 169
  },
  {
    "STUDYID": "CDISCPILOT01",
    "DOMAIN": "DS",
    "USUBJID": "01-701-037",
    "DSSEQ": 4,
    "DSTERM": "COMPLETED STUDY",
    "DSDECOD": "COMPLETED",
    "DSCAT": "DISPOSITION EVENT",
    "DSSCAT": "STUDY",
    "DSSTDTC": "2013-07-05",
    "DSDY": 183
  },
  {
    "STUDYID": "CDISCPILOT01",
    "DOMAIN": "DS",
    "USUBJID": "01-701-038",
    "DSSEQ": 1,
    "DSTERM": "INFORMED CONSENT OBTAINED",
    "DSDECOD": "INFORMED CONSENT OBTAINED",
    "DSCAT": "PROTOCOL MILESTONE",
    "DSSCAT": "",
    "DSSTDTC": "2013-05-29"
  },
  {
    "STUDYID": "CDISCPILOT01",
    "DOMAIN": "DS",
    "USUBJID": "01-701-038",
    "DSSEQ": 2,
    "DSTERM": "RANDOMIZED",
    "DSDECOD": "RANDOMIZED",
    "DSCAT": "PROTOCOL MILESTONE",
    "DSSCAT": "",
    "DSSTDTC": "2013-06-13",
    "DSDY": 1
  },
  {
    "STUDYID": "CDISCPILOT01",
    "DOMAIN": "DS",
    "USUBJID": "01-701-038",
    "DSSEQ": 3,
    "DSTERM": "ADVERSE EVENT",
    "DSDECOD": "ADVERSE EVENT",
    "DSCAT": "DISPOSITION EVENT",
    "DSSCAT": "TREATMENT",
    "DSSTDTC": "2013-08-08",
    "DSDY": 57
  },
  {
    "STUDYID": "CDISCPILOT01",
    "DOMAIN": "DS",
    "USUBJID": "01-701-038",
    "DSSEQ": 4,
    "DSTERM": "ADVERSE EVENT",
    "DSDECOD": "ADVERSE EVENT",
    "DSCAT": "DISPOSITION EVENT",
    "DSSCAT": "STUDY",
    "DSSTDTC": "2013-08-18",
    "DSDY": 67
  },
  {
    "STUDYID": "CDISCPILOT01",
    "DOMAIN": "DS",
    "USUBJID": "01-701-039",
    "DSSEQ": 1,
    "DSTERM": "INFORMED CONSENT OBTAINED",
    "DSDECOD": "INFORMED CONSENT OBTAINED",
    "DSCAT": "PROTOCOL MILESTONE",
    "DSSCAT": "",
    "DSSTDTC": "2013-04-15"
  },
  {
    "STUDYID": "CDISCPILOT01",
    "DOMAIN": "DS",
    "USUBJID": "01-701-039",
    "DSSEQ": 2,
    "DSTERM": "RANDOMIZED",
    "DSDECOD": "RANDOMIZED",
    "DSCAT": "PROTOCOL MILESTONE",
    "DSSCAT": "",
    "DSSTDTC": "2013-04-26",
    "DSDY": 1
  },
  {
    "STUDYID": "CDISCPILOT01",
    "DOMAIN": "DS",
    "USUBJID": "01-701-039",
    "DSSEQ": 3,
    "DSTERM": "ADVERSE EVENT",
    "DSDECOD": "ADVERSE EVENT",
    "DSCAT": "DISPOSITION EVENT",
    "DSSCAT": "TREATMENT",
    "DSSTDTC": "2013-05-24",
    "DSDY": 29
  },
  {
    "STUDYID": "CDISCPILOT01",
    "DOMAIN": "DS",
    "USUBJID": "01-701-039",
    "DSSEQ": 4,
    "DSTERM": "ADVERSE EVENT",
    "DSDECOD": "ADVERSE EVENT",
    "DSCAT": "DISPOSITION EVENT",
    "DSSCAT": "STUDY",
    "DSSTDTC": "2013-06-02",
    "DSDY": 38
  },
  {
    "STUDYID": "CDISCPILOT01",
    "DOMAIN": "DS",
    "USUBJID": "01-701-040",
    "DSSEQ": 1,
    "DSTERM": "INFORMED CONSENT OBTAINED",
    "DSDECOD": "INFORMED CONSENT OBTAINED",
    "DSCAT": "PROTOCOL MILESTONE",
    "DSSCAT": "",
    "DSSTDTC": "2013-09-25"
  },
  {
    "STUDYID": "CDISCPILOT01",
    "DOMAIN": "DS",
    "USUBJID": "01-701-040",
    "DSSEQ": 2,
    "DSTERM": "RANDOMIZED",
    "DSDECOD": "RANDOMIZED",
    "DSCAT": "PROTOCOL MILESTONE",
    "DSSCAT": "",
    "DSSTDTC": "2013-10-03",
    "DSDY": 1
  },
  {
    "STUDYID": "CDISCPILOT01",
    "DOMAIN": "DS",
    "USUBJID": "01-701-040",
    "DSSEQ": 3,
    "DSTERM": "SPONSOR DECISION",
    "DSDECOD": "SPONSOR DECISION",
    "DSCAT": "DISPOSITION EVENT",
    "DSSCAT": "TREATMENT",
    "DSSTDTC": "2013-10-31",
    "DSDY": 29
  },
  {
    "STUDYID": "CDISCPILOT01",
    "DOMAIN": "DS",
    "USUBJID": "01-701-040",
    "DSSEQ": 4,
    "DSTERM": "SPONSOR DECISION",
    "DSDECOD": "SPONSOR DECISION",
    "DSCAT": "DISPOSITION EVENT",
    "DSSCAT": "STUDY",
    "DSSTDTC": "2013-11-02",
    "DSDY": 31
  },
  {
    "STUDYID": "CDISCPILOT01",
    "DOMAIN": "DS",
    "USUBJID": "01-701-041",
    "DSSEQ": 1,
    "DSTERM": "INFORMED CONSENT OBTAINED",
    "DSDECOD": "INFORMED CONSENT OBTAINED",
    "DSCAT": "PROTOCOL MILESTONE",
    "DSSCAT": "",
    "DSSTDTC": "2013-10-23"
  },
  {
    "STUDYID": "CDISCPILOT01",
    "DOMAIN": "DS",
    "USUBJID": "01-701-041",
    "DSSEQ": 2,
    "DSTERM": "RANDOMIZED",
    "DSDECOD": "RANDOMIZED",
    "DSCAT": "PROTOCOL MILESTONE",
    "DSSCAT": "",
    "DSSTDTC": "2013-11-05",
    "DSDY": 1
  },
  {
    "STUDYID": "CDISCPILOT01",
    "DOMAIN": "DS",
    "USUBJID": "01-701-041",
    "DSSEQ": 3,
    "DSTERM": "ADVERSE EVENT",
    "DSDECOD": "ADVERSE EVENT",
    "DSCAT": "DISPOSITION EVENT",
    "DSSCAT": "TREATMENT",
    "DSSTDTC": "2014-04-22",
    "DSDY": 169
  },
  {
    "STUDYID": "CDISCPILOT01",
    "DOMAIN": "DS",
    "USUBJID": "01-701-041",
    "DSSEQ": 4,
    "DSTERM": "ADVERSE EVENT",
    "DSDECOD": "ADVERSE EVENT",
    "DSCAT": "DISPOSITION EVENT",
    "DSSCAT": "STUDY",
    "DSSTDTC": "2014-05-02",
    "DSDY": 179
  },
  {
    "STUDYID": "CDISCPILOT01",
    "DOMAIN": "DS",
    "USUBJID": "01-701-042",
    "DSSEQ": 1,
    "DSTERM": "INFORMED CONSENT OBTAINED",
    "DSDECOD": "INFORMED CONSENT OBTAINED",
    "DSCAT": "PROTOCOL MILESTONE",
    "DSSCAT": "",
    "DSSTDTC": "2013-08-23"
  },
  {
    "STUDYID": "CDISCPILOT01",
    "DOMAIN": "DS",
    "USUBJID": "01-701-042",
    "DSSEQ": 2,
    "DSTERM": "RANDOMIZED",
    "DSDECOD": "RANDOMIZED",
    "DSCAT": "PROTOCOL MILESTONE",
    "DSSCAT": "",
    "DSSTDTC": "2013-09-02",
    "DSDY": 1
  },
  {
    "STUDYID": "CDISCPILOT01",
    "DOMAIN": "DS",
    "USUBJID": "01-701-042",
    "DSSEQ": 3,
    "DSTERM": "COMPLETED TREATMENT",
    "DSDECOD": "COMPLETED",
    "DSCAT": "DISPOSITION EVENT",
    "DSSCAT": "TREATMENT",
    "DSSTDTC": "2014-02-17",
    "DSDY": 169
  },
  {
    "STUDYID": "CDISCPILOT01",
    "DOMAIN": "DS",
    "USUBJID": "01-701-042",
    "DSSEQ": 4,
    "DSTERM": "COMPLETED STUDY",
    "DSDECOD": "COMPLETED",
    "DSCAT": "DISPOSITION EVENT",
    "DSSCAT": "STUDY",
    "DSSTDTC": "2014-03-03",
    "DSDY": 183
  },
  {
    "STUDYID": "CDISCPILOT01",
    "DOMAIN": "DS",
    "USUBJID": "01-701-043",
    "DSSEQ": 1,
    "DSTERM": "INFORMED CONSENT OBTAINED",
    "DSDECOD": "INFORMED CONSENT OBTAINED",
    "DSCAT": "PROTOCOL MILESTONE",
    "DSSCAT": "",
    "DSSTDTC": "2013-06-07"
  },
  {
    "STUDYID": "CDISCPILOT01",
    "DOMAIN": "DS",
    "USUBJID": "01-701-043",
    "DSSEQ": 2,
    "DSTERM": "RANDOMIZED",
    "DSDECOD": "RANDOMIZED",
    "DSCAT": "PROTOCOL MILESTONE",
    "DSSCAT": "",
    "DSSTDTC": "2013-06-15",
    "DSDY": 1
  },
  {
    "STUDYID": "CDISCPILOT01",
    "DOMAIN": "DS",
    "USUBJID": "01-701-043",
    "DSSEQ": 3,
    "DSTERM": "PROTOCOL CRITERIA NOT MET",
    "DSDECOD": "PROTOCOL CRITERIA NOT MET",
    "DSCAT": "DISPOSITION EVENT",
    "DSSCAT": "TREATMENT",
    "DSSTDTC": "2013-06-29",
    "DSDY": 15
  },
  {
    "STUDYID": "CDISCPILOT01",
    "DOMAIN": "DS",
    "USUBJID": "01-701-043",
    "DSSEQ": 4,
    "DSTERM": "PROTOCOL CRITERIA NOT MET",
    "DSDECOD": "PROTOCOL CRITERIA NOT MET",
    "DSCAT": "DISPOSITION EVENT",
    "DSSCAT": "STUDY",
    "DSSTDTC": "2013-06-30",
    "DSDY": 16
  },
  {
    "STUDYID": "CDISCPILOT01",
    "DOMAIN": "DS",
    "USUBJID": "01-703-001",
    "DSSEQ": 1,
    "DSTERM": "INFORMED CONSENT OBTAINED",
    "DSDECOD": "INFORMED CONSENT OBTAINED",
    "DSCAT": "PROTOCOL MILESTONE",
    "DSSCAT": "",
    "DSSTDTC": "2012-12-28"
  },
  {
    "STUDYID": "CDISCPILOT01",
    "DOMAIN": "DS",
    "USUBJID": "01-703-001",
    "DSSEQ": 2,
    "DSTERM": "RANDOMIZED",
    "DSDECOD": "RANDOMIZED",
    "DSCAT": "PROTOCOL MILESTONE",
    "DSSCAT": "",
    "DSSTDTC": "2013-01-12",
    "DSDY": 1
  },
  {
    "STUDYID": "CDISCPILOT01",
    "DOMAIN": "DS",
    "USUBJID": "01-703-001",
    "DSSEQ": 3,
    "DSTERM": "COMPLETED TREATMENT",
    "DSDECOD": "COMPLETED",
    "DSCAT": "DISPOSITION EVENT",
    "DSSCAT": "TREATMENT",
    "DSSTDTC": "2013-06-29",
    "DSDY": 169
  },
  {
    "STUDYID": "CDISCPILOT01",
    "DOMAIN": "DS",
    "USUBJID": "01-703-001",
    "DSSEQ": 4,
    "DSTERM": "COMPLETED STUDY",
    "DSDECOD": "COMPLETED",
    "DSCAT": "DISPOSITION EVENT",
    "DSSCAT": "STUDY",
    "DSSTDTC": "2013-07-13",
    "DSDY": 183
  },
  {
    "STUDYID": "CDISCPILOT01",
    "DOMAIN": "DS",
    "USUBJID": "01-703-002",
    "DSSEQ": 1,
    "DSTERM": "INFORMED CONSENT OBTAINED",
    "DSDECOD": "INFORMED CONSENT OBTAINED",
    "DSCAT": "PROTOCOL MILESTONE",
    "DSSCAT": "",
    "DSSTDTC": "2013-01-12"
  },
  {
    "STUDYID": "CDISCPILOT01",
    "DOMAIN": "DS",
    "USUBJID": "01-703-002",
    "DSSEQ": 2,
    "DSTERM": "RANDOMIZED",
    "DSDECOD": "RANDOMIZED",
    "DSCAT": "PROTOCOL MILESTONE",
    "DSSCAT": "",
    "DSSTDTC": "2013-02-02",
    "DSDY": 1
  },
  {
    "STUDYID": "CDISCPILOT01",
    "DOMAIN": "DS",
    "USUBJID": "01-703-002",
    "DSSEQ": 3,
    "DSTERM": "ADVERSE EVENT",
    "DSDECOD": "ADVERSE EVENT",
    "DSCAT": "DISPOSITION EVENT",
    "DSSCAT": "TREATMENT",
    "DSSTDTC": "2013-06-29",
    "DSDY": 148
  },
  {
    "STUDYID": "CDISCPILOT01",
    "DOMAIN": "DS",
    "USUBJID": "01-703-002",
    "DSSEQ": 4,
    "DSTERM": "ADVERSE EVENT",
    "DSDECOD": "ADVERSE EVENT",
    "DSCAT": "DISPOSITION EVENT",
    "DSSCAT": "STUDY",
    "DSSTDTC": "2013-07-12",
    "DSDY": 161
  },
  {
    "STUDYID": "CDISCPILOT01",
    "DOMAIN": "DS",
    "USUBJID": "01-703-003",
    "DSSEQ": 1,
    "DSTERM": "INFORMED CONSENT OBTAINED",
    "DSDECOD": "INFORMED CONSENT OBTAINED",
    "DSCAT": "PROTOCOL MILESTONE",
    "DSSCAT": "",
    "DSSTDTC": "2013-07-23"
  },
  {
    "STUDYID": "CDISCPILOT01",
    "DOMAIN": "DS",
    "USUBJID": "01-703-003",
    "DSSEQ": 2,
    "DSTERM": "RANDOMIZED",
    "DSDECOD": "RANDOMIZED",
    "DSCAT": "PROTOCOL MILESTONE",
    "DSSCAT": "",
    "DSSTDTC": "2013-08-11",
    "DSDY": 1
  },
  {
    "STUDYID": "CDISCPILOT01",
    "DOMAIN": "DS",
    "USUBJID": "01-703-003",
    "DSSEQ": 3,
    "DSTERM": "COMPLETED TREATMENT",
    "DSDECOD": "COMPLETED",
    "DSCAT": "DISPOSITION EVENT",
    "DSSCAT": "TREATMENT",
    "DSSTDTC": "2014-01-26",
    "DSDY": 169
  },
  {
    "STUDYID": "CDISCPILOT01",
    "DOMAIN": "DS",
    "USUBJID": "01-703-003",
    "DSSEQ": 4,
    "DSTERM": "COMPLETED STUDY",
    "DSDECOD": "COMPLETED",
    "DSCAT": "DISPOSITION EVENT",
    "DSSCAT": "STUDY",
    "DSSTDTC": "2014-02-09",
    "DSDY": 183
  },
  {
    "STUDYID": "CDISCPILOT01",
    "DOMAIN": "DS",
    "USUBJID": "01-703-004",
    "DSSEQ": 1,
    "DSTERM": "INFORMED CONSENT OBTAINED",
    "DSDECOD": "INFORMED CONSENT OBTAINED",
    "DSCAT": "PROTOCOL MILESTONE",
    "DSSCAT": "",
    "DSSTDTC": "2013-07-10"
  },
  {
    "STUDYID": "CDISCPILOT01",
    "DOMAIN": "DS",
    "USUBJID": "01-703-004",
    "DSSEQ": 2,
    "DSTERM": "RANDOMIZED",
    "DSDECOD": "RANDOMIZED",
    "DSCAT": "PROTOCOL MILESTONE",
    "DSSCAT": "",
    "DSSTDTC": "2013-07-30",
    "DSDY": 1
  },
  {
    "STUDYID": "CDISCPILOT01",
    "DOMAIN": "DS",
    "USUBJID": "01-703-004",
    "DSSEQ": 3,
    "DSTERM": "WITHDREW CONSENT",
    "DSDECOD": "WITHDREW CONSENT",
    "DSCAT": "DISPOSITION EVENT",
    "DSSCAT": "TREATMENT",
    "DSSTDTC": "2013-12-24",
    "DSDY": 148
  },
  {
    "STUDYID": "CDISCPILOT01",
    "DOMAIN": "DS",
    "USUBJID": "01-703-004",
    "DSSEQ": 4,
    "DSTERM": "WITHDREW CONSENT",
    "DSDECOD": "WITHDREW CONSENT",
    "DSCAT": "DISPOSITION EVENT",
    "DSSCAT": "STUDY",
    "DSSTDTC": "2014-01-03",
    "DSDY": 158
  },
  {
    "STUDYID": "CDISCPILOT01",
    "DOMAIN": "DS",
    "USUBJID": "01-703-005",
    "DSSEQ": 1,
    "DSTERM": "INFORMED CONSENT OBTAINED",
    "DSDECOD": "INFORMED CONSENT OBTAINED",
    "DSCAT": "PROTOCOL MILESTONE",
    "DSSCAT": "",
    "DSSTDTC": "2013-02-23"
  },
  {
    "STUDYID": "CDISCPILOT01",
    "DOMAIN": "DS",
    "USUBJID": "01-703-005",
    "DSSEQ": 2,
    "DSTERM": "RANDOMIZED",
    "DSDECOD": "RANDOMIZED",
    "DSCAT": "PROTOCOL MILESTONE",
    "DSSCAT": "",
    "DSSTDTC": "2013-03-05",
    "DSDY": 1
  },
  {
    "STUDYID": "CDISCPILOT01",
    "DOMAIN": "DS",
    "USUBJID": "01-703-005",
    "DSSEQ": 3,
    "DSTERM": "ADVERSE EVENT",
    "DSDECOD": "ADVERSE EVENT",
    "DSCAT": "DISPOSITION EVENT",
    "DSSCAT": "TREATMENT",
    "DSSTDTC": "2013-04-30",
    "DSDY": 57
  },
  {
    "STUDYID": "CDISCPILOT01",
    "DOMAIN": "DS",
    "USUBJID": "01-703-005",
    "DSSEQ": 4,
    "DSTERM": "ADVERSE EVENT",
    "DSDECOD": "ADVERSE EVENT",
    "DSCAT": "DISPOSITION EVENT",
    "DSSCAT": "STUDY",
    "DSSTDTC": "2013-05-05",
    "DSDY": 62
  },
  {
    "STUDYID": "CDISCPILOT01",
    "DOMAIN": "DS",
    "USUBJID": "01-703-006",
    "DSSEQ": 1,
    "DSTERM": "INFORMED CONSENT OBTAINED",
    "DSDECOD": "INFORMED CONSENT OBTAINED",
    "DSCAT": "PROTOCOL MILESTONE",
    "DSSCAT": "",
    "DSSTDTC": "2013-07-10"
  },
  {
    "STUDYID": "CDISCPILOT01",
    "DOMAIN": "DS",
    "USUBJID": "01-703-006",
    "DSSEQ": 2,
    "DSTERM": "RANDOMIZED",
    "DSDECOD": "RANDOMIZED",
    "DSCAT": "PROTOCOL MILESTONE",
    "DSSCAT": "",
    "DSSTDTC": "2013-07-24",
    "DSDY": 1
  },
  {
    "STUDYID": "CDISCPILOT01",
    "DOMAIN": "DS",
    "USUBJID": "01-703-006",
    "DSSEQ": 3,
    "DSTERM": "WITHDREW CONSENT",
    "DSDECOD": "WITHDREW CONSENT",
    "DSCAT": "DISPOSITION EVENT",
    "DSSCAT": "TREATMENT",
    "DSSTDTC": "2013-09-04",
    "DSDY": 43
  },
  {
    "STUDYID": "CDISCPILOT01",
    "DOMAIN": "DS",
    "USUBJID": "01-703-006",
    "DSSEQ": 4,
    "DSTERM": "WITHDREW CONSENT",
    "DSDECOD": "WITHDREW CONSENT",
    "DSCAT": "DISPOSITION EVENT",
    "DSSCAT": "STUDY",
    "DSSTDTC": "2013-09-11",
    "DSDY": 50
  },
  {
    "STUDYID": "CDISCPILOT01",
    "DOMAIN": "DS",
    "USUBJID": "01-703-007",
    "DSSEQ": 1,
    "DSTERM": "INFORMED CONSENT OBTAINED",
    "DSDECOD": "INFORMED CONSENT OBTAINED",
    "DSCAT": "PROTOCOL MILESTONE",
    "DSSCAT": "",
    "DSSTDTC": "2013-02-12"
  },
  {
    "STUDYID": "CDISCPILOT01",
    "DOMAIN": "DS",
    "USUBJID": "01-703-007",
    "DSSEQ": 2,
    "DSTERM": "RANDOMIZED",
    "DSDECOD": "RANDOMIZED",
    "DSCAT": "PROTOCOL MILESTONE",
    "DSSCAT": "",
    "DSSTDTC": "2013-02-20",
    "DSDY": 1
  },
  {
    "STUDYID": "CDISCPILOT01",
    "DOMAIN": "DS",
    "USUBJID": "01-703-007",
    "DSSEQ": 3,
    "DSTERM": "ADVERSE EVENT",
    "DSDECOD": "ADVERSE EVENT",
    "DSCAT": "DISPOSITION EVENT",
    "DSSCAT": "TREATMENT",
    "DSSTDTC": "2013-05-08",
    "DSDY": 78
  },
  {
    "STUDYID": "CDISCPILOT01",
    "DOMAIN": "DS",
    "USUBJID": "01-703-007",
    "DSSEQ": 4,
    "DSTERM": "ADVERSE EVENT",
    "DSDECOD": "ADVERSE EVENT",
    "DSCAT": "DISPOSITION EVENT",
    "DSSCAT": "STUDY",
    "DSSTDTC": "2013-05-16",
    "DSDY": 86
  },
  {
    "STUDYID": "CDISCPILOT01",
    "DOMAIN": "DS",
    "USUBJID": "01-703-008",
    "DSSEQ": 1,
    "DSTERM": "INFORMED CONSENT OBTAINED",
    "DSDECOD": "INFORMED CONSENT OBTAINED",
    "DSCAT": "PROTOCOL MILESTONE",
    "DSSCAT": "",
    "DSSTDTC": "2013-12-24"
  },
  {
    "STUDYID": "CDISCPILOT01",
    "DOMAIN": "DS",
    "USUBJID": "01-703-008",
    "DSSEQ": 2,
    "DSTERM": "RANDOMIZED",
    "DSDECOD": "RANDOMIZED",
    "DSCAT": "PROTOCOL MILESTONE",
    "DSSCAT": "",
    "DSSTDTC": "2013-12-31",
    "DSDY": 1
  },
  {
    "STUDYID": "CDISCPILOT01",
    "DOMAIN": "DS",
    "USUBJID": "01-703-008",
    "DSSEQ": 3,
    "DSTERM": "COMPLETED TREATMENT",
    "DSDECOD": "COMPLETED",
    "DSCAT": "DISPOSITION EVENT",
    "DSSCAT": "TREATMENT",
    "DSSTDTC": "2014-06-17",
    "DSDY": 169
  },
  {
    "STUDYID": "CDISCPILOT01",
    "DOMAIN": "DS",
    "USUBJID": "01-703-008",
    "DSSEQ": 4,
    "DSTERM": "WITHDREW CONSENT",
    "DSDECOD": "WITHDREW CONSENT",
    "DSCAT": "DISPOSITION EVENT",
    "DSSCAT": "STUDY",
    "DSSTDTC": "2014-06-29",
    "DSDY": 181
  },
  {
    "STUDYID": "CDISCPILOT01",
    "DOMAIN": "DS",
    "USUBJID": "01-703-009",
    "DSSEQ": 1,
    "DSTERM": "INFORMED CONSENT OBTAINED",
    "DSDECOD": "INFORMED CONSENT OBTAINED",
    "DSCAT": "PROTOCOL MILESTONE",
    "DSSCAT": "",
    "DSSTDTC": "2013-05-26"
  },
  {
    "STUDYID": "CDISCPILOT01",
    "DOMAIN": "DS",
    "USUBJID": "01-703-009",
    "DSSEQ": 2,
    "DSTERM": "RANDOMIZED",
    "DSDECOD": "RANDOMIZED",
    "DSCAT": "PROTOCOL MILESTONE",
    "DSSCAT": "",
    "DSSTDTC": "2013-06-03",
    "DSDY": 1
  },
  {
    "STUDYID": "CDISCPILOT01",
    "DOMAIN": "DS",
    "USUBJID": "01-703-009",
    "DSSEQ": 3,
    "DSTERM": "ADVERSE EVENT",
    "DSDECOD": "ADVERSE EVENT",
    "DSCAT": "DISPOSITION EVENT",
    "DSSCAT": "TREATMENT",
    "DSSTDTC": "2013-07-15",
    "DSDY": 43
  },
  {
    "STUDYID": "CDISCPILOT01",
    "DOMAIN": "DS",
    "USUBJID": "01-703-009",
    "DSSEQ": 4,
    "DSTERM": "ADVERSE EVENT",
    "DSDECOD": "ADVERSE EVENT",
    "DSCAT": "DISPOSITION EVENT",
    "DSSCAT": "STUDY",
    "DSSTDTC": "2013-07-19",
    "DSDY": 47
  },
  {
    "STUDYID": "CDISCPILOT01",
    "DOMAIN": "DS",
    "USUBJID": "01-703-010",
    "DSSEQ": 1,
    "DSTERM": "INFORMED CONSENT OBTAINED",
    "DSDECOD": "INFORMED CONSENT OBTAINED",
    "DSCAT": "PROTOCOL MILESTONE",
    "DSSCAT": "",
    "DSSTDTC": "2013-06-17"
  },
  {
    "STUDYID": "CDISCPILOT01",
    "DOMAIN": "DS",
    "USUBJID": "01-703-010",
    "DSSEQ": 2,
    "DSTERM": "RANDOMIZED",
    "DSDECOD": "RANDOMIZED",
    "DSCAT": "PROTOCOL MILESTONE",
    "DSSCAT": "",
    "DSSTDTC": "2013-07-01",
    "DSDY": 1
  },
  {
    "STUDYID": "CDISCPILOT01",
    "DOMAIN": "DS",
    "USUBJID": "01-703-010",
    "DSSEQ": 3,
    "DSTERM": "PHYSICIAN DECISION",
    "DSDECOD": "PHYSICIAN DECISION",
    "DSCAT": "DISPOSITION EVENT",
    "DSSCAT": "TREATMENT",
    "DSSTDTC": "2013-07-22",
    "DSDY": 22
  },
  {
    "STUDYID": "CDISCPILOT01",
    "DOMAIN": "DS",
    "USUBJID": "01-703-010",
    "DSSEQ": 4,
    "DSTERM": "PHYSICIAN DECISION",
    "DSDECOD": "PHYSICIAN DECISION",
    "DSCAT": "DISPOSITION EVENT",
    "DSSCAT": "STUDY",
    "DSSTDTC": "2013-07-22",
    "DSDY": 22
  },
  {
    "STUDYID": "CDISCPILOT01",
    "DOMAIN": "DS",
    "USUBJID": "01-703-011",
    "DSSEQ": 1,
    "DSTERM": "INFORMED CONSENT OBTAINED",
    "DSDECOD": "INFORMED CONSENT OBTAINED",
    "DSCAT": "PROTOCOL MILESTONE",
    "DSSCAT": "",
    "DSSTDTC": "2013-12-08"
  },
  {
    "STUDYID": "CDISCPILOT01",
    "DOMAIN": "DS",
    "USUBJID": "01-703-011",
    "DSSEQ": 2,
    "DSTERM": "RANDOMIZED",
    "DSDECOD": "RANDOMIZED",
    "DSCAT": "PROTOCOL MILESTONE",
    "DSSCAT": "",
    "DSSTDTC": "2013-12-21",
    "DSDY": 1
  },
  {
    "STUDYID": "CDISCPILOT01",
    "DOMAIN": "DS",
    "USUBJID": "01-703-011",
    "DSSEQ": 3,
    "DSTERM": "COMPLETED TREATMENT",
    "DSDECOD": "COMPLETED",
    "DSCAT": "DISPOSITION EVENT",
    "DSSCAT": "TREATMENT",
    "DSSTDTC": "2014-06-07",
    "DSDY": 169
  },
  {
    "STUDYID": "CDISCPILOT01",
    "DOMAIN": "DS",
    "USUBJID": "01-703-011",
    "DSSEQ": 4,
    "DSTERM": "COMPLETED STUDY",
    "DSDECOD": "COMPLETED",
    "DSCAT": "DISPOSITION EVENT",
    "DSSCAT": "STUDY",
    "DSSTDTC": "2014-06-21",
    "DSDY": 183
  },
  {
    "STUDYID": "CDISCPILOT01",
    "DOMAIN": "DS",
    "USUBJID": "01-703-012",
    "DSSEQ": 1,
    "DSTERM": "INFORMED CONSENT OBTAINED",
    "DSDECOD": "INFORMED CONSENT OBTAINED",
    "DSCAT": "PROTOCOL MILESTONE",
    "DSSCAT": "",
    "DSSTDTC": "2013-01-19"
  },
  {
    "STUDYID": "CDISCPILOT01",
    "DOMAIN": "DS",
    "USUBJID": "01-703-012",
    "DSSEQ": 2,
    "DSTERM": "RANDOMIZED",
    "DSDECOD": "RANDOMIZED",
    "DSCAT": "PROTOCOL MILESTONE",
    "DSSCAT": "",
    "DSSTDTC": "2013-02-06",
    "DSDY": 1
  },
  {
    "STUDYID": "CDISCPILOT01",
    "DOMAIN": "DS",
    "USUBJID": "01-703-012",
    "DSSEQ": 3,
    "DSTERM": "ADVERSE EVENT",
    "DSDECOD": "ADVERSE EVENT",
    "DSCAT": "DISPOSITION EVENT",
    "DSSCAT": "TREATMENT",
    "DSSTDTC": "2013-02-20",
    "DSDY": 15
  },
  {
    "STUDYID": "CDISCPILOT01",
    "DOMAIN": "DS",
    "USUBJID": "01-703-012",
    "DSSEQ": 4,
    "DSTERM": "ADVERSE EVENT",
    "DSDECOD": "ADVERSE EVENT",
    "DSCAT": "DISPOSITION EVENT",
    "DSSCAT": "STUDY",
    "DSSTDTC": "2013-02-26",
    "DSDY": 21
  },
  {
    "STUDYID": "CDISCPILOT01",
    "DOMAIN": "DS",
    "USUBJID": "01-703-013",
    "DSSEQ": 1,
    "DSTERM": "INFORMED CONSENT OBTAINED",
    "DSDECOD": "INFORMED CONSENT OBTAINED",
    "DSCAT": "PROTOCOL MILESTONE",
    "DSSCAT": "",
    "DSSTDTC": "2013-04-11"
  },
  {
    "STUDYID": "CDISCPILOT01",
    "DOMAIN": "DS",
    "USUBJID": "01-703-013",
    "DSSEQ": 2,
    "DSTERM": "RANDOMIZED",
    "DSDECOD": "RANDOMIZED",
    "DSCAT": "PROTOCOL MILESTONE",
    "DSSCAT": "",
    "DSSTDTC": "2013-04-28",
    "DSDY": 1
  },
  {
    "STUDYID": "CDISCPILOT01",
    "DOMAIN": "DS",
    "USUBJID": "01-703-013",
    "DSSEQ": 3,
    "DSTERM": "ADVERSE EVENT",
    "DSDECOD": "ADVERSE EVENT",
    "DSCAT": "DISPOSITION EVENT",
    "DSSCAT": "TREATMENT",
    "DSSTDTC": "2013-09-01",
    "DSDY": 127
  },
  {
    "STUDYID": "CDISCPILOT01",
    "DOMAIN": "DS",
    "USUBJID": "01-703-013",
    "DSSEQ": 4,
    "DSTERM": "ADVERSE EVENT",
    "DSDECOD": "ADVERSE EVENT",
    "DSCAT": "DISPOSITION EVENT",
    "DSSCAT": "STUDY",
    "DSSTDTC": "2013-09-13",
    "DSDY": 139
  },
  {
    "STUDYID": "CDISCPILOT01",
    "DOMAIN": "DS",
    "USUBJID": "01-703-014",
    "DSSEQ": 1,
    "DSTERM": "INFORMED CONSENT OBTAINED",
    "DSDECOD": "INFORMED CONSENT OBTAINED",
    "DSCAT": "PROTOCOL MILESTONE",
    "DSSCAT": "",
    "DSSTDTC": "2013-06-26"
  },
  {
    "STUDYID": "CDISCPILOT01",
    "DOMAIN": "DS",
    "USUBJID": "01-703-014",
    "DSSEQ": 2,
    "DSTERM": "RANDOMIZED",
    "DSDECOD": "RANDOMIZED",
    "DSCAT": "PROTOCOL MILESTONE",
    "DSSCAT": "",
    "DSSTDTC": "2013-07-17",
    "DSDY": 1
  },
  {
    "STUDYID": "CDISCPILOT01",
    "DOMAIN": "DS",
    "USUBJID": "01-703-014",
    "DSSEQ": 3,
    "DSTERM": "ADVERSE EVENT",
    "DSDECOD": "ADVERSE EVENT",
    "DSCAT": "DISPOSITION EVENT",
    "DSSCAT": "TREATMENT",
    "DSSTDTC": "2013-08-21",
    "DSDY": 36
  },
  {
    "STUDYID": "CDISCPILOT01",
    "DOMAIN": "DS",
    "USUBJID": "01-703-014",
    "DSSEQ": 4,
    "DSTERM": "ADVERSE EVENT",
    "DSDECOD": "ADVERSE EVENT",
    "DSCAT": "DISPOSITION EVENT",
    "DSSCAT": "STUDY",
    "DSSTDTC": "2013-09-03",
    "DSDY": 49
  },
  {
    "STUDYID": "CDISCPILOT01",
    "DOMAIN": "DS",
    "USUBJID": "01-703-015",
    "DSSEQ": 1,
    "DSTERM": "INFORMED CONSENT OBTAINED",
    "DSDECOD": "INFORMED CONSENT OBTAINED",
    "DSCAT": "PROTOCOL MILESTONE",
    "DSSCAT": "",
    "DSSTDTC": "2013-01-22"
  },
  {
    "STUDYID": "CDISCPILOT01",
    "DOMAIN": "DS",
    "USUBJID": "01-703-015",
    "DSSEQ": 2,
    "DSTERM": "RANDOMIZED",
    "DSDECOD": "RANDOMIZED",
    "DSCAT": "PROTOCOL MILESTONE",
    "DSSCAT": "",
    "DSSTDTC": "2013-02-10",
    "DSDY": 1
  },
  {
    "STUDYID": "CDISCPILOT01",
    "DOMAIN": "DS",
    "USUBJID": "01-703-015",
    "DSSEQ": 3,
    "DSTERM": "COMPLETED TREATMENT",
    "DSDECOD": "COMPLETED",
    "DSCAT": "DISPOSITION EVENT",
    "DSSCAT": "TREATMENT",
    "DSSTDTC": "2013-07-28",
    "DSDY": 169
  },
  {
    "STUDYID": "CDISCPILOT01",
    "DOMAIN": "DS",
    "USUBJID": "01-703-015",
    "DSSEQ": 4,
    "DSTERM": "COMPLETED STUDY",
    "DSDECOD": "COMPLETED",
    "DSCAT": "DISPOSITION EVENT",
    "DSSCAT": "STUDY",
    "DSSTDTC": "2013-08-11",
    "DSDY": 183
  },
  {
    "STUDYID": "CDISCPILOT01",
    "DOMAIN": "DS",
    "USUBJID": "01-703-016",
    "DSSEQ": 1,
    "DSTERM": "INFORMED CONSENT OBTAINED",
    "DSDECOD": "INFORMED CONSENT OBTAINED",
    "DSCAT": "PROTOCOL MILESTONE",
    "DSSCAT": "",
    "DSSTDTC": "2013-04-12"
  },
  {
    "STUDYID": "CDISCPILOT01",
    "DOMAIN": "DS",
    "USUBJID": "01-703-016",
    "DSSEQ": 2,
    "DSTERM": "RANDOMIZED",
    "DSDECOD": "RANDOMIZED",
    "DSCAT": "PROTOCOL MILESTONE",
    "DSSCAT": "",
    "DSSTDTC": "2013-05-02",
    "DSDY": 1
  },
  {
    "STUDYID": "CDISCPILOT01",
    "DOMAIN": "DS",
    "USUBJID": "01-703-016",
    "DSSEQ": 3,
    "DSTERM": "WITHDREW CONSENT",
    "DSDECOD": "WITHDREW CONSENT",
    "DSCAT": "DISPOSITION EVENT",
    "DSSCAT": "TREATMENT",
    "DSSTDTC": "2013-08-15",
    "DSDY": 106
  },
  {
    "STUDYID": "CDISCPILOT01",
    "DOMAIN": "DS",
    "USUBJID": "01-703-016",
    "DSSEQ": 4,
    "DSTERM": "WITHDREW CONSENT",
    "DSDECOD": "WITHDREW CONSENT",
    "DSCAT": "DISPOSITION EVENT",
    "DSSCAT": "STUDY",
    "DSSTDTC": "2013-08-24",
    "DSDY": 115
  },
  {
    "STUDYID": "CDISCPILOT01",
    "DOMAIN": "DS",
    "USUBJID": "01-703-017",
    "DSSEQ": 1,
    "DSTERM": "INFORMED CONSENT OBTAINED",
    "DSDECOD": "INFORMED CONSENT OBTAINED",
    "DSCAT": "PROTOCOL MILESTONE",
    "DSSCAT": "",
    "DSSTDTC": "2013-11-02"
  },
  {
    "STUDYID": "CDISCPILOT01",
    "DOMAIN": "DS",
    "USUBJID": "01-703-017",
    "DSSEQ": 2,
    "DSTERM": "RANDOMIZED",
    "DSDECOD": "RANDOMIZED",
    "DSCAT": "PROTOCOL MILESTONE",
    "DSSCAT": "",
    "DSSTDTC": "2013-11-18",
    "DSDY": 1
  },
  {
    "STUDYID": "CDISCPILOT01",
    "DOMAIN": "DS",
    "USUBJID": "01-703-017",
    "DSSEQ": 3,
    "DSTERM": "ADVERSE EVENT",
    "DSDECOD": "ADVERSE EVENT",
    "DSCAT": "DISPOSITION EVENT",
    "DSSCAT": "TREATMENT",
    "DSSTDTC": "2013-12-23",
    "DSDY": 36
  },
  {
    "STUDYID": "CDISCPILOT01",
    "DOMAIN": "DS",
    "USUBJID": "01-703-017",
    "DSSEQ": 4,
    "DSTERM": "ADVERSE EVENT",
    "DSDECOD": "ADVERSE EVENT",
    "DSCAT": "DISPOSITION EVENT",
    "DSSCAT": "STUDY",
    "DSSTDTC": "2013-12-28",
    "DSDY": 41
  },
  {
    "STUDYID": "CDISCPILOT01",
    "DOMAIN": "DS",
    "USUBJID": "01-703-018",
    "DSSEQ": 1,
    "DSTERM": "INFORMED CONSENT OBTAINED",
    "DSDECOD": "INFORMED CONSENT OBTAINED",
    "DSCAT": "PROTOCOL MILESTONE",
    "DSSCAT": "",
    "DSSTDTC": "2013-08-09"
  },
  {
    "STUDYID": "CDISCPILOT01",
    "DOMAIN": "DS",
    "USUBJID": "01-703-018",
    "DSSEQ": 2,
    "DSTERM": "RANDOMIZED",
    "DSDECOD": "RANDOMIZED",
    "DSCAT": "PROTOCOL MILESTONE",
    "DSSCAT": "",
    "DSSTDTC": "2013-08-23",
    "DSDY": 1
  },
  {
    "STUDYID": "CDISCPILOT01",
    "DOMAIN": "DS",
    "USUBJID": "01-703-018",
    "DSSEQ": 3,
    "DSTERM": "ADVERSE EVENT",
    "DSDECOD": "ADVERSE EVENT",
    "DSCAT": "DISPOSITION EVENT",
    "DSSCAT": "TREATMENT",
    "DSSTDTC": "2013-09-27",
    "DSDY": 36
  },
  {
    "STUDYID": "CDISCPILOT01",
    "DOMAIN": "DS",
    "USUBJID": "01-703-018",
    "DSSEQ": 4,
    "DSTERM": "ADVERSE EVENT",
    "DSDECOD": "ADVERSE EVENT",
    "DSCAT": "DISPOSITION EVENT",
    "DSSCAT": "STUDY",
    "DSSTDTC": "2013-10-11",
    "DSDY": 50
  },
  {
    "STUDYID": "CDISCPILOT01",
    "DOMAIN": "DS",
    "USUBJID": "01-703-019",
    "DSSEQ": 1,
    "DSTERM": "INFORMED CONSENT OBTAINED",
    "DSDECOD": "INFORMED CONSENT OBTAINED",
    "DSCAT": "PROTOCOL MILESTONE",
    "DSSCAT": "",
    "DSSTDTC": "2013-10-22"
  },
  {
    "STUDYID": "CDISCPILOT01",
    "DOMAIN": "DS",
    "USUBJID": "01-703-019",
    "DSSEQ": 2,
    "DSTERM": "RANDOMIZED",
    "DSDECOD": "RANDOMIZED",
    "DSCAT": "PROTOCOL MILESTONE",
    "DSSCAT": "",
    "DSSTDTC": "2013-11-03",
    "DSDY": 1
  },
  {
    "STUDYID": "CDISCPILOT01",
    "DOMAIN": "DS",
    "USUBJID": "01-703-019",
    "DSSEQ": 3,
    "DSTERM": "COMPLETED TREATMENT",
    "DSDECOD": "COMPLETED",
    "DSCAT": "DISPOSITION EVENT",
    "DSSCAT": "TREATMENT",
    "DSSTDTC": "2014-04-20",
    "DSDY": 169
  },
  {
    "STUDYID": "CDISCPILOT01",
    "DOMAIN": "DS",
    "USUBJID": "01-703-019",
    "DSSEQ": 4,
    "DSTERM": "COMPLETED STUDY",
    "DSDECOD": "COMPLETED",
    "DSCAT": "DISPOSITION EVENT",
    "DSSCAT": "STUDY",
    "DSSTDTC": "2014-05-04",
    "DSDY": 183
  },
  {
    "STUDYID": "CDISCPILOT01",
    "DOMAIN": "DS",
    "USUBJID": "01-703-020",
    "DSSEQ": 1,
    "DSTERM": "INFORMED CONSENT OBTAINED",
    "DSDECOD": "INFORMED CONSENT OBTAINED",
    "DSCAT": "PROTOCOL MILESTONE",
    "DSSCAT": "",
    "DSSTDTC": "2013-06-21"
  },
  {
    "STUDYID": "CDISCPILOT01",
    "DOMAIN": "DS",
    "USUBJID": "01-703-020",
    "DSSEQ": 2,
    "DSTERM": "RANDOMIZED",
    "DSDECOD": "RANDOMIZED",
    "DSCAT": "PROTOCOL MILESTONE",
    "DSSCAT": "",
    "DSSTDTC": "2013-07-07",
    "DSDY": 1
  },
  {
    "STUDYID": "CDISCPILOT01",
    "DOMAIN": "DS",
    "USUBJID": "01-703-020",
    "DSSEQ": 3,
    "DSTERM": "ADVERSE EVENT",
    "DSDECOD": "ADVERSE EVENT",
    "DSCAT": "DISPOSITION EVENT",
    "DSSCAT": "TREATMENT",
    "DSSTDTC": "2013-12-22",
    "DSDY": 169
  },
  {
    "STUDYID": "CDISCPILOT01",
    "DOMAIN": "DS",
    "USUBJID": "01-703-020",
    "DSSEQ": 4,
    "DSTERM": "ADVERSE EVENT",
    "DSDECOD": "ADVERSE EVENT",
    "DSCAT": "DISPOSITION EVENT",
    "DSSCAT": "STUDY",
    "DSSTDTC": "2013-12-26",
    "DSDY": 173
  },
  {
    "STUDYID": "CDISCPILOT01",
    "DOMAIN": "DS",
    "USUBJID": "01-704-001",
    "DSSEQ": 1,
    "DSTERM": "INFORMED CONSENT OBTAINED",
    "DSDECOD": "INFORMED CONSENT OBTAINED",
    "DSCAT": "PROTOCOL MILESTONE",
    "DSSCAT": "",
    "DSSTDTC": "2013-11-25"
  },
  {
    "STUDYID": "CDISCPILOT01",
    "DOMAIN": "DS",
    "USUBJID": "01-704-001",
    "DSSEQ": 2,
    "DSTERM": "RANDOMIZED",
    "DSDECOD": "RANDOMIZED",
    "DSCAT": "PROTOCOL MILESTONE",
    "DSSCAT": "",
    "DSSTDTC": "2013-12-13",
    "DSDY": 1
  },
  {
    "STUDYID": "CDISCPILOT01",
    "DOMAIN": "DS",
    "USUBJID": "01-704-001",
    "DSSEQ": 3,
    "DSTERM": "COMPLETED TREATMENT",
    "DSDECOD": "COMPLETED",
    "DSCAT": "DISPOSITION EVENT",
    "DSSCAT": "TREATMENT",
    "DSSTDTC": "2014-05-30",
    "DSDY": 169
  },
  {
    "STUDYID": "CDISCPILOT01",
    "DOMAIN": "DS",
    "USUBJID": "01-704-001",
    "DSSEQ": 4,
    "DSTERM": "WITHDREW CONSENT",
    "DSDECOD": "WITHDREW CONSENT",
    "DSCAT": "DISPOSITION EVENT",
    "DSSCAT": "STUDY",
    "DSSTDTC": "2014-06-13",
    "DSDY": 183
  },
  {
    "STUDYID": "CDISCPILOT01",
    "DOMAIN": "DS",
    "USUBJID": "01-704-002",
    "DSSEQ": 1,
    "DSTERM": "INFORMED CONSENT OBTAINED",
    "DSDECOD": "INFORMED CONSENT OBTAINED",
    "DSCAT": "PROTOCOL MILESTONE",
    "DSSCAT": "",
    "DSSTDTC": "2013-02-04"
  },
  {
    "STUDYID": "CDISCPILOT01",
    "DOMAIN": "DS",
    "USUBJID": "01-704-002",
    "DSSEQ": 2,
    "DSTERM": "RANDOMIZED",
    "DSDECOD": "RANDOMIZED",
    "DSCAT": "PROTOCOL MILESTONE",
    "DSSCAT": "",
    "DSSTDTC": "2013-02-21",
    "DSDY": 1
  },
  {
    "STUDYID": "CDISCPILOT01",
    "DOMAIN": "DS",
    "USUBJID": "01-704-002",
    "DSSEQ": 3,
    "DSTERM": "COMPLETED TREATMENT",
    "DSDECOD": "COMPLETED",
    "DSCAT": "DISPOSITION EVENT",
    "DSSCAT": "TREATMENT",
    "DSSTDTC": "2013-08-08",
    "DSDY": 169
  },
  {
    "STUDYID": "CDISCPILOT01",
    "DOMAIN": "DS",
    "USUBJID": "01-704-002",
    "DSSEQ": 4,
    "DSTERM": "COMPLETED STUDY",
    "DSDECOD": "COMPLETED",
    "DSCAT": "DISPOSITION EVENT",
    "DSSCAT": "STUDY",
    "DSSTDTC": "2013-08-22",
    "DSDY": 183
  },
  {
    "STUDYID": "CDISCPILOT01",
    "DOMAIN": "DS",
    "USUBJID": "01-704-003",
    "DSSEQ": 1,
    "DSTERM": "INFORMED CONSENT OBTAINED",
    "DSDECOD": "INFORMED CONSENT OBTAINED",
    "DSCAT": "PROTOCOL MILESTONE",
    "DSSCAT": "",
    "DSSTDTC": "2013-06-11"
  },
  {
    "STUDYID": "CDISCPILOT01",
    "DOMAIN": "DS",
    "USUBJID": "01-704-003",
    "DSSEQ": 2,
    "DSTERM": "RANDOMIZED",
    "DSDECOD": "RANDOMIZED",
    "DSCAT": "PROTOCOL MILESTONE",
    "DSSCAT": "",
    "DSSTDTC": "2013-06-22",
    "DSDY": 1
  },
  {
    "STUDYID": "CDISCPILOT01",
    "DOMAIN": "DS",
    "USUBJID": "01-704-003",
    "DSSEQ": 3,
    "DSTERM": "COMPLETED TREATMENT",
    "DSDECOD": "COMPLETED",
    "DSCAT": "DISPOSITION EVENT",
    "DSSCAT": "TREATMENT",
    "DSSTDTC": "2013-12-07",
    "DSDY": 169
  },
  {
    "STUDYID": "CDISCPILOT01",
    "DOMAIN": "DS",
    "USUBJID": "01-704-003",
    "DSSEQ": 4,
    "DSTERM": "COMPLETED STUDY",
    "DSDECOD": "COMPLETED",
    "DSCAT": "DISPOSITION EVENT",
    "DSSCAT": "STUDY",
    "DSSTDTC": "2013-12-21",
    "DSDY": 183
  },
  {
    "STUDYID": "CDISCPILOT01",
    "DOMAIN": "DS",
    "USUBJID": "01-704-004",
    "DSSEQ": 1,
    "DSTERM": "INFORMED CONSENT OBTAINED",
    "DSDECOD": "INFORMED CONSENT OBTAINED",
    "DSCAT": "PROTOCOL MILESTONE",
    "DSSCAT": "",
    "DSSTDTC": "2013-09-18"
  },
  {
    "STUDYID": "CDISCPILOT01",
    "DOMAIN": "DS",
    "USUBJID": "01-704-004",
    "DSSEQ": 2,
    "DSTERM": "RANDOMIZED",
    "DSDECOD": "RANDOMIZED",
    "DSCAT": "PROTOCOL MILESTONE",
    "DSSCAT": "",
    "DSSTDTC": "2013-09-28",
    "DSDY": 1
  },
  {
    "STUDYID": "CDISCPILOT01",
    "DOMAIN": "DS",
    "USUBJID": "01-704-004",
    "DSSEQ": 3,
    "DSTERM": "ADVERSE EVENT",
    "DSDECOD": "ADVERSE EVENT",
    "DSCAT": "DISPOSITION EVENT",
    "DSSCAT": "TREATMENT",
    "DSSTDTC": "2013-11-16",
    "DSDY": 50
  },
  {
    "STUDYID": "CDISCPILOT01",
    "DOMAIN": "DS",
    "USUBJID": "01-704-004",
    "DSSEQ": 4,
    "DSTERM": "ADVERSE EVENT",
    "DSDECOD": "ADVERSE EVENT",
    "DSCAT": "DISPOSITION EVENT",
    "DSSCAT": "STUDY",
    "DSSTDTC": "2013-11-16",
    "DSDY": 50
  },
  {
    "STUDYID": "CDISCPILOT01",
    "DOMAIN": "DS",
    "USUBJID": "01-704-005",
    "DSSEQ": 1,
    "DSTERM": "INFORMED CONSENT OBTAINED",
    "DSDECOD": "INFORMED CONSENT OBTAINED",
    "DSCAT": "PROTOCOL MILESTONE",
    "DSSCAT": "",
    "DSSTDTC": "2013-10-28"
  },
  {
    "STUDYID": "CDISCPILOT01",
    "DOMAIN": "DS",
    "USUBJID": "01-704-005",
    "DSSEQ": 2,
    "DSTERM": "RANDOMIZED",
    "DSDECOD": "RANDOMIZED",
    "DSCAT": "PROTOCOL MILESTONE",
    "DSSCAT": "",
    "DSSTDTC": "2013-11-08",
    "DSDY": 1
  },
  {
    "STUDYID": "CDISCPILOT01",
    "DOMAIN": "DS",
    "USUBJID": "01-704-005",
    "DSSEQ": 3,
    "DSTERM": "ADVERSE EVENT",
    "DSDECOD": "ADVERSE EVENT",
    "DSCAT": "DISPOSITION EVENT",
    "DSSCAT": "TREATMENT",
    "DSSTDTC": "2013-12-06",
    "DSDY": 29
  },
  {
    "STUDYID": "CDISCPILOT01",
    "DOMAIN": "DS",
    "USUBJID": "01-704-005",
    "DSSEQ": 4,
    "DSTERM": "ADVERSE EVENT",
    "DSDECOD": "ADVERSE EVENT",
    "DSCAT": "DISPOSITION EVENT",
    "DSSCAT": "STUDY",
    "DSSTDTC": "2013-12-17",
    "DSDY": 40
  },
  {
    "STUDYID": "CDISCPILOT01",
    "DOMAIN": "DS",
    "USUBJID": "01-704-006",
    "DSSEQ": 1,
    "DSTERM": "INFORMED CONSENT OBTAINED",
    "DSDECOD": "INFORMED CONSENT OBTAINED",
    "DSCAT": "PROTOCOL MILESTONE",
    "DSSCAT": "",
    "DSSTDTC": "2013-10-10"
  },
  {
    "STUDYID": "CDISCPILOT01",
    "DOMAIN": "DS",
    "USUBJID": "01-704-006",
    "DSSEQ": 2,
    "DSTERM": "RANDOMIZED",
    "DSDECOD": "RANDOMIZED",
    "DSCAT": "PROTOCOL MILESTONE",
    "DSSCAT": "",
    "DSSTDTC": "2013-10-28",
    "DSDY": 1
  },
  {
    "STUDYID": "CDISCPILOT01",
    "DOMAIN": "DS",
    "USUBJID": "01-704-006",
    "DSSEQ": 3,
    "DSTERM": "LACK OF EFFICACY",
    "DSDECOD": "LACK OF EFFICACY",
    "DSCAT": "DISPOSITION EVENT",
    "DSSCAT": "TREATMENT",
    "DSSTDTC": "2013-11-18",
    "DSDY": 22
  },
  {
    "STUDYID": "CDISCPILOT01",
    "DOMAIN": "DS",
    "USUBJID": "01-704-006",
    "DSSEQ": 4,
    "DSTERM": "LACK OF EFFICACY",
    "DSDECOD": "LACK OF EFFICACY",
    "DSCAT": "DISPOSITION EVENT",
    "DSSCAT": "STUDY",
    "DSSTDTC": "2013-11-20",
    "DSDY": 24
  },
  {
    "STUDYID": "CDISCPILOT01",
    "DOMAIN": "DS",
    "USUBJID": "01-704-007",
    "DSSEQ": 1,
    "DSTERM": "INFORMED CONSENT OBTAINED",
    "DSDECOD": "INFORMED CONSENT OBTAINED",
    "DSCAT": "PROTOCOL MILESTONE",
    "DSSCAT": "",
    "DSSTDTC": "2013-12-08"
  },
  {
    "STUDYID": "CDISCPILOT01",
    "DOMAIN": "DS",
    "USUBJID": "01-704-007",
    "DSSEQ": 2,
    "DSTERM": "RANDOMIZED",
    "DSDECOD": "RANDOMIZED",
    "DSCAT": "PROTOCOL MILESTONE",
    "DSSCAT": "",
    "DSSTDTC": "2013-12-16",
    "DSDY": 1
  },
  {
    "STUDYID": "CDISCPILOT01",
    "DOMAIN": "DS",
    "USUBJID": "01-704-007",
    "DSSEQ": 3,
    "DSTERM": "COMPLETED TREATMENT",
    "DSDECOD": "COMPLETED",
    "DSCAT": "DISPOSITION EVENT",
    "DSSCAT": "TREATMENT",
    "DSSTDTC": "2014-06-02",
    "DSDY": 169
  },
  {
    "STUDYID": "CDISCPILOT01",
    "DOMAIN": "DS",
    "USUBJID": "01-704-007",
    "DSSEQ": 4,
    "DSTERM": "COMPLETED STUDY",
    "DSDECOD": "COMPLETED",
    "DSCAT": "DISPOSITION EVENT",
    "DSSCAT": "STUDY",
    "DSSTDTC": "2014-06-16",
    "DSDY": 183
  },
  {
    "STUDYID": "CDISCPILOT01",
    "DOMAIN": "DS",
    "USUBJID": "01-704-008",
    "DSSEQ": 1,
    "DSTERM": "INFORMED CONSENT OBTAINED",
    "DSDECOD": "INFORMED CONSENT OBTAINED",
    "DSCAT": "PROTOCOL MILESTONE",
    "DSSCAT": "",
    "DSSTDTC": "2013-06-27"
  },
  {
    "STUDYID": "CDISCPILOT01",
    "DOMAIN": "DS",
    "USUBJID": "01-704-008",
    "DSSEQ": 2,
    "DSTERM": "RANDOMIZED",
    "DSDECOD": "RANDOMIZED",
    "DSCAT": "PROTOCOL MILESTONE",
    "DSSCAT": "",
    "DSSTDTC": "2013-07-04",
    "DSDY": 1
  },
  {
    "STUDYID": "CDISCPILOT01",
    "DOMAIN": "DS",
    "USUBJID": "01-704-008",
    "DSSEQ": 3,
    "DSTERM": "COMPLETED TREATMENT",
    "DSDECOD": "COMPLETED",
    "DSCAT": "DISPOSITION EVENT",
    "DSSCAT": "TREATMENT",
    "DSSTDTC": "2013-12-19",
    "DSDY": 169
  },
  {
    "STUDYID": "CDISCPILOT01",
    "DOMAIN": "DS",
    "USUBJID": "01-704-008",
    "DSSEQ": 4,
    "DSTERM": "COMPLETED STUDY",
    "DSDECOD": "COMPLETED",
    "DSCAT": "DISPOSITION EVENT",
    "DSSCAT": "STUDY",
    "DSSTDTC": "2014-01-02",
    "DSDY": 183
  },
  {
    "STUDYID": "CDISCPILOT01",
    "DOMAIN": "DS",
    "USUBJID": "01-704-009",
    "DSSEQ": 1,
    "DSTERM": "INFORMED CONSENT OBTAINED",
    "DSDECOD": "INFORMED CONSENT OBTAINED",
    "DSCAT": "PROTOCOL MILESTONE",
    "DSSCAT": "",
    "DSSTDTC": "2013-06-30"
  },
  {
    "STUDYID": "CDISCPILOT01",
    "DOMAIN": "DS",
    "USUBJID": "01-704-009",
    "DSSEQ": 2,
    "DSTERM": "RANDOMIZED",
    "DSDECOD": "RANDOMIZED",
    "DSCAT": "PROTOCOL MILESTONE",
    "DSSCAT": "",
    "DSSTDTC": "2013-07-10",
    "DSDY": 1
  },
  {
    "STUDYID": "CDISCPILOT01",
    "DOMAIN": "DS",
    "USUBJID": "01-704-009",
    "DSSEQ": 3,
    "DSTERM": "PROTOCOL CRITERIA NOT MET",
    "DSDECOD": "PROTOCOL CRITERIA NOT MET",
    "DSCAT": "DISPOSITION EVENT",
    "DSSCAT": "TREATMENT",
    "DSSTDTC": "2013-12-25",
    "DSDY": 169
  },
  {
    "STUDYID": "CDISCPILOT01",
    "DOMAIN": "DS",
    "USUBJID": "01-704-009",
    "DSSEQ": 4,
    "DSTERM": "PROTOCOL CRITERIA NOT MET",
    "DSDECOD": "PROTOCOL CRITERIA NOT MET",
    "DSCAT": "DISPOSITION EVENT",
    "DSSCAT": "STUDY",
    "DSSTDTC": "2013-12-30",
    "DSDY": 174
  },
  {
    "STUDYID": "CDISCPILOT01",
    "DOMAIN": "DS",
    "USUBJID": "01-704-010",
    "DSSEQ": 1,
    "DSTERM": "INFORMED CONSENT OBTAINED",
    "DSDECOD": "INFORMED CONSENT OBTAINED",
    "DSCAT": "PROTOCOL MILESTONE",
    "DSSCAT": "",
    "DSSTDTC": "2013-09-07"
  },
  {
    "STUDYID": "CDISCPILOT01",
    "DOMAIN": "DS",
    "USUBJID": "01-704-010",
    "DSSEQ": 2,
    "DSTERM": "RANDOMIZED",
    "DSDECOD": "RANDOMIZED",
    "DSCAT": "PROTOCOL MILESTONE",
    "DSSCAT": "",
    "DSSTDTC": "2013-09-21",
    "DSDY": 1
  },
  {
    "STUDYID": "CDISCPILOT01",
    "DOMAIN": "DS",
    "USUBJID": "01-704-010",
    "DSSEQ": 3,
    "DSTERM": "ADVERSE EVENT",
    "DSDECOD": "ADVERSE EVENT",
    "DSCAT": "DISPOSITION EVENT",
    "DSSCAT": "TREATMENT",
    "DSSTDTC": "2014-02-01",
    "DSDY": 134
  },
  {
    "STUDYID": "CDISCPILOT01",
    "DOMAIN": "DS",
    "USUBJID": "01-704-010",
    "DSSEQ": 4,
    "DSTERM": "ADVERSE EVENT",
    "DSDECOD": "ADVERSE EVENT",
    "DSCAT": "DISPOSITION EVENT",
    "DSSCAT": "STUDY",
    "DSSTDTC": "2014-02-15",
    "DSDY": 148
  },
  {
    "STUDYID": "CDISCPILOT01",
    "DOMAIN": "DS",
    "USUBJID": "01-704-011",
    "DSSEQ": 1,
    "DSTERM": "INFORMED CONSENT OBTAINED",
    "DSDECOD": "INFORMED CONSENT OBTAINED",
    "DSCAT": "PROTOCOL MILESTONE",
    "DSSCAT": "",
    "DSSTDTC": "2013-10-18"
  },
  {
    "STUDYID": "CDISCPILOT01",
    "DOMAIN": "DS",
    "USUBJID": "01-704-011",
    "DSSEQ": 2,
    "DSTERM": "RANDOMIZED",
    "DSDECOD": "RANDOMIZED",
    "DSCAT": "PROTOCOL MILESTONE",
    "DSSCAT": "",
    "DSSTDTC": "2013-11-08",
    "DSDY": 1
  },
  {
    "STUDYID": "CDISCPILOT01",
    "DOMAIN": "DS",
    "USUBJID": "01-704-011",
    "DSSEQ": 3,
    "DSTERM": "COMPLETED TREATMENT",
    "DSDECOD": "COMPLETED",
    "DSCAT": "DISPOSITION EVENT",
    "DSSCAT": "TREATMENT",
    "DSSTDTC": "2014-04-25",
    "DSDY": 169
  },
  {
    "STUDYID": "CDISCPILOT01",
    "DOMAIN": "DS",
    "USUBJID": "01-704-011",
    "DSSEQ": 4,
    "DSTERM": "LOST TO FOLLOW-UP",
    "DSDECOD": "LOST TO FOLLOW-UP",
    "DSCAT": "DISPOSITION EVENT",
    "DSSCAT": "STUDY",
    "DSSTDTC": "2014-05-05",
    "DSDY": 179
  },
  {
    "STUDYID": "CDISCPILOT01",
    "DOMAIN": "DS",
    "USUBJID": "01-704-012",
    "DSSEQ": 1,
    "DSTERM": "INFORMED CONSENT OBTAINED",
    "DSDECOD": "INFORMED CONSENT OBTAINED",
    "DSCAT": "PROTOCOL MILESTONE",
    "DSSCAT": "",
    "DSSTDTC": "2013-11-05"
  },
  {
    "STUDYID": "CDISCPILOT01",
    "DOMAIN": "DS",
    "USUBJID": "01-704-012",
    "DSSEQ": 2,
    "DSTERM": "RANDOMIZED",
    "DSDECOD": "RANDOMIZED",
    "DSCAT": "PROTOCOL MILESTONE",
    "DSSCAT": "",
    "DSSTDTC": "2013-11-17",
    "DSDY": 1
  },
  {
    "STUDYID": "CDISCPILOT01",
    "DOMAIN": "DS",
    "USUBJID": "01-704-012",
    "DSSEQ": 3,
    "DSTERM": "ADVERSE EVENT",
    "DSDECOD": "ADVERSE EVENT",
    "DSCAT": "DISPOSITION EVENT",
    "DSSCAT": "TREATMENT",
    "DSSTDTC": "2014-01-12",
    "DSDY": 57
  },
  {
    "STUDYID": "CDISCPILOT01",
    "DOMAIN": "DS",
    "USUBJID": "01-704-012",
    "DSSEQ": 4,
    "DSTERM": "ADVERSE EVENT",
    "DSDECOD": "ADVERSE EVENT",
    "DSCAT": "DISPOSITION EVENT",
    "DSSCAT": "STUDY",
    "DSSTDTC": "2014-01-24",
    "DSDY": 69
  },
  {
    "STUDYID": "CDISCPILOT01",
    "DOMAIN": "DS",
    "USUBJID": "01-704-013",
    "DSSEQ": 1,
    "DSTERM": "INFORMED CONSENT OBTAINED",
    "DSDECOD": "INFORMED CONSENT OBTAINED",
    "DSCAT": "PROTOCOL MILESTONE",
    "DSSCAT": "",
    "DSSTDTC": "2013-04-22"
  },
  {
    "STUDYID": "CDISCPILOT01",
    "DOMAIN": "DS",
    "USUBJID": "01-704-013",
    "DSSEQ": 2,
    "DSTERM": "RANDOMIZED",
    "DSDECOD": "RANDOMIZED",
    "DSCAT": "PROTOCOL MILESTONE",
    "DSSCAT": "",
    "DSSTDTC": "2013-05-05",
    "DSDY": 1
  },
  {
    "STUDYID": "CDISCPILOT01",
    "DOMAIN": "DS",
    "USUBJID": "01-704-013",
    "DSSEQ": 3,
    "DSTERM": "COMPLETED TREATMENT",
    "DSDECOD": "COMPLETED",
    "DSCAT": "DISPOSITION EVENT",
    "DSSCAT": "TREATMENT",
    "DSSTDTC": "2013-10-20",
    "DSDY": 169
  },
  {
    "STUDYID": "CDISCPILOT01",
    "DOMAIN": "DS",
    "USUBJID": "01-704-013",
    "DSSEQ": 4,
    "DSTERM": "COMPLETED STUDY",
    "DSDECOD": "COMPLETED",
    "DSCAT": "DISPOSITION EVENT",
    "DSSCAT": "STUDY",
    "DSSTDTC": "2013-11-03",
    "DSDY": 183
  },
  {
    "STUDYID": "CDISCPILOT01",
    "DOMAIN": "DS",
    "USUBJID": "01-704-014",
    "DSSEQ": 1,
    "DSTERM": "INFORMED CONSENT OBTAINED",
    "DSDECOD": "INFORMED CONSENT OBTAINED",
    "DSCAT": "PROTOCOL MILESTONE",
    "DSSCAT": "",
    "DSSTDTC": "2013-08-16"
  },
  {
    "STUDYID": "CDISCPILOT01",
    "DOMAIN": "DS",
    "USUBJID": "01-704-014",
    "DSSEQ": 2,
    "DSTERM": "RANDOMIZED",
    "DSDECOD": "RANDOMIZED",
    "DSCAT": "PROTOCOL MILESTONE",
    "DSSCAT": "",
    "DSSTDTC": "2013-09-04",
    "DSDY": 1
  },
  {
    "STUDYID": "CDISCPILOT01",
    "DOMAIN": "DS",
    "USUBJID": "01-704-014",
    "DSSEQ": 3,
    "DSTERM": "ADVERSE EVENT",
    "DSDECOD": "ADVERSE EVENT",
    "DSCAT": "DISPOSITION EVENT",
    "DSSCAT": "TREATMENT",
    "DSSTDTC": "2014-01-01",
    "DSDY": 120
  },
  {
    "STUDYID": "CDISCPILOT01",
    "DOMAIN": "DS",
    "USUBJID": "01-704-014",
    "DSSEQ": 4,
    "DSTERM": "ADVERSE EVENT",
    "DSDECOD": "ADVERSE EVENT",
    "DSCAT": "DISPOSITION EVENT",
    "DSSCAT": "STUDY",
    "DSSTDTC": "2014-01-07",
    "DSDY": 126
  },
  {
    "STUDYID": "CDISCPILOT01",
    "DOMAIN": "DS",
    "USUBJID": "01-704-015",
    "DSSEQ": 1,
    "DSTERM": "INFORMED CONSENT OBTAINED",
    "DSDECOD": "INFORMED CONSENT OBTAINED",
    "DSCAT": "PROTOCOL MILESTONE",
    "DSSCAT": "",
    "DSSTDTC": "2013-04-25"
  },
  {
    "STUDYID": "CDISCPILOT01",
    "DOMAIN": "DS",
    "USUBJID": "01-704-015",
    "DSSEQ": 2,
    "DSTERM": "RANDOMIZED",
    "DSDECOD": "RANDOMIZED",
    "DSCAT": "PROTOCOL MILESTONE",
    "DSSCAT": "",
    "DSSTDTC": "2013-05-08",
    "DSDY": 1
  },
  {
    "STUDYID": "CDISCPILOT01",
    "DOMAIN": "DS",
    "USUBJID": "01-704-015",
    "DSSEQ": 3,
    "DSTERM": "ADVERSE EVENT",
    "DSDECOD": "ADVERSE EVENT",
    "DSCAT": "DISPOSITION EVENT",
    "DSSCAT": "TREATMENT",
    "DSSTDTC": "2013-10-02",
    "DSDY": 148
  },
  {
    "STUDYID": "CDISCPILOT01",
    "DOMAIN": "DS",
    "USUBJID": "01-704-015",
    "DSSEQ": 4,
    "DSTERM": "ADVERSE EVENT",
    "DSDECOD": "ADVERSE EVENT",
    "DSCAT": "DISPOSITION EVENT",
    "DSSCAT": "STUDY",
    "DSSTDTC": "2013-10-07",
    "DSDY": 153
  },
  {
    "STUDYID": "CDISCPILOT01",
    "DOMAIN": "DS",
    "USUBJID": "01-704-016",
    "DSSEQ": 1,
    "DSTERM": "INFORMED CONSENT OBTAINED",
    "DSDECOD": "INFORMED CONSENT OBTAINED",
    "DSCAT": "PROTOCOL MILESTONE",
    "DSSCAT": "",
    "DSSTDTC": "2013-08-20"
  },
  {
    "STUDYID": "CDISCPILOT01",
    "DOMAIN": "DS",
    "USUBJID": "01-704-016",
    "DSSEQ": 2,
    "DSTERM": "RANDOMIZED",
    "DSDECOD": "RANDOMIZED",
    "DSCAT": "PROTOCOL MILESTONE",
    "DSSCAT": "",
    "DSSTDTC": "2013-09-02",
    "DSDY": 1
  },
  {
    "STUDYID": "CDISCPILOT01",
    "DOMAIN": "DS",
    "USUBJID": "01-704-016",
    "DSSEQ": 3,
    "DSTERM": "COMPLETED TREATMENT",
    "DSDECOD": "COMPLETED",
    "DSCAT": "DISPOSITION EVENT",
    "DSSCAT": "TREATMENT",
    "DSSTDTC": "2014-02-17",
    "DSDY": 169
  },
  {
    "STUDYID": "CDISCPILOT01",
    "DOMAIN": "DS",
    "USUBJID": "01-704-016",
    "DSSEQ": 4,
    "DSTERM": "COMPLETED STUDY",
    "DSDECOD": "COMPLETED",
    "DSCAT": "DISPOSITION EVENT",
    "DSSCAT": "STUDY",
    "DSSTDTC": "2014-03-03",
    "DSDY": 183
  },
  {
    "STUDYID": "CDISCPILOT01",
    "DOMAIN": "DS",
    "USUBJID": "01-704-017",
    "DSSEQ": 1,
    "DSTERM": "INFORMED CONSENT OBTAINED",
    "DSDECOD": "INFORMED CONSENT OBTAINED",
    "DSCAT": "PROTOCOL MILESTONE",
    "DSSCAT": "",
    "DSSTDTC": "2012-12-25"
  },
  {
    "STUDYID": "CDISCPILOT01",
    "DOMAIN": "DS",
    "USUBJID": "01-704-017",
    "DSSEQ": 2,
    "DSTERM": "RANDOMIZED",
    "DSDECOD": "RANDOMIZED",
    "DSCAT": "PROTOCOL MILESTONE",
    "DSSCAT": "",
    "DSSTDTC": "2013-01-11",
    "DSDY": 1
  },
  {
    "STUDYID": "CDISCPILOT01",
    "DOMAIN": "DS",
    "USUBJID": "01-704-017",
    "DSSEQ": 3,
    "DSTERM": "COMPLETED TREATMENT",
    "DSDECOD": "COMPLETED",
    "DSCAT": "DISPOSITION EVENT",
    "DSSCAT": "TREATMENT",
    "DSSTDTC": "2013-06-28",
    "DSDY": 169
  },
  {
    "STUDYID": "CDISCPILOT01",
    "DOMAIN": "DS",
    "USUBJID": "01-704-017",
    "DSSEQ": 4,
    "DSTERM": "COMPLETED STUDY",
    "DSDECOD": "COMPLETED",
    "DSCAT": "DISPOSITION EVENT",
    "DSSCAT": "STUDY",
    "DSSTDTC": "2013-07-12",
    "DSDY": 183
  },
  {
    "STUDYID": "CDISCPILOT01",
    "DOMAIN": "DS",
    "USUBJID": "01-704-018",
    "DSSEQ": 1,
    "DSTERM": "INFORMED CONSENT OBTAINED",
    "DSDECOD": "INFORMED CONSENT OBTAINED",
    "DSCAT": "PROTOCOL MILESTONE",
    "DSSCAT": "",
    "DSSTDTC": "2013-06-03"
  },
  {
    "STUDYID": "CDISCPILOT01",
    "DOMAIN": "DS",
    "USUBJID": "01-704-018",
    "DSSEQ": 2,
    "DSTERM": "RANDOMIZED",
    "DSDECOD": "RANDOMIZED",
    "DSCAT": "PROTOCOL MILESTONE",
    "DSSCAT": "",
    "DSSTDTC": "2013-06-21",
    "DSDY": 1
  },
  {
    "STUDYID": "CDISCPILOT01",
    "DOMAIN": "DS",
    "USUBJID": "01-704-018",
    "DSSEQ": 3,
    "DSTERM": "PHYSICIAN DECISION",
    "DSDECOD": "PHYSICIAN DECISION",
    "DSCAT": "DISPOSITION EVENT",
    "DSSCAT": "TREATMENT",
    "DSSTDTC": "2013-11-29",
    "DSDY": 162
  },
  {
    "STUDYID": "CDISCPILOT01",
    "DOMAIN": "DS",
    "USUBJID": "01-704-018",
    "DSSEQ": 4,
    "DSTERM": "PHYSICIAN DECISION",
    "DSDECOD": "PHYSICIAN DECISION",
    "DSCAT": "DISPOSITION EVENT",
    "DSSCAT": "STUDY",
    "DSSTDTC": "2013-11-30",
    "DSDY": 163
  },
  {
    "STUDYID": "CDISCPILOT01",
    "DOMAIN": "DS",
    "USUBJID": "01-704-019",
    "DSSEQ": 1,
    "DSTERM": "INFORMED CONSENT OBTAINED",
    "DSDECOD": "INFORMED CONSENT OBTAINED",
    "DSCAT": "PROTOCOL MILESTONE",
    "DSSCAT": "",
    "DSSTDTC": "2013-07-27"
  },
  {
    "STUDYID": "CDISCPILOT01",
    "DOMAIN": "DS",
    "USUBJID": "01-704-019",
    "DSSEQ": 2,
    "DSTERM": "RANDOMIZED",
    "DSDECOD": "RANDOMIZED",
    "DSCAT": "PROTOCOL MILESTONE",
    "DSSCAT": "",
    "DSSTDTC": "2013-08-06",
    "DSDY": 1
  },
  {
    "STUDYID": "CDISCPILOT01",
    "DOMAIN": "DS",
    "USUBJID": "01-704-019",
    "DSSEQ": 3,
    "DSTERM": "COMPLETED TREATMENT",
    "DSDECOD": "COMPLETED",
    "DSCAT": "DISPOSITION EVENT",
    "DSSCAT": "TREATMENT",
    "DSSTDTC": "2014-01-21",
    "DSDY": 169
  },
  {
    "STUDYID": "CDISCPILOT01",
    "DOMAIN": "DS",
    "USUBJID": "01-704-019",
    "DSSEQ": 4,
    "DSTERM": "COMPLETED STUDY",
    "DSDECOD": "COMPLETED",
    "DSCAT": "DISPOSITION EVENT",
    "DSSCAT": "STUDY",
    "DSSTDTC": "2014-02-04",
    "DSDY": 183
  },
  {
    "STUDYID": "CDISCPILOT01",
    "DOMAIN": "DS",
    "USUBJID": "01-704-020",
    "DSSEQ": 1,
    "DSTERM": "INFORMED CONSENT OBTAINED",
    "DSDECOD": "INFORMED CONSENT OBTAINED",
    "DSCAT": "PROTOCOL MILESTONE",
    "DSSCAT": "",
    "DSSTDTC": "2013-02-08"
  },
  {
    "STUDYID": "CDISCPILOT01",
    "DOMAIN": "DS",
    "USUBJID": "01-704-020",
    "DSSEQ": 2,
    "DSTERM": "RANDOMIZED",
    "DSDECOD": "RANDOMIZED",
    "DSCAT": "PROTOCOL MILESTONE",
    "DSSCAT": "",
    "DSSTDTC": "2013-02-28",
    "DSDY": 1
  },
  {
    "STUDYID": "CDISCPILOT01",
    "DOMAIN": "DS",
    "USUBJID": "01-704-020",
    "DSSEQ": 3,
    "DSTERM": "WITHDREW CONSENT",
    "DSDECOD": "WITHDREW CONSENT",
    "DSCAT": "DISPOSITION EVENT",
    "DSSCAT": "TREATMENT",
    "DSSTDTC": "2013-03-28",
    "DSDY": 29
  },
  {
    "STUDYID": "CDISCPILOT01",
    "DOMAIN": "DS",
    "USUBJID": "01-704-020",
    "DSSEQ": 4,
    "DSTERM": "WITHDREW CONSENT",
    "DSDECOD": "WITHDREW CONSENT",
    "DSCAT": "DISPOSITION EVENT",
    "DSSCAT": "STUDY",
    "DSSTDTC": "2013-04-03",
    "DSDY": 35
  },
  {
    "STUDYID": "CDISCPILOT01",
    "DOMAIN": "DS",
    "USUBJID": "01-704-021",
    "DSSEQ": 1,
    "DSTERM": "INFORMED CONSENT OBTAINED",
    "DSDECOD": "INFORMED CONSENT OBTAINED",
    "DSCAT": "PROTOCOL MILESTONE",
    "DSSCAT": "",
    "DSSTDTC": "2013-05-16"
  },
  {
    "STUDYID": "CDISCPILOT01",
    "DOMAIN": "DS",
    "USUBJID": "01-704-021",
    "DSSEQ": 2,
    "DSTERM": "RANDOMIZED",
    "DSDECOD": "RANDOMIZED",
    "DSCAT": "PROTOCOL MILESTONE",
    "DSSCAT": "",
    "DSSTDTC": "2013-05-29",
    "DSDY": 1
  },
  {
    "STUDYID": "CDISCPILOT01",
    "DOMAIN": "DS",
    "USUBJID": "01-704-021",
    "DSSEQ": 3,
    "DSTERM": "COMPLETED TREATMENT",
    "DSDECOD": "COMPLETED",
    "DSCAT": "DISPOSITION EVENT",
    "DSSCAT": "TREATMENT",
    "DSSTDTC": "2013-11-13",
    "DSDY": 169
  },
  {
    "STUDYID": "CDISCPILOT01",
    "DOMAIN": "DS",
    "USUBJID": "01-704-021",
    "DSSEQ": 4,
    "DSTERM": "COMPLETED STUDY",
    "DSDECOD": "COMPLETED",
    "DSCAT": "DISPOSITION EVENT",
    "DSSCAT": "STUDY",
    "DSSTDTC": "2013-11-27",
    "DSDY": 183
  },
  {
    "STUDYID": "CDISCPILOT01",
    "DOMAIN": "DS",
    "USUBJID": "01-704-022",
    "DSSEQ": 1,
    "DSTERM": "INFORMED CONSENT OBTAINED",
    "DSDECOD": "INFORMED CONSENT OBTAINED",
    "DSCAT": "PROTOCOL MILESTONE",
    "DSSCAT": "",
    "DSSTDTC": "2013-01-15"
  },
  {
    "STUDYID": "CDISCPILOT01",
    "DOMAIN": "DS",
    "USUBJID": "01-704-022",
    "DSSEQ": 2,
    "DSTERM": "RANDOMIZED",
    "DSDECOD": "RANDOMIZED",
    "DSCAT": "PROTOCOL MILESTONE",
    "DSSCAT": "",
    "DSSTDTC": "2013-01-28",
    "DSDY": 1
  },
  {
    "STUDYID": "CDISCPILOT01",
    "DOMAIN": "DS",
    "USUBJID": "01-704-022",
    "DSSEQ": 3,
    "DSTERM": "ADVERSE EVENT",
    "DSDECOD": "ADVERSE EVENT",
    "DSCAT": "DISPOSITION EVENT",
    "DSSCAT": "TREATMENT",
    "DSSTDTC": "2013-04-08",
    "DSDY": 71
  },
  {
    "STUDYID": "CDISCPILOT01",
    "DOMAIN": "DS",
    "USUBJID": "01-704-022",
    "DSSEQ": 4,
    "DSTERM": "ADVERSE EVENT",
    "DSDECOD": "ADVERSE EVENT",
    "DSCAT": "DISPOSITION EVENT",
    "DSSCAT": "STUDY",
    "DSSTDTC": "2013-04-16",
    "DSDY": 79
  },
  {
    "STUDYID": "CDISCPILOT01",
    "DOMAIN": "DS",
    "USUBJID": "01-704-023",
    "DSSEQ": 1,
    "DSTERM": "INFORMED CONSENT OBTAINED",
    "DSDECOD": "INFORMED CONSENT OBTAINED",
    "DSCAT": "PROTOCOL MILESTONE",
    "DSSCAT": "",
    "DSSTDTC": "2013-08-25"
  },
  {
    "STUDYID": "CDISCPILOT01",
    "DOMAIN": "DS",
    "USUBJID": "01-704-023",
    "DSSEQ": 2,
    "DSTERM": "RANDOMIZED",
    "DSDECOD": "RANDOMIZED",
    "DSCAT": "PROTOCOL MILESTONE",
    "DSSCAT": "",
    "DSSTDTC": "2013-09-06",
    "DSDY": 1
  },
  {
    "STUDYID": "CDISCPILOT01",
    "DOMAIN": "DS",
    "USUBJID": "01-704-023",
    "DSSEQ": 3,
    "DSTERM": "ADVERSE EVENT",
    "DSDECOD": "ADVERSE EVENT",
    "DSCAT": "DISPOSITION EVENT",
    "DSSCAT": "TREATMENT",
    "DSSTDTC": "2014-01-10",
    "DSDY": 127
  },
  {
    "STUDYID": "CDISCPILOT01",
    "DOMAIN": "DS",
    "USUBJID": "01-704-023",
    "DSSEQ": 4,
    "DSTERM": "ADVERSE EVENT",
    "DSDECOD": "ADVERSE EVENT",
    "DSCAT": "DISPOSITION EVENT",
    "DSSCAT": "STUDY",
    "DSSTDTC": "2014-01-14",
    "DSDY": 131
  },
  {
    "STUDYID": "CDISCPILOT01",
    "DOMAIN": "DS",
    "USUBJID": "01-704-024",
    "DSSEQ": 1,
    "DSTERM": "INFORMED CONSENT OBTAINED",
    "DSDECOD": "INFORMED CONSENT OBTAINED",
    "DSCAT": "PROTOCOL MILESTONE",
    "DSSCAT": "",
    "DSSTDTC": "2013-08-03"
  },
  {
    "STUDYID": "CDISCPILOT01",
    "DOMAIN": "DS",
    "USUBJID": "01-704-024",
    "DSSEQ": 2,
    "DSTERM": "RANDOMIZED",
    "DSDECOD": "RANDOMIZED",
    "DSCAT": "PROTOCOL MILESTONE",
    "DSSCAT": "",
    "DSSTDTC": "2013-08-17",
    "DSDY": 1
  },
  {
    "STUDYID": "CDISCPILOT01",
    "DOMAIN": "DS",
    "USUBJID": "01-704-024",
    "DSSEQ": 3,
    "DSTERM": "COMPLETED TREATMENT",
    "DSDECOD": "COMPLETED",
    "DSCAT": "DISPOSITION EVENT",
    "DSSCAT": "TREATMENT",
    "DSSTDTC": "2014-02-01",
    "DSDY": 169
  },
  {
    "STUDYID": "CDISCPILOT01",
    "DOMAIN": "DS",
    "USUBJID": "01-704-024",
    "DSSEQ": 4,
    "DSTERM": "COMPLETED STUDY",
    "DSDECOD": "COMPLETED",
    "DSCAT": "DISPOSITION EVENT",
    "DSSCAT": "STUDY",
    "DSSTDTC": "2014-02-15",
    "DSDY": 183
  },
  {
    "STUDYID": "CDISCPILOT01",
    "DOMAIN": "DS",
    "USUBJID": "01-704-025",
    "DSSEQ": 1,
    "DSTERM": "INFORMED CONSENT OBTAINED",
    "DSDECOD": "INFORMED CONSENT OBTAINED",
    "DSCAT": "PROTOCOL MILESTONE",
    "DSSCAT": "",
    "DSSTDTC": "2013-03-26"
  },
  {
    "STUDYID": "CDISCPILOT01",
    "DOMAIN": "DS",
    "USUBJID": "01-704-025",
    "DSSEQ": 2,
    "DSTERM": "RANDOMIZED",
    "DSDECOD": "RANDOMIZED",
    "DSCAT": "PROTOCOL MILESTONE",
    "DSSCAT": "",
    "DSSTDTC": "2013-04-04",
    "DSDY": 1
  },
  {
    "STUDYID": "CDISCPILOT01",
    "DOMAIN": "DS",
    "USUBJID": "01-704-025",
    "DSSEQ": 3,
    "DSTERM": "COMPLETED TREATMENT",
    "DSDECOD": "COMPLETED",
    "DSCAT": "DISPOSITION EVENT",
    "DSSCAT": "TREATMENT",
    "DSSTDTC": "2013-09-19",
    "DSDY": 169
  },
  {
    "STUDYID": "CDISCPILOT01",
    "DOMAIN": "DS",
    "USUBJID": "01-704-025",
    "DSSEQ": 4,
    "DSTERM": "COMPLETED STUDY",
    "DSDECOD": "COMPLETED",
    "DSCAT": "DISPOSITION EVENT",
    "DSSCAT": "STUDY",
    "DSSTDTC": "2013-10-03",
    "DSDY": 183
  },
  {
    "STUDYID": "CDISCPILOT01",
    "DOMAIN": "DS",
    "USUBJID": "01-705-001",
    "DSSEQ": 1,
    "DSTERM": "INFORMED CONSENT OBTAINED",
    "DSDECOD": "INFORMED CONSENT OBTAINED",
    "DSCAT": "PROTOCOL MILESTONE",
    "DSSCAT": "",
    "DSSTDTC": "2013-07-21"
  },
  {
    "STUDYID": "CDISCPILOT01",
    "DOMAIN": "DS",
    "USUBJID": "01-705-001",
    "DSSEQ": 2,
    "DSTERM": "RANDOMIZED",
    "DSDECOD": "RANDOMIZED",
    "DSCAT": "PROTOCOL MILESTONE",
    "DSSCAT": "",
    "DSSTDTC": "2013-08-02",
    "DSDY": 1
  },
  {
    "STUDYID": "CDISCPILOT01",
    "DOMAIN": "DS",
    "USUBJID": "01-705-001",
    "DSSEQ": 3,
    "DSTERM": "PROTOCOL VIOLATION",
    "DSDECOD": "PROTOCOL VIOLATION",
    "DSCAT": "DISPOSITION EVENT",
    "DSSCAT": "TREATMENT",
    "DSSTDTC": "2013-11-15",
    "DSDY": 106
  },
  {
    "STUDYID": "CDISCPILOT01",
    "DOMAIN": "DS",
    "USUBJID": "01-705-001",
    "DSSEQ": 4,
    "DSTERM": "PROTOCOL VIOLATION",
    "DSDECOD": "PROTOCOL VIOLATION",
    "DSCAT": "DISPOSITION EVENT",
    "DSSCAT": "STUDY",
    "DSSTDTC": "2013-11-23",
    "DSDY": 114
  },
  {
    "STUDYID": "CDISCPILOT01",
    "DOMAIN": "DS",
    "USUBJID": "01-705-002",
    "DSSEQ": 1,
    "DSTERM": "INFORMED CONSENT OBTAINED",
    "DSDECOD": "INFORMED CONSENT OBTAINED",
    "DSCAT": "PROTOCOL MILESTONE",
    "DSSCAT": "",
    "DSSTDTC": "2013-08-02"
  },
  {
    "STUDYID": "CDISCPILOT01",
    "DOMAIN": "DS",
    "USUBJID": "01-705-002",
    "DSSEQ": 2,
    "DSTERM": "RANDOMIZED",
    "DSDECOD": "RANDOMIZED",
    "DSCAT": "PROTOCOL MILESTONE",
    "DSSCAT": "",
    "DSSTDTC": "2013-08-14",
    "DSDY": 1
  },
  {
    "STUDYID": "CDISCPILOT01",
    "DOMAIN": "DS",
    "USUBJID": "01-705-002",
    "DSSEQ": 3,
    "DSTERM": "WITHDREW CONSENT",
    "DSDECOD": "WITHDREW CONSENT",
    "DSCAT": "DISPOSITION EVENT",
    "DSSCAT": "TREATMENT",
    "DSSTDTC": "2013-09-25",
    "DSDY": 43
  },
  {
    "STUDYID": "CDISCPILOT01",
    "DOMAIN": "DS",
    "USUBJID": "01-705-002",
    "DSSEQ": 4,
    "DSTERM": "WITHDREW CONSENT",
    "DSDECOD": "WITHDREW CONSENT",
    "DSCAT": "DISPOSITION EVENT",
    "DSSCAT": "STUDY",
    "DSSTDTC": "2013-09-30",
    "DSDY": 48
  },
  {
    "STUDYID": "CDISCPILOT01",
    "DOMAIN": "DS",
    "USUBJID": "01-705-003",
    "DSSEQ": 1,
    "DSTERM": "INFORMED CONSENT OBTAINED",
    "DSDECOD": "INFORMED CONSENT OBTAINED",
    "DSCAT": "PROTOCOL MILESTONE",
    "DSSCAT": "",
    "DSSTDTC": "2013-12-13"
  },
  {
    "STUDYID": "CDISCPILOT01",
    "DOMAIN": "DS",
    "USUBJID": "01-705-003",
    "DSSEQ": 2,
    "DSTERM": "RANDOMIZED",
    "DSDECOD": "RANDOMIZED",
    "DSCAT": "PROTOCOL MILESTONE",
    "DSSCAT": "",
    "DSSTDTC": "2013-12-28",
    "DSDY": 1
  },
  {
    "STUDYID": "CDISCPILOT01",
    "DOMAIN": "DS",
    "USUBJID": "01-705-003",
    "DSSEQ": 3,
    "DSTERM": "COMPLETED TREATMENT",
    "DSDECOD": "COMPLETED",
    "DSCAT": "DISPOSITION EVENT",
    "DSSCAT": "TREATMENT",
    "DSSTDTC": "2014-06-14",
    "DSDY": 169
  },
  {
    "STUDYID": "CDISCPILOT01",
    "DOMAIN": "DS",
    "USUBJID": "01-705-003",
    "DSSEQ": 4,
    "DSTERM": "COMPLETED STUDY",
    "DSDECOD": "COMPLETED",
    "DSCAT": "DISPOSITION EVENT",
    "DSSCAT": "STUDY",
    "DSSTDTC": "2014-06-28",
    "DSDY": 183
  },
  {
    "STUDYID": "CDISCPILOT01",
    "DOMAIN": "DS",
    "USUBJID": "01-705-004",
    "DSSEQ": 1,
    "DSTERM": "INFORMED CONSENT OBTAINED",
    "DSDECOD": "INFORMED CONSENT OBTAINED",
    "DSCAT": "PROTOCOL MILESTONE",
    "DSSCAT": "",
    "DSSTDTC": "2013-08-30"
  },
  {
    "STUDYID": "CDISCPILOT01",
    "DOMAIN": "DS",
    "USUBJID": "01-705-004",
    "DSSEQ": 2,
    "DSTERM": "RANDOMIZED",
    "DSDECOD": "RANDOMIZED",
    "DSCAT": "PROTOCOL MILESTONE",
    "DSSCAT": "",
    "DSSTDTC": "2013-09-08",
    "DSDY": 1
  },
  {
    "STUDYID": "CDISCPILOT01",
    "DOMAIN": "DS",
    "USUBJID": "01-705-004",
    "DSSEQ": 3,
    "DSTERM": "COMPLETED TREATMENT",
    "DSDECOD": "COMPLETED",
    "DSCAT": "DISPOSITION EVENT",
    "DSSCAT": "TREATMENT",
    "DSSTDTC": "2014-02-23",
    "DSDY": 169
  },
  {
    "STUDYID": "CDISCPILOT01",
    "DOMAIN": "DS",
    "USUBJID": "01-705-004",
    "DSSEQ": 4,
    "DSTERM": "COMPLETED STUDY",
    "DSDECOD": "COMPLETED",
    "DSCAT": "DISPOSITION EVENT",
    "DSSCAT": "STUDY",
    "DSSTDTC": "2014-03-09",
    "DSDY": 183
  },
  {
    "STUDYID": "CDISCPILOT01",
    "DOMAIN": "DS",
    "USUBJID": "01-705-005",
    "DSSEQ": 1,
    "DSTERM": "INFORMED CONSENT OBTAINED",
    "DSDECOD": "INFORMED CONSENT OBTAINED",
    "DSCAT": "PROTOCOL MILESTONE",
    "DSSCAT": "",
    "DSSTDTC": "2013-05-11"
  },
  {
    "STUDYID": "CDISCPILOT01",
    "DOMAIN": "DS",
    "USUBJID": "01-705-005",
    "DSSEQ": 2,
    "DSTERM": "RANDOMIZED",
    "DSDECOD": "RANDOMIZED",
    "DSCAT": "PROTOCOL MILESTONE",
    "DSSCAT": "",
    "DSSTDTC": "2013-05-26",
    "DSDY": 1
  },
  {
    "STUDYID": "CDISCPILOT01",
    "DOMAIN": "DS",
    "USUBJID": "01-705-005",
    "DSSEQ": 3,
    "DSTERM": "ADVERSE EVENT",
    "DSDECOD": "ADVERSE EVENT",
    "DSCAT": "DISPOSITION EVENT",
    "DSSCAT": "TREATMENT",
    "DSSTDTC": "2013-06-16",
    "DSDY": 22
  },
  {
    "STUDYID": "CDISCPILOT01",
    "DOMAIN": "DS",
    "USUBJID": "01-705-005",
    "DSSEQ": 4,
    "DSTERM": "ADVERSE EVENT",
    "DSDECOD": "ADVERSE EVENT",
    "DSCAT": "DISPOSITION EVENT",
    "DSSCAT": "STUDY",
    "DSSTDTC": "2013-06-20",
    "DSDY": 26
  },
  {
    "STUDYID": "CDISCPILOT01",
    "DOMAIN": "DS",
    "USUBJID": "01-705-006",
    "DSSEQ": 1,
    "DSTERM": "INFORMED CONSENT OBTAINED",
    "DSDECOD": "INFORMED CONSENT OBTAINED",
    "DSCAT": "PROTOCOL MILESTONE",
    "DSSCAT": "",
    "DSSTDTC": "2013-11-22"
  },
  {
    "STUDYID": "CDISCPILOT01",
    "DOMAIN": "DS",
    "USUBJID": "01-705-006",
    "DSSEQ": 2,
    "DSTERM": "RANDOMIZED",
    "DSDECOD": "RANDOMIZED",
    "DSCAT": "PROTOCOL MILESTONE",
    "DSSCAT": "",
    "DSSTDTC": "2013-12-12",
    "DSDY": 1
  },
  {
    "STUDYID": "CDISCPILOT01",
    "DOMAIN": "DS",
    "USUBJID": "01-705-006",
    "DSSEQ": 3,
    "DSTERM": "ADVERSE EVENT",
    "DSDECOD": "ADVERSE EVENT",
    "DSCAT": "DISPOSITION EVENT",
    "DSSCAT": "TREATMENT",
    "DSSTDTC": "2014-03-06",
    "DSDY": 85
  },
  {
    "STUDYID": "CDISCPILOT01",
    "DOMAIN": "DS",
    "USUBJID": "01-705-006",
    "DSSEQ": 4,
    "DSTERM": "ADVERSE EVENT",
    "DSDECOD": "ADVERSE EVENT",
    "DSCAT": "DISPOSITION EVENT",
    "DSSCAT": "STUDY",
    "DSSTDTC": "2014-03-10",
    "DSDY": 89
  },
  {
    "STUDYID": "CDISCPILOT01",
    "DOMAIN": "DS",
    "USUBJID": "01-705-007",
    "DSSEQ": 1,
    "DSTERM": "INFORMED CONSENT OBTAINED",
    "DSDECOD": "INFORMED CONSENT OBTAINED",
    "DSCAT": "PROTOCOL MILESTONE",
    "DSSCAT": "",
    "DSSTDTC": "2013-09-21"
  },
  {
    "STUDYID": "CDISCPILOT01",
    "DOMAIN": "DS",
    "USUBJID": "01-705-007",
    "DSSEQ": 2,
    "DSTERM": "RANDOMIZED",
    "DSDECOD": "RANDOMIZED",
    "DSCAT": "PROTOCOL MILESTONE",
    "DSSCAT": "",
    "DSSTDTC": "2013-10-03",
    "DSDY": 1
  },
  {
    "STUDYID": "CDISCPILOT01",
    "DOMAIN": "DS",
    "USUBJID": "01-705-007",
    "DSSEQ": 3,
    "DSTERM": "ADVERSE EVENT",
    "DSDECOD": "ADVERSE EVENT",
    "DSCAT": "DISPOSITION EVENT",
    "DSSCAT": "TREATMENT",
    "DSSTDTC": "2013-12-19",
    "DSDY": 78
  },
  {
    "STUDYID": "CDISCPILOT01",
    "DOMAIN": "DS",
    "USUBJID": "01-705-007",
    "DSSEQ": 4,
    "DSTERM": "ADVERSE EVENT",
    "DSDECOD": "ADVERSE EVENT",
    "DSCAT": "DISPOSITION EVENT",
    "DSSCAT": "STUDY",
    "DSSTDTC": "2013-12-26",
    "DSDY": 85
  },
  {
    "STUDYID": "CDISCPILOT01",
    "DOMAIN": "DS",
    "USUBJID": "01-705-008",
    "DSSEQ": 1,
    "DSTERM": "INFORMED CONSENT OBTAINED",
    "DSDECOD": "INFORMED CONSENT OBTAINED",
    "DSCAT": "PROTOCOL MILESTONE",
    "DSSCAT": "",
    "DSSTDTC": "2013-05-07"
  },
  {
    "STUDYID": "CDISCPILOT01",
    "DOMAIN": "DS",
    "USUBJID": "01-705-008",
    "DSSEQ": 2,
    "DSTERM": "RANDOMIZED",
    "DSDECOD": "RANDOMIZED",
    "DSCAT": "PROTOCOL MILESTONE",
    "DSSCAT": "",
    "DSSTDTC": "2013-05-16",
    "DSDY": 1
  },
  {
    "STUDYID": "CDISCPILOT01",
    "DOMAIN": "DS",
    "USUBJID": "01-705-008",
    "DSSEQ": 3,
    "DSTERM": "COMPLETED TREATMENT",
    "DSDECOD": "COMPLETED",
    "DSCAT": "DISPOSITION EVENT",
    "DSSCAT": "TREATMENT",
    "DSSTDTC": "2013-10-31",
    "DSDY": 169
  },
  {
    "STUDYID": "CDISCPILOT01",
    "DOMAIN": "DS",
    "USUBJID": "01-705-008",
    "DSSEQ": 4,
    "DSTERM": "COMPLETED STUDY",
    "DSDECOD": "COMPLETED",
    "DSCAT": "DISPOSITION EVENT",
    "DSSCAT": "STUDY",
    "DSSTDTC": "2013-11-14",
    "DSDY": 183
  },
  {
    "STUDYID": "CDISCPILOT01",
    "DOMAIN": "DS",
    "USUBJID": "01-705-009",
    "DSSEQ": 1,
    "DSTERM": "INFORMED CONSENT OBTAINED",
    "DSDECOD": "INFORMED CONSENT OBTAINED",
    "DSCAT": "PROTOCOL MILESTONE",
    "DSSCAT": "",
    "DSSTDTC": "2013-08-23"
  },
  {
    "STUDYID": "CDISCPILOT01",
    "DOMAIN": "DS",
    "USUBJID": "01-705-009",
    "DSSEQ": 2,
    "DSTERM": "RANDOMIZED",
    "DSDECOD": "RANDOMIZED",
    "DSCAT": "PROTOCOL MILESTONE",
    "DSSCAT": "",
    "DSSTDTC": "2013-09-06",
    "DSDY": 1
  },
  {
    "STUDYID": "CDISCPILOT01",
    "DOMAIN": "DS",
    "USUBJID": "01-705-009",
    "DSSEQ": 3,
    "DSTERM": "COMPLETED TREATMENT",
    "DSDECOD": "COMPLETED",
    "DSCAT": "DISPOSITION EVENT",
    "DSSCAT": "TREATMENT",
    "DSSTDTC": "2014-02-21",
    "DSDY": 169
  },
  {
    "STUDYID": "CDISCPILOT01",
    "DOMAIN": "DS",
    "USUBJID": "01-705-009",
    "DSSEQ": 4,
    "DSTERM": "COMPLETED STUDY",
    "DSDECOD": "COMPLETED",
    "DSCAT": "DISPOSITION EVENT",
    "DSSCAT": "STUDY",
    "DSSTDTC": "2014-03-07",
    "DSDY": 183
  },
  {
    "STUDYID": "CDISCPILOT01",
    "DOMAIN": "DS",
    "USUBJID": "01-705-010",
    "DSSEQ": 1,
    "DSTERM": "INFORMED CONSENT OBTAINED",
    "DSDECOD": "INFORMED CONSENT OBTAINED",
    "DSCAT": "PROTOCOL MILESTONE",
    "DSSCAT": "",
    "DSSTDTC": "2013-07-13"
  },
  {
    "STUDYID": "CDISCPILOT01",
    "DOMAIN": "DS",
    "USUBJID": "01-705-010",
    "DSSEQ": 2,
    "DSTERM": "RANDOMIZED",
    "DSDECOD": "RANDOMIZED",
    "DSCAT": "PROTOCOL MILESTONE",
    "DSSCAT": "",
    "DSSTDTC": "2013-08-02",
    "DSDY": 1
  },
  {
    "STUDYID": "CDISCPILOT01",
    "DOMAIN": "DS",
    "USUBJID": "01-705-010",
    "DSSEQ": 3,
    "DSTERM": "COMPLETED TREATMENT",
    "DSDECOD": "COMPLETED",
    "DSCAT": "DISPOSITION EVENT",
    "DSSCAT": "TREATMENT",
    "DSSTDTC": "2014-01-17",
    "DSDY": 169
  },
  {
    "STUDYID": "CDISCPILOT01",
    "DOMAIN": "DS",
    "USUBJID": "01-705-010",
    "DSSEQ": 4,
    "DSTERM": "COMPLETED STUDY",
    "DSDECOD": "COMPLETED",
    "DSCAT": "DISPOSITION EVENT",
    "DSSCAT": "STUDY",
    "DSSTDTC": "2014-01-31",
    "DSDY": 183
  },
  {
    "STUDYID": "CDISCPILOT01",
    "DOMAIN": "DS",
    "USUBJID": "01-705-011",
    "DSSEQ": 1,
    "DSTERM": "INFORMED CONSENT OBTAINED",
    "DSDECOD": "INFORMED CONSENT OBTAINED",
    "DSCAT": "PROTOCOL MILESTONE",
    "DSSCAT": "",
    "DSSTDTC": "2013-08-07"
  },
  {
    "STUDYID": "CDISCPILOT01",
    "DOMAIN": "DS",
    "USUBJID": "01-705-011",
    "DSSEQ": 2,
    "DSTERM": "RANDOMIZED",
    "DSDECOD": "RANDOMIZED",
    "DSCAT": "PROTOCOL MILESTONE",
    "DSSCAT": "",
    "DSSTDTC": "2013-08-26",
    "DSDY": 1
  },
  {
    "STUDYID": "CDISCPILOT01",
    "DOMAIN": "DS",
    "USUBJID": "01-705-011",
    "DSSEQ": 3,
    "DSTERM": "PHYSICIAN DECISION",
    "DSDECOD": "PHYSICIAN DECISION",
    "DSCAT": "DISPOSITION EVENT",
    "DSSCAT": "TREATMENT",
    "DSSTDTC": "2013-10-14",
    "DSDY": 50
  },
  {
    "STUDYID": "CDISCPILOT01",
    "DOMAIN": "DS",
    "USUBJID": "01-705-011",
    "DSSEQ": 4,
    "DSTERM": "PHYSICIAN DECISION",
    "DSDECOD": "PHYSICIAN DECISION",
    "DSCAT": "DISPOSITION EVENT",
    "DSSCAT": "STUDY",
    "DSSTDTC": "2013-10-14",
    "DSDY": 50
  },
  {
    "STUDYID": "CDISCPILOT01",
    "DOMAIN": "DS",
    "USUBJID": "01-705-012",
    "DSSEQ": 1,
    "DSTERM": "INFORMED CONSENT OBTAINED",
    "DSDECOD": "INFORMED CONSENT OBTAINED",
    "DSCAT": "PROTOCOL MILESTONE",
    "DSSCAT": "",
    "DSSTDTC": "2013-08-11"
  },
  {
    "STUDYID": "CDISCPILOT01",
    "DOMAIN": "DS",
    "USUBJID": "01-705-012",
    "DSSEQ": 2,
    "DSTERM": "RANDOMIZED",
    "DSDECOD": "RANDOMIZED",
    "DSCAT": "PROTOCOL MILESTONE",
    "DSSCAT": "",
    "DSSTDTC": "2013-08-27",
    "DSDY": 1
  },
  {
    "STUDYID": "CDISCPILOT01",
    "DOMAIN": "DS",
    "USUBJID": "01-705-012",
    "DSSEQ": 3,
    "DSTERM": "COMPLETED TREATMENT",
    "DSDECOD": "COMPLETED",
    "DSCAT": "DISPOSITION EVENT",
    "DSSCAT": "TREATMENT",
    "DSSTDTC": "2014-02-11",
    "DSDY": 169
  },
  {
    "STUDYID": "CDISCPILOT01",
    "DOMAIN": "DS",
    "USUBJID": "01-705-012",
    "DSSEQ": 4,
    "DSTERM": "COMPLETED STUDY",
    "DSDECOD": "COMPLETED",
    "DSCAT": "DISPOSITION EVENT",
    "DSSCAT": "STUDY",
    "DSSTDTC": "2014-02-25",
    "DSDY": 183
  },
  {
    "STUDYID": "CDISCPILOT01",
    "DOMAIN": "DS",
    "USUBJID": "01-705-013",
    "DSSEQ": 1,
    "DSTERM": "INFORMED CONSENT OBTAINED",
    "DSDECOD": "INFORMED CONSENT OBTAINED",
    "DSCAT": "PROTOCOL MILESTONE",
    "DSSCAT": "",
    "DSSTDTC": "2013-01-21"
  },
  {
    "STUDYID": "CDISCPILOT01",
    "DOMAIN": "DS",
    "USUBJID": "01-705-013",
    "DSSEQ": 2,
    "DSTERM": "RANDOMIZED",
    "DSDECOD": "RANDOMIZED",
    "DSCAT": "PROTOCOL MILESTONE",
    "DSSCAT": "",
    "DSSTDTC": "2013-02-07",
    "DSDY": 1
  },
  {
    "STUDYID": "CDISCPILOT01",
    "DOMAIN": "DS",
    "USUBJID": "01-705-013",
    "DSSEQ": 3,
    "DSTERM": "COMPLETED TREATMENT",
    "DSDECOD": "COMPLETED",
    "DSCAT": "DISPOSITION EVENT",
    "DSSCAT": "TREATMENT",
    "DSSTDTC": "2013-07-25",
    "DSDY": 169
  },
  {
    "STUDYID": "CDISCPILOT01",
    "DOMAIN": "DS",
    "USUBJID": "01-705-013",
    "DSSEQ": 4,
    "DSTERM": "COMPLETED STUDY",
    "DSDECOD": "COMPLETED",
    "DSCAT": "DISPOSITION EVENT",
    "DSSCAT": "STUDY",
    "DSSTDTC": "2013-08-08",
    "DSDY": 183
  },
  {
    "STUDYID": "CDISCPILOT01",
    "DOMAIN": "DS",
    "USUBJID": "01-705-014",
    "DSSEQ": 1,
    "DSTERM": "INFORMED CONSENT OBTAINED",
    "DSDECOD": "INFORMED CONSENT OBTAINED",
    "DSCAT": "PROTOCOL MILESTONE",
    "DSSCAT": "",
    "DSSTDTC": "2013-02-10"
  },
  {
    "STUDYID": "CDISCPILOT01",
    "DOMAIN": "DS",
    "USUBJID": "01-705-014",
    "DSSEQ": 2,
    "DSTERM": "RANDOMIZED",
    "DSDECOD": "RANDOMIZED",
    "DSCAT": "PROTOCOL MILESTONE",
    "DSSCAT": "",
    "DSSTDTC": "2013-02-22",
    "DSDY": 1
  },
  {
    "STUDYID": "CDISCPILOT01",
    "DOMAIN": "DS",
    "USUBJID": "01-705-014",
    "DSSEQ": 3,
    "DSTERM": "COMPLETED TREATMENT",
    "DSDECOD": "COMPLETED",
    "DSCAT": "DISPOSITION EVENT",
    "DSSCAT": "TREATMENT",
    "DSSTDTC": "2013-08-09",
    "DSDY": 169
  },
  {
    "STUDYID": "CDISCPILOT01",
    "DOMAIN": "DS",
    "USUBJID": "01-705-014",
    "DSSEQ": 4,
    "DSTERM": "COMPLETED STUDY",
    "DSDECOD": "COMPLETED",
    "DSCAT": "DISPOSITION EVENT",
    "DSSCAT": "STUDY",
    "DSSTDTC": "2013-08-23",
    "DSDY": 183
  },
  {
    "STUDYID": "CDISCPILOT01",
    "DOMAIN": "DS",
    "USUBJID": "01-706-001",
    "DSSEQ": 1,
    "DSTERM": "INFORMED CONSENT OBTAINED",
    "DSDECOD": "INFORMED CONSENT OBTAINED",
    "DSCAT": "PROTOCOL MILESTONE",
    "DSSCAT": "",
    "DSSTDTC": "2013-01-10"
  },
  {
    "STUDYID": "CDISCPILOT01",
    "DOMAIN": "DS",
    "USUBJID": "01-706-001",
    "DSSEQ": 2,
    "DSTERM": "RANDOMIZED",
    "DSDECOD": "RANDOMIZED",
    "DSCAT": "PROTOCOL MILESTONE",
    "DSSCAT": "",
    "DSSTDTC": "2013-01-31",
    "DSDY": 1
  },
  {
    "STUDYID": "CDISCPILOT01",
    "DOMAIN": "DS",
    "USUBJID": "01-706-001",
    "DSSEQ": 3,
    "DSTERM": "ADVERSE EVENT",
    "DSDECOD": "ADVERSE EVENT",
    "DSCAT": "DISPOSITION EVENT",
    "DSSCAT": "TREATMENT",
    "DSSTDTC": "2013-04-25",
    "DSDY": 85
  },
  {
    "STUDYID": "CDISCPILOT01",
    "DOMAIN": "DS",
    "USUBJID": "01-706-001",
    "DSSEQ": 4,
    "DSTERM": "ADVERSE EVENT",
    "DSDECOD": "ADVERSE EVENT",
    "DSCAT": "DISPOSITION EVENT",
    "DSSCAT": "STUDY",
    "DSSTDTC": "2013-05-05",
    "DSDY": 95
  },
  {
    "STUDYID": "CDISCPILOT01",
    "DOMAIN": "DS",
    "USUBJID": "01-706-002",
    "DSSEQ": 1,
    "DSTERM": "INFORMED CONSENT OBTAINED",
    "DSDECOD": "INFORMED CONSENT OBTAINED",
    "DSCAT": "PROTOCOL MILESTONE",
    "DSSCAT": "",
    "DSSTDTC": "2013-01-29"
  },
  {
    "STUDYID": "CDISCPILOT01",
    "DOMAIN": "DS",
    "USUBJID": "01-706-002",
    "DSSEQ": 2,
    "DSTERM": "RANDOMIZED",
    "DSDECOD": "RANDOMIZED",
    "DSCAT": "PROTOCOL MILESTONE",
    "DSSCAT": "",
    "DSSTDTC": "2013-02-14",
    "DSDY": 1
  },
  {
    "STUDYID": "CDISCPILOT01",
    "DOMAIN": "DS",
    "USUBJID": "01-706-002",
    "DSSEQ": 3,
    "DSTERM": "COMPLETED TREATMENT",
    "DSDECOD": "COMPLETED",
    "DSCAT": "DISPOSITION EVENT",
    "DSSCAT": "TREATMENT",
    "DSSTDTC": "2013-08-01",
    "DSDY": 169
  },
  {
    "STUDYID": "CDISCPILOT01",
    "DOMAIN": "DS",
    "USUBJID": "01-706-002",
    "DSSEQ": 4,
    "DSTERM": "COMPLETED STUDY",
    "DSDECOD": "COMPLETED",
    "DSCAT": "DISPOSITION EVENT",
    "DSSCAT": "STUDY",
    "DSSTDTC": "2013-08-15",
    "DSDY": 183
  },
  {
    "STUDYID": "CDISCPILOT01",
    "DOMAIN": "DS",
    "USUBJID": "01-706-003",
    "DSSEQ": 1,
    "DSTERM": "INFORMED CONSENT OBTAINED",
    "DSDECOD": "INFORMED CONSENT OBTAINED",
    "DSCAT": "PROTOCOL MILESTONE",
    "DSSCAT": "",
    "DSSTDTC": "2013-02-21"
  },
  {
    "STUDYID": "CDISCPILOT01",
    "DOMAIN": "DS",
    "USUBJID": "01-706-003",
    "DSSEQ": 2,
    "DSTERM": "RANDOMIZED",
    "DSDECOD": "RANDOMIZED",
    "DSCAT": "PROTOCOL MILESTONE",
    "DSSCAT": "",
    "DSSTDTC": "2013-03-10",
    "DSDY": 1
  },
  {
    "STUDYID": "CDISCPILOT01",
    "DOMAIN": "DS",
    "USUBJID": "01-706-003",
    "DSSEQ": 3,
    "DSTERM": "ADVERSE EVENT",
    "DSDECOD": "ADVERSE EVENT",
    "DSCAT": "DISPOSITION EVENT",
    "DSSCAT": "TREATMENT",
    "DSSTDTC": "2013-06-09",
    "DSDY": 92
  },
  {
    "STUDYID": "CDISCPILOT01",
    "DOMAIN": "DS",
    "USUBJID": "01-706-003",
    "DSSEQ": 4,
    "DSTERM": "ADVERSE EVENT",
    "DSDECOD": "ADVERSE EVENT",
    "DSCAT": "DISPOSITION EVENT",
    "DSSCAT": "STUDY",
    "DSSTDTC": "2013-06-13",
    "DSDY": 96
  },
  {
    "STUDYID": "CDISCPILOT01",
    "DOMAIN": "DS",
    "USUBJID": "01-707-001",
    "DSSEQ": 1,
    "DSTERM": "INFORMED CONSENT OBTAINED",
    "DSDECOD": "INFORMED CONSENT OBTAINED",
    "DSCAT": "PROTOCOL MILESTONE",
    "DSSCAT": "",
    "DSSTDTC": "2013-01-29"
  },
  {
    "STUDYID": "CDISCPILOT01",
    "DOMAIN": "DS",
    "USUBJID": "01-707-001",
    "DSSEQ": 2,
    "DSTERM": "RANDOMIZED",
    "DSDECOD": "RANDOMIZED",
    "DSCAT": "PROTOCOL MILESTONE",
    "DSSCAT": "",
    "DSSTDTC": "2013-02-11",
    "DSDY": 1
  },
  {
    "STUDYID": "CDISCPILOT01",
    "DOMAIN": "DS",
    "USUBJID": "01-707-001",
    "DSSEQ": 3,
    "DSTERM": "ADVERSE EVENT",
    "DSDECOD": "ADVERSE EVENT",
    "DSCAT": "DISPOSITION EVENT",
    "DSSCAT": "TREATMENT",
    "DSSTDTC": "2013-04-29",
    "DSDY": 78
  },
  {
    "STUDYID": "CDISCPILOT01",
    "DOMAIN": "DS",
    "USUBJID": "01-707-001",
    "DSSEQ": 4,
    "DSTERM": "ADVERSE EVENT",
    "DSDECOD": "ADVERSE EVENT",
    "DSCAT": "DISPOSITION EVENT",
    "DSSCAT": "STUDY",
    "DSSTDTC": "2013-05-04",
    "DSDY": 83
  },
  {
    "STUDYID": "CDISCPILOT01",
    "DOMAIN": "DS",
    "USUBJID": "01-707-002",
    "DSSEQ": 1,
    "DSTERM": "INFORMED CONSENT OBTAINED",
    "DSDECOD": "INFORMED CONSENT OBTAINED",
    "DSCAT": "PROTOCOL MILESTONE",
    "DSSCAT": "",
    "DSSTDTC": "2013-08-10"
  },
  {
    "STUDYID": "CDISCPILOT01",
    "DOMAIN": "DS",
    "USUBJID": "01-707-002",
    "DSSEQ": 2,
    "DSTERM": "RANDOMIZED",
    "DSDECOD": "RANDOMIZED",
    "DSCAT": "PROTOCOL MILESTONE",
    "DSSCAT": "",
    "DSSTDTC": "2013-08-21",
    "DSDY": 1
  },
  {
    "STUDYID": "CDISCPILOT01",
    "DOMAIN": "DS",
    "USUBJID": "01-707-002",
    "DSSEQ": 3,
    "DSTERM": "COMPLETED TREATMENT",
    "DSDECOD": "COMPLETED",
    "DSCAT": "DISPOSITION EVENT",
    "DSSCAT": "TREATMENT",
    "DSSTDTC": "2014-02-05",
    "DSDY": 169
  },
  {
    "STUDYID": "CDISCPILOT01",
    "DOMAIN": "DS",
    "USUBJID": "01-707-002",
    "DSSEQ": 4,
    "DSTERM": "COMPLETED STUDY",
    "DSDECOD": "COMPLETED",
    "DSCAT": "DISPOSITION EVENT",
    "DSSCAT": "STUDY",
    "DSSTDTC": "2014-02-19",
    "DSDY": 183
  },
  {
    "STUDYID": "CDISCPILOT01",
    "DOMAIN": "DS",
    "USUBJID": "01-707-003",
    "DSSEQ": 1,
    "DSTERM": "INFORMED CONSENT OBTAINED",
    "DSDECOD": "INFORMED CONSENT OBTAINED",
    "DSCAT": "PROTOCOL MILESTONE",
    "DSSCAT": "",
    "DSSTDTC": "2013-11-23"
  },
  {
    "STUDYID": "CDISCPILOT01",
    "DOMAIN": "DS",
    "USUBJID": "01-707-003",
    "DSSEQ": 2,
    "DSTERM": "RANDOMIZED",
    "DSDECOD": "RANDOMIZED",
    "DSCAT": "PROTOCOL MILESTONE",
    "DSSCAT": "",
    "DSSTDTC": "2013-12-09",
    "DSDY": 1
  },
  {
    "STUDYID": "CDISCPILOT01",
    "DOMAIN": "DS",
    "USUBJID": "01-707-003",
    "DSSEQ": 3,
    "DSTERM": "COMPLETED TREATMENT",
    "DSDECOD": "COMPLETED",
    "DSCAT": "DISPOSITION EVENT",
    "DSSCAT": "TREATMENT",
    "DSSTDTC": "2014-05-26",
    "DSDY": 169
  },
  {
    "STUDYID": "CDISCPILOT01",
    "DOMAIN": "DS",
    "USUBJID": "01-707-003",
    "DSSEQ": 4,
    "DSTERM": "COMPLETED STUDY",
    "DSDECOD": "COMPLETED",
    "DSCAT": "DISPOSITION EVENT",
    "DSSCAT": "STUDY",
    "DSSTDTC": "2014-06-09",
    "DSDY": 183
  },
  {
    "STUDYID": "CDISCPILOT01",
    "DOMAIN": "DS",
    "USUBJID": "01-708-001",
    "DSSEQ": 1,
    "DSTERM": "INFORMED CONSENT OBTAINED",
    "DSDECOD": "INFORMED CONSENT OBTAINED",
    "DSCAT": "PROTOCOL MILESTONE",
    "DSSCAT": "",
    "DSSTDTC": "2013-10-19"
  },
  {
    "STUDYID": "CDISCPILOT01",
    "DOMAIN": "DS",
    "USUBJID": "01-708-001",
    "DSSEQ": 2,
    "DSTERM": "RANDOMIZED",
    "DSDECOD": "RANDOMIZED",
    "DSCAT": "PROTOCOL MILESTONE",
    "DSSCAT": "",
    "DSSTDTC": "2013-11-09",
    "DSDY": 1
  },
  {
    "STUDYID": "CDISCPILOT01",
    "DOMAIN": "DS",
    "USUBJID": "01-708-001",
    "DSSEQ": 3,
    "DSTERM": "ADVERSE EVENT",
    "DSDECOD": "ADVERSE EVENT",
    "DSCAT": "DISPOSITION EVENT",
    "DSSCAT": "TREATMENT",
    "DSSTDTC": "2014-02-08",
    "DSDY": 92
  },
  {
    "STUDYID": "CDISCPILOT01",
    "DOMAIN": "DS",
    "USUBJID": "01-708-001",
    "DSSEQ": 4,
    "DSTERM": "ADVERSE EVENT",
    "DSDECOD": "ADVERSE EVENT",
    "DSCAT": "DISPOSITION EVENT",
    "DSSCAT": "STUDY",
    "DSSTDTC": "2014-02-08",
    "DSDY": 92
  },
  {
    "STUDYID": "CDISCPILOT01",
    "DOMAIN": "DS",
    "USUBJID": "01-708-002",
    "DSSEQ": 1,
    "DSTERM": "INFORMED CONSENT OBTAINED",
    "DSDECOD": "INFORMED CONSENT OBTAINED",
    "DSCAT": "PROTOCOL MILESTONE",
    "DSSCAT": "",
    "DSSTDTC": "2013-08-05"
  },
  {
    "STUDYID": "CDISCPILOT01",
    "DOMAIN": "DS",
    "USUBJID": "01-708-002",
    "DSSEQ": 2,
    "DSTERM": "RANDOMIZED",
    "DSDECOD": "RANDOMIZED",
    "DSCAT": "PROTOCOL MILESTONE",
    "DSSCAT": "",
    "DSSTDTC": "2013-08-26",
    "DSDY": 1
  },
  {
    "STUDYID": "CDISCPILOT01",
    "DOMAIN": "DS",
    "USUBJID": "01-708-002",
    "DSSEQ": 3,
    "DSTERM": "ADVERSE EVENT",
    "DSDECOD": "ADVERSE EVENT",
    "DSCAT": "DISPOSITION EVENT",
    "DSSCAT": "TREATMENT",
    "DSSTDTC": "2013-09-02",
    "DSDY": 8
  },
  {
    "STUDYID": "CDISCPILOT01",
    "DOMAIN": "DS",
    "USUBJID": "01-708-002",
    "DSSEQ": 4,
    "DSTERM": "ADVERSE EVENT",
    "DSDECOD": "ADVERSE EVENT",
    "DSCAT": "DISPOSITION EVENT",
    "DSSCAT": "STUDY",
    "DSSTDTC": "2013-09-16",
    "DSDY": 22
  },
  {
    "STUDYID": "CDISCPILOT01",
    "DOMAIN": "DS",
    "USUBJID": "01-708-003",
    "DSSEQ": 1,
    "DSTERM": "INFORMED CONSENT OBTAINED",
    "DSDECOD": "INFORMED CONSENT OBTAINED",
    "DSCAT": "PROTOCOL MILESTONE",
    "DSSCAT": "",
    "DSSTDTC": "2013-10-14"
  },
  {
    "STUDYID": "CDISCPILOT01",
    "DOMAIN": "DS",
    "USUBJID": "01-708-003",
    "DSSEQ": 2,
    "DSTERM": "RANDOMIZED",
    "DSDECOD": "RANDOMIZED",
    "DSCAT": "PROTOCOL MILESTONE",
    "DSSCAT": "",
    "DSSTDTC": "2013-10-28",
    "DSDY": 1
  },
  {
    "STUDYID": "CDISCPILOT01",
    "DOMAIN": "DS",
    "USUBJID": "01-708-003",
    "DSSEQ": 3,
    "DSTERM": "COMPLETED TREATMENT",
    "DSDECOD": "COMPLETED",
    "DSCAT": "DISPOSITION EVENT",
    "DSSCAT": "TREATMENT",
    "DSSTDTC": "2014-04-14",
    "DSDY": 169
  },
  {
    "STUDYID": "CDISCPILOT01",
    "DOMAIN": "DS",
    "USUBJID": "01-708-003",
    "DSSEQ": 4,
    "DSTERM": "COMPLETED STUDY",
    "DSDECOD": "COMPLETED",
    "DSCAT": "DISPOSITION EVENT",
    "DSSCAT": "STUDY",
    "DSSTDTC": "2014-04-28",
    "DSDY": 183
  },
  {
    "STUDYID": "CDISCPILOT01",
    "DOMAIN": "DS",
    "USUBJID": "01-708-004",
    "DSSEQ": 1,
    "DSTERM": "INFORMED CONSENT OBTAINED",
    "DSDECOD": "INFORMED CONSENT OBTAINED",
    "DSCAT": "PROTOCOL MILESTONE",
    "DSSCAT": "",
    "DSSTDTC": "2012-12-20"
  },
  {
    "STUDYID": "CDISCPILOT01",
    "DOMAIN": "DS",
    "USUBJID": "01-708-004",
    "DSSEQ": 2,
    "DSTERM": "RANDOMIZED",
    "DSDECOD": "RANDOMIZED",
    "DSCAT": "PROTOCOL MILESTONE",
    "DSSCAT": "",
    "DSSTDTC": "2013-01-03",
    "DSDY": 1
  },
  {
    "STUDYID": "CDISCPILOT01",
    "DOMAIN": "DS",
    "USUBJID": "01-708-004",
    "DSSEQ": 3,
    "DSTERM": "ADVERSE EVENT",
    "DSDECOD": "ADVERSE EVENT",
    "DSCAT": "DISPOSITION EVENT",
    "DSSCAT": "TREATMENT",
    "DSSTDTC": "2013-01-24",
    "DSDY": 22
  },
  {
    "STUDYID": "CDISCPILOT01",
    "DOMAIN": "DS",
    "USUBJID": "01-708-004",
    "DSSEQ": 4,
    "DSTERM": "ADVERSE EVENT",
    "DSDECOD": "ADVERSE EVENT",
    "DSCAT": "DISPOSITION EVENT",
    "DSSCAT": "STUDY",
    "DSSTDTC": "2013-01-30",
    "DSDY": 28
  },
  {
    "STUDYID": "CDISCPILOT01",
    "DOMAIN": "DS",
    "USUBJID": "01-708-005",
    "DSSEQ": 1,
    "DSTERM": "INFORMED CONSENT OBTAINED",
    "DSDECOD": "INFORMED CONSENT OBTAINED",
    "DSCAT": "PROTOCOL MILESTONE",
    "DSSCAT": "",
    "DSSTDTC": "2013-01-14"
  },
  {
    "STUDYID": "CDISCPILOT01",
    "DOMAIN": "DS",
    "USUBJID": "01-708-005",
    "DSSEQ": 2,
    "DSTERM": "RANDOMIZED",
    "DSDECOD": "RANDOMIZED",
    "DSCAT": "PROTOCOL MILESTONE",
    "DSSCAT": "",
    "DSSTDTC": "2013-02-02",
    "DSDY": 1
  },
  {
    "STUDYID": "CDISCPILOT01",
    "DOMAIN": "DS",
    "USUBJID": "01-708-005",
    "DSSEQ": 3,
    "DSTERM": "ADVERSE EVENT",
    "DSDECOD": "ADVERSE EVENT",
    "DSCAT": "DISPOSITION EVENT",
    "DSSCAT": "TREATMENT",
    "DSSTDTC": "2013-03-02",
    "DSDY": 29
  },
  {
    "STUDYID": "CDISCPILOT01",
    "DOMAIN": "DS",
    "USUBJID": "01-708-005",
    "DSSEQ": 4,
    "DSTERM": "ADVERSE EVENT",
    "DSDECOD": "ADVERSE EVENT",
    "DSCAT": "DISPOSITION EVENT",
    "DSSCAT": "STUDY",
    "DSSTDTC": "2013-03-06",
    "DSDY": 33
  },
  {
    "STUDYID": "CDISCPILOT01",
    "DOMAIN": "DS",
    "USUBJID": "01-708-006",
    "DSSEQ": 1,
    "DSTERM": "INFORMED CONSENT OBTAINED",
    "DSDECOD": "INFORMED CONSENT OBTAINED",
    "DSCAT": "PROTOCOL MILESTONE",
    "DSSCAT": "",
    "DSSTDTC": "2013-09-27"
  },
  {
    "STUDYID": "CDISCPILOT01",
    "DOMAIN": "DS",
    "USUBJID": "01-708-006",
    "DSSEQ": 2,
    "DSTERM": "RANDOMIZED",
    "DSDECOD": "RANDOMIZED",
    "DSCAT": "PROTOCOL MILESTONE",
    "DSSCAT": "",
    "DSSTDTC": "2013-10-05",
    "DSDY": 1
  },
  {
    "STUDYID": "CDISCPILOT01",
    "DOMAIN": "DS",
    "USUBJID": "01-708-006",
    "DSSEQ": 3,
    "DSTERM": "COMPLETED TREATMENT",
    "DSDECOD": "COMPLETED",
    "DSCAT": "DISPOSITION EVENT",
    "DSSCAT": "TREATMENT",
    "DSSTDTC": "2014-03-22",
    "DSDY": 169
  },
  {
    "STUDYID": "CDISCPILOT01",
    "DOMAIN": "DS",
    "USUBJID": "01-708-006",
    "DSSEQ": 4,
    "DSTERM": "COMPLETED STUDY",
    "DSDECOD": "COMPLETED",
    "DSCAT": "DISPOSITION EVENT",
    "DSSCAT": "STUDY",
    "DSSTDTC": "2014-04-05",
    "DSDY": 183
  },
  {
    "STUDYID": "CDISCPILOT01",
    "DOMAIN": "DS",
    "USUBJID": "01-708-007",
    "DSSEQ": 1,
    "DSTERM": "INFORMED CONSENT OBTAINED",
    "DSDECOD": "INFORMED CONSENT OBTAINED",
    "DSCAT": "PROTOCOL MILESTONE",
    "DSSCAT": "",
    "DSSTDTC": "2013-05-12"
  },
  {
    "STUDYID": "CDISCPILOT01",
    "DOMAIN": "DS",
    "USUBJID": "01-708-007",
    "DSSEQ": 2,
    "DSTERM": "RANDOMIZED",
    "DSDECOD": "RANDOMIZED",
    "DSCAT": "PROTOCOL MILESTONE",
    "DSSCAT": "",
    "DSSTDTC": "2013-05-19",
    "DSDY": 1
  },
  {
    "STUDYID": "CDISCPILOT01",
    "DOMAIN": "DS",
    "USUBJID": "01-708-007",
    "DSSEQ": 3,
    "DSTERM": "COMPLETED TREATMENT",
    "DSDECOD": "COMPLETED",
    "DSCAT": "DISPOSITION EVENT",
    "DSSCAT": "TREATMENT",
    "DSSTDTC": "2013-11-03",
    "DSDY": 169
  },
  {
    "STUDYID": "CDISCPILOT01",
    "DOMAIN": "DS",
    "USUBJID": "01-708-007",
    "DSSEQ": 4,
    "DSTERM": "COMPLETED STUDY",
    "DSDECOD": "COMPLETED",
    "DSCAT": "DISPOSITION EVENT",
    "DSSCAT": "STUDY",
    "DSSTDTC": "2013-11-17",
    "DSDY": 183
  },
  {
    "STUDYID": "CDISCPILOT01",
    "DOMAIN": "DS",
    "USUBJID": "01-708-008",
    "DSSEQ": 1,
    "DSTERM": "INFORMED CONSENT OBTAINED",
    "DSDECOD": "INFORMED CONSENT OBTAINED",
    "DSCAT": "PROTOCOL MILESTONE",
    "DSSCAT": "",
    "DSSTDTC": "2013-06-12"
  },
  {
    "STUDYID": "CDISCPILOT01",
    "DOMAIN": "DS",
    "USUBJID": "01-708-008",
    "DSSEQ": 2,
    "DSTERM": "RANDOMIZED",
    "DSDECOD": "RANDOMIZED",
    "DSCAT": "PROTOCOL MILESTONE",
    "DSSCAT": "",
    "DSSTDTC": "2013-07-03",
    "DSDY": 1
  },
  {
    "STUDYID": "CDISCPILOT01",
    "DOMAIN": "DS",
    "USUBJID": "01-708-008",
    "DSSEQ": 3,
    "DSTERM": "ADVERSE EVENT",
    "DSDECOD": "ADVERSE EVENT",
    "DSCAT": "DISPOSITION EVENT",
    "DSSCAT": "TREATMENT",
    "DSSTDTC": "2013-12-18",
    "DSDY": 169
  },
  {
    "STUDYID": "CDISCPILOT01",
    "DOMAIN": "DS",
    "USUBJID": "01-708-008",
    "DSSEQ": 4,
    "DSTERM": "ADVERSE EVENT",
    "DSDECOD": "ADVERSE EVENT",
    "DSCAT": "DISPOSITION EVENT",
    "DSSCAT": "STUDY",
    "DSSTDTC": "2013-12-28",
    "DSDY": 179
  },
  {
    "STUDYID": "CDISCPILOT01",
    "DOMAIN": "DS",
    "USUBJID": "01-708-009",
    "DSSEQ": 1,
    "DSTERM": "INFORMED CONSENT OBTAINED",
    "DSDECOD": "INFORMED CONSENT OBTAINED",
    "DSCAT": "PROTOCOL MILESTONE",
    "DSSCAT": "",
    "DSSTDTC": "2013-03-30"
  },
  {
    "STUDYID": "CDISCPILOT01",
    "DOMAIN": "DS",
    "USUBJID": "01-708-009",
    "DSSEQ": 2,
    "DSTERM": "RANDOMIZED",
    "DSDECOD": "RANDOMIZED",
    "DSCAT": "PROTOCOL MILESTONE",
    "DSSCAT": "",
    "DSSTDTC": "2013-04-16",
    "DSDY": 1
  },
  {
    "STUDYID": "CDISCPILOT01",
    "DOMAIN": "DS",
    "USUBJID": "01-708-009",
    "DSSEQ": 3,
    "DSTERM": "ADVERSE EVENT",
    "DSDECOD": "ADVERSE EVENT",
    "DSCAT": "DISPOSITION EVENT",
    "DSSCAT": "TREATMENT",
    "DSSTDTC": "2013-06-18",
    "DSDY": 64
  },
  {
    "STUDYID": "CDISCPILOT01",
    "DOMAIN": "DS",
    "USUBJID": "01-708-009",
    "DSSEQ": 4,
    "DSTERM": "ADVERSE EVENT",
    "DSDECOD": "ADVERSE EVENT",
    "DSCAT": "DISPOSITION EVENT",
    "DSSCAT": "STUDY",
    "DSSTDTC": "2013-06-20",
    "DSDY": 66
  },
  {
    "STUDYID": "CDISCPILOT01",
    "DOMAIN": "DS",
    "USUBJID": "01-708-010",
    "DSSEQ": 1,
    "DSTERM": "INFORMED CONSENT OBTAINED",
    "DSDECOD": "INFORMED CONSENT OBTAINED",
    "DSCAT": "PROTOCOL MILESTONE",
    "DSSCAT": "",
    "DSSTDTC": "2013-06-25"
  },
  {
    "STUDYID": "CDISCPILOT01",
    "DOMAIN": "DS",
    "USUBJID": "01-708-010",
    "DSSEQ": 2,
    "DSTERM": "RANDOMIZED",
    "DSDECOD": "RANDOMIZED",
    "DSCAT": "PROTOCOL MILESTONE",
    "DSSCAT": "",
    "DSSTDTC": "2013-07-04",
    "DSDY": 1
  },
  {
    "STUDYID": "CDISCPILOT01",
    "DOMAIN": "DS",
    "USUBJID": "01-708-010",
    "DSSEQ": 3,
    "DSTERM": "ADVERSE EVENT",
    "DSDECOD": "ADVERSE EVENT",
    "DSCAT": "DISPOSITION EVENT",
    "DSSCAT": "TREATMENT",
    "DSSTDTC": "2013-08-29",
    "DSDY": 57
  },
  {
    "STUDYID": "CDISCPILOT01",
    "DOMAIN": "DS",
    "USUBJID": "01-708-010",
    "DSSEQ": 4,
    "DSTERM": "ADVERSE EVENT",
    "DSDECOD": "ADVERSE EVENT",
    "DSCAT": "DISPOSITION EVENT",
    "DSSCAT": "STUDY",
    "DSSTDTC": "2013-09-01",
    "DSDY": 60
  },
  {
    "STUDYID": "CDISCPILOT01",
    "DOMAIN": "DS",
    "USUBJID": "01-708-011",
    "DSSEQ": 1,
    "DSTERM": "INFORMED CONSENT OBTAINED",
    "DSDECOD": "INFORMED CONSENT OBTAINED",
    "DSCAT": "PROTOCOL MILESTONE",
    "DSSCAT": "",
    "DSSTDTC": "2013-11-19"
  },
  {
    "STUDYID": "CDISCPILOT01",
    "DOMAIN": "DS",
    "USUBJID": "01-708-011",
    "DSSEQ": 2,
    "DSTERM": "RANDOMIZED",
    "DSDECOD": "RANDOMIZED",
    "DSCAT": "PROTOCOL MILESTONE",
    "DSSCAT": "",
    "DSSTDTC": "2013-12-03",
    "DSDY": 1
  },
  {
    "STUDYID": "CDISCPILOT01",
    "DOMAIN": "DS",
    "USUBJID": "01-708-011",
    "DSSEQ": 3,
    "DSTERM": "ADVERSE EVENT",
    "DSDECOD": "ADVERSE EVENT",
    "DSCAT": "DISPOSITION EVENT",
    "DSSCAT": "TREATMENT",
    "DSSTDTC": "2014-01-07",
    "DSDY": 36
  },
  {
    "STUDYID": "CDISCPILOT01",
    "DOMAIN": "DS",
    "USUBJID": "01-708-011",
    "DSSEQ": 4,
    "DSTERM": "ADVERSE EVENT",
    "DSDECOD": "ADVERSE EVENT",
    "DSCAT": "DISPOSITION EVENT",
    "DSSCAT": "STUDY",
    "DSSTDTC": "2014-01-21",
    "DSDY": 50
  },
  {
    "STUDYID": "CDISCPILOT01",
    "DOMAIN": "DS",
    "USUBJID": "01-708-012",
    "DSSEQ": 1,
    "DSTERM": "INFORMED CONSENT OBTAINED",
    "DSDECOD": "INFORMED CONSENT OBTAINED",
    "DSCAT": "PROTOCOL MILESTONE",
    "DSSCAT": "",
    "DSSTDTC": "2013-05-28"
  },
  {
    "STUDYID": "CDISCPILOT01",
    "DOMAIN": "DS",
    "USUBJID": "01-708-012",
    "DSSEQ": 2,
    "DSTERM": "RANDOMIZED",
    "DSDECOD": "RANDOMIZED",
    "DSCAT": "PROTOCOL MILESTONE",
    "DSSCAT": "",
    "DSSTDTC": "2013-06-08",
    "DSDY": 1
  },
  {
    "STUDYID": "CDISCPILOT01",
    "DOMAIN": "DS",
    "USUBJID": "01-708-012",
    "DSSEQ": 3,
    "DSTERM": "COMPLETED TREATMENT",
    "DSDECOD": "COMPLETED",
    "DSCAT": "DISPOSITION EVENT",
    "DSSCAT": "TREATMENT",
    "DSSTDTC": "2013-11-23",
    "DSDY": 169
  },
  {
    "STUDYID": "CDISCPILOT01",
    "DOMAIN": "DS",
    "USUBJID": "01-708-012",
    "DSSEQ": 4,
    "DSTERM": "COMPLETED STUDY",
    "DSDECOD": "COMPLETED",
    "DSCAT": "DISPOSITION EVENT",
    "DSSCAT": "STUDY",
    "DSSTDTC": "2013-12-07",
    "DSDY": 183
  },
  {
    "STUDYID": "CDISCPILOT01",
    "DOMAIN": "DS",
    "USUBJID": "01-708-013",
    "DSSEQ": 1,
    "DSTERM": "INFORMED CONSENT OBTAINED",
    "DSDECOD": "INFORMED CONSENT OBTAINED",
    "DSCAT": "PROTOCOL MILESTONE",
    "DSSCAT": "",
    "DSSTDTC": "2013-03-13"
  },
  {
    "STUDYID": "CDISCPILOT01",
    "DOMAIN": "DS",
    "USUBJID": "01-708-013",
    "DSSEQ": 2,
    "DSTERM": "RANDOMIZED",
    "DSDECOD": "RANDOMIZED",
    "DSCAT": "PROTOCOL MILESTONE",
    "DSSCAT": "",
    "DSSTDTC": "2013-04-02",
    "DSDY": 1
  },
  {
    "STUDYID": "CDISCPILOT01",
    "DOMAIN": "DS",
    "USUBJID": "01-708-013",
    "DSSEQ": 3,
    "DSTERM": "ADVERSE EVENT",
    "DSDECOD": "ADVERSE EVENT",
    "DSCAT": "DISPOSITION EVENT",
    "DSSCAT": "TREATMENT",
    "DSSTDTC": "2013-08-27",
    "DSDY": 148
  },
  {
    "STUDYID": "CDISCPILOT01",
    "DOMAIN": "DS",
    "USUBJID": "01-708-013",
    "DSSEQ": 4,
    "DSTERM": "ADVERSE EVENT",
    "DSDECOD": "ADVERSE EVENT",
    "DSCAT": "DISPOSITION EVENT",
    "DSSCAT": "STUDY",
    "DSSTDTC": "2013-09-01",
    "DSDY": 153
  },
  {
    "STUDYID": "CDISCPILOT01",
    "DOMAIN": "DS",
    "USUBJID": "01-708-014",
    "DSSEQ": 1,
    "DSTERM": "INFORMED CONSENT OBTAINED",
    "DSDECOD": "INFORMED CONSENT OBTAINED",
    "DSCAT": "PROTOCOL MILESTONE",
    "DSSCAT": "",
    "DSSTDTC": "2013-06-19"
  },
  {
    "STUDYID": "CDISCPILOT01",
    "DOMAIN": "DS",
    "USUBJID": "01-708-014",
    "DSSEQ": 2,
    "DSTERM": "RANDOMIZED",
    "DSDECOD": "RANDOMIZED",
    "DSCAT": "PROTOCOL MILESTONE",
    "DSSCAT": "",
    "DSSTDTC": "2013-07-08",
    "DSDY": 1
  },
  {
    "STUDYID": "CDISCPILOT01",
    "DOMAIN": "DS",
    "USUBJID": "01-708-014",
    "DSSEQ": 3,
    "DSTERM": "ADVERSE EVENT",
    "DSDECOD": "ADVERSE EVENT",
    "DSCAT": "DISPOSITION EVENT",
    "DSSCAT": "TREATMENT",
    "DSSTDTC": "2013-08-05",
    "DSDY": 29
  },
  {
    "STUDYID": "CDISCPILOT01",
    "DOMAIN": "DS",
    "USUBJID": "01-708-014",
    "DSSEQ": 4,
    "DSTERM": "ADVERSE EVENT",
    "DSDECOD": "ADVERSE EVENT",
    "DSCAT": "DISPOSITION EVENT",
    "DSSCAT": "STUDY",
    "DSSTDTC": "2013-08-13",
    "DSDY": 37
  },
  {
    "STUDYID": "CDISCPILOT01",
    "DOMAIN": "DS",
    "USUBJID": "01-708-015",
    "DSSEQ": 1,
    "DSTERM": "INFORMED CONSENT OBTAINED",
    "DSDECOD": "INFORMED CONSENT OBTAINED",
    "DSCAT": "PROTOCOL MILESTONE",
    "DSSCAT": "",
    "DSSTDTC": "2013-09-16"
  },
  {
    "STUDYID": "CDISCPILOT01",
    "DOMAIN": "DS",
    "USUBJID": "01-708-015",
    "DSSEQ": 2,
    "DSTERM": "RANDOMIZED",
    "DSDECOD": "RANDOMIZED",
    "DSCAT": "PROTOCOL MILESTONE",
    "DSSCAT": "",
    "DSSTDTC": "2013-10-05",
    "DSDY": 1
  },
  {
    "STUDYID": "CDISCPILOT01",
    "DOMAIN": "DS",
    "USUBJID": "01-708-015",
    "DSSEQ": 3,
    "DSTERM": "COMPLETED TREATMENT",
    "DSDECOD": "COMPLETED",
    "DSCAT": "DISPOSITION EVENT",
    "DSSCAT": "TREATMENT",
    "DSSTDTC": "2014-03-22",
    "DSDY": 169
  },
  {
    "STUDYID": "CDISCPILOT01",
    "DOMAIN": "DS",
    "USUBJID": "01-708-015",
    "DSSEQ": 4,
    "DSTERM": "COMPLETED STUDY",
    "DSDECOD": "COMPLETED",
    "DSCAT": "DISPOSITION EVENT",
    "DSSCAT": "STUDY",
    "DSSTDTC": "2014-04-05",
    "DSDY": 183
  },
  {
    "STUDYID": "CDISCPILOT01",
    "DOMAIN": "DS",
    "USUBJID": "01-708-016",
    "DSSEQ": 1,
    "DSTERM": "INFORMED CONSENT OBTAINED",
    "DSDECOD": "INFORMED CONSENT OBTAINED",
    "DSCAT": "PROTOCOL MILESTONE",
    "DSSCAT": "",
    "DSSTDTC": "2013-01-27"
  },
  {
    "STUDYID": "CDISCPILOT01",
    "DOMAIN": "DS",
    "USUBJID": "01-708-016",
    "DSSEQ": 2,
    "DSTERM": "RANDOMIZED",
    "DSDECOD": "RANDOMIZED",
    "DSCAT": "PROTOCOL MILESTONE",
    "DSSCAT": "",
    "DSSTDTC": "2013-02-07",
    "DSDY": 1
  },
  {
    "STUDYID": "CDISCPILOT01",
    "DOMAIN": "DS",
    "USUBJID": "01-708-016",
    "DSSEQ": 3,
    "DSTERM": "ADVERSE EVENT",
    "DSDECOD": "ADVERSE EVENT",
    "DSCAT": "DISPOSITION EVENT",
    "DSSCAT": "TREATMENT",
    "DSSTDTC": "2013-03-07",
    "DSDY": 29
  },
  {
    "STUDYID": "CDISCPILOT01",
    "DOMAIN": "DS",
    "USUBJID": "01-708-016",
    "DSSEQ": 4,
    "DSTERM": "ADVERSE EVENT",
    "DSDECOD": "ADVERSE EVENT",
    "DSCAT": "DISPOSITION EVENT",
    "DSSCAT": "STUDY",
    "DSSTDTC": "2013-03-20",
    "DSDY": 42
  },
  {
    "STUDYID": "CDISCPILOT01",
    "DOMAIN": "DS",
    "USUBJID": "01-708-017",
    "DSSEQ": 1,
    "DSTERM": "INFORMED CONSENT OBTAINED",
    "DSDECOD": "INFORMED CONSENT OBTAINED",
    "DSCAT": "PROTOCOL MILESTONE",
    "DSSCAT": "",
    "DSSTDTC": "2013-09-20"
  },
  {
    "STUDYID": "CDISCPILOT01",
    "DOMAIN": "DS",
    "USUBJID": "01-708-017",
    "DSSEQ": 2,
    "DSTERM": "RANDOMIZED",
    "DSDECOD": "RANDOMIZED",
    "DSCAT": "PROTOCOL MILESTONE",
    "DSSCAT": "",
    "DSSTDTC": "2013-10-10",
    "DSDY": 1
  },
  {
    "STUDYID": "CDISCPILOT01",
    "DOMAIN": "DS",
    "USUBJID": "01-708-017",
    "DSSEQ": 3,
    "DSTERM": "ADVERSE EVENT",
    "DSDECOD": "ADVERSE EVENT",
    "DSCAT": "DISPOSITION EVENT",
    "DSSCAT": "TREATMENT",
    "DSSTDTC": "2013-12-19",
    "DSDY": 71
  },
  {
    "STUDYID": "CDISCPILOT01",
    "DOMAIN": "DS",
    "USUBJID": "01-708-017",
    "DSSEQ": 4,
    "DSTERM": "ADVERSE EVENT",
    "DSDECOD": "ADVERSE EVENT",
    "DSCAT": "DISPOSITION EVENT",
    "DSSCAT": "STUDY",
    "DSSTDTC": "2014-01-02",
    "DSDY": 85
  },
  {
    "STUDYID": "CDISCPILOT01",
    "DOMAIN": "DS",
    "USUBJID": "01-708-018",
    "DSSEQ": 1,
    "DSTERM": "INFORMED CONSENT OBTAINED",
    "DSDECOD": "INFORMED CONSENT OBTAINED",
    "DSCAT": "PROTOCOL MILESTONE",
    "DSSCAT": "",
    "DSSTDTC": "2013-08-31"
  },
  {
    "STUDYID": "CDISCPILOT01",
    "DOMAIN": "DS",
    "USUBJID": "01-708-018",
    "DSSEQ": 2,
    "DSTERM": "RANDOMIZED",
    "DSDECOD": "RANDOMIZED",
    "DSCAT": "PROTOCOL MILESTONE",
    "DSSCAT": "",
    "DSSTDTC": "2013-09-18",
    "DSDY": 1
  },
  {
    "STUDYID": "CDISCPILOT01",
    "DOMAIN": "DS",
    "USUBJID": "01-708-018",
    "DSSEQ": 3,
    "DSTERM": "WITHDREW CONSENT",
    "DSDECOD": "WITHDREW CONSENT",
    "DSCAT": "DISPOSITION EVENT",
    "DSSCAT": "TREATMENT",
    "DSSTDTC": "2013-10-02",
    "DSDY": 15
  },
  {
    "STUDYID": "CDISCPILOT01",
    "DOMAIN": "DS",
    "USUBJID": "01-708-018",
    "DSSEQ": 4,
    "DSTERM": "WITHDREW CONSENT",
    "DSDECOD": "WITHDREW CONSENT",
    "DSCAT": "DISPOSITION EVENT",
    "DSSCAT": "STUDY",
    "DSSTDTC": "2013-10-07",
    "DSDY": 20
  },
  {
    "STUDYID": "CDISCPILOT01",
    "DOMAIN": "DS",
    "USUBJID": "01-708-019",
    "DSSEQ": 1,
    "DSTERM": "INFORMED CONSENT OBTAINED",
    "DSDECOD": "INFORMED CONSENT OBTAINED",
    "DSCAT": "PROTOCOL MILESTONE",
    "DSSCAT": "",
    "DSSTDTC": "2013-08-14"
  },
  {
    "STUDYID": "CDISCPILOT01",
    "DOMAIN": "DS",
    "USUBJID": "01-708-019",
    "DSSEQ": 2,
    "DSTERM": "RANDOMIZED",
    "DSDECOD": "RANDOMIZED",
    "DSCAT": "PROTOCOL MILESTONE",
    "DSSCAT": "",
    "DSSTDTC": "2013-08-30",
    "DSDY": 1
  },
  {
    "STUDYID": "CDISCPILOT01",
    "DOMAIN": "DS",
    "USUBJID": "01-708-019",
    "DSSEQ": 3,
    "DSTERM": "COMPLETED TREATMENT",
    "DSDECOD": "COMPLETED",
    "DSCAT": "DISPOSITION EVENT",
    "DSSCAT": "TREATMENT",
    "DSSTDTC": "2014-02-14",
    "DSDY": 169
  },
  {
    "STUDYID": "CDISCPILOT01",
    "DOMAIN": "DS",
    "USUBJID": "01-708-019",
    "DSSEQ": 4,
    "DSTERM": "LOST TO FOLLOW-UP",
    "DSDECOD": "LOST TO FOLLOW-UP",
    "DSCAT": "DISPOSITION EVENT",
    "DSSCAT": "STUDY",
    "DSSTDTC": "2014-02-21",
    "DSDY": 176
  },
  {
    "STUDYID": "CDISCPILOT01",
    "DOMAIN": "DS",
    "USUBJID": "01-708-020",
    "DSSEQ": 1,
    "DSTERM": "INFORMED CONSENT OBTAINED",
    "DSDECOD": "INFORMED CONSENT OBTAINED",
    "DSCAT": "PROTOCOL MILESTONE",
    "DSSCAT": "",
    "DSSTDTC": "2013-07-08"
  },
  {
    "STUDYID": "CDISCPILOT01",
    "DOMAIN": "DS",
    "USUBJID": "01-708-020",
    "DSSEQ": 2,
    "DSTERM": "RANDOMIZED",
    "DSDECOD": "RANDOMIZED",
    "DSCAT": "PROTOCOL MILESTONE",
    "DSSCAT": "",
    "DSSTDTC": "2013-07-25",
    "DSDY": 1
  },
  {
    "STUDYID": "CDISCPILOT01",
    "DOMAIN": "DS",
    "USUBJID": "01-708-020",
    "DSSEQ": 3,
    "DSTERM": "COMPLETED TREATMENT",
    "DSDECOD": "COMPLETED",
    "DSCAT": "DISPOSITION EVENT",
    "DSSCAT": "TREATMENT",
    "DSSTDTC": "2014-01-09",
    "DSDY": 169
  },
  {
    "STUDYID": "CDISCPILOT01",
    "DOMAIN": "DS",
    "USUBJID": "01-708-020",
    "DSSEQ": 4,
    "DSTERM": "COMPLETED STUDY",
    "DSDECOD": "COMPLETED",
    "DSCAT": "DISPOSITION EVENT",
    "DSSCAT": "STUDY",
    "DSSTDTC": "2014-01-23",
    "DSDY": 183
  },
  {
    "STUDYID": "CDISCPILOT01",
    "DOMAIN": "DS",
    "USUBJID": "01-709-001",
    "DSSEQ": 1,
    "DSTERM": "INFORMED CONSENT OBTAINED",
    "DSDECOD": "INFORMED CONSENT OBTAINED",
    "DSCAT": "PROTOCOL MILESTONE",
    "DSSCAT": "",
    "DSSTDTC": "2013-12-12"
  },
  {
    "STUDYID": "CDISCPILOT01",
    "DOMAIN": "DS",
    "USUBJID": "01-709-001",
    "DSSEQ": 2,
    "DSTERM": "RANDOMIZED",
    "DSDECOD": "RANDOMIZED",
    "DSCAT": "PROTOCOL MILESTONE",
    "DSSCAT": "",
    "DSSTDTC": "2013-12-22",
    "DSDY": 1
  },
  {
    "STUDYID": "CDISCPILOT01",
    "DOMAIN": "DS",
    "USUBJID": "01-709-001",
    "DSSEQ": 3,
    "DSTERM": "ADVERSE EVENT",
    "DSDECOD": "ADVERSE EVENT",
    "DSCAT": "DISPOSITION EVENT",
    "DSSCAT": "TREATMENT",
    "DSSTDTC": "2014-03-02",
    "DSDY": 71
  },
  {
    "STUDYID": "CDISCPILOT01",
    "DOMAIN": "DS",
    "USUBJID": "01-709-001",
    "DSSEQ": 4,
    "DSTERM": "ADVERSE EVENT",
    "DSDECOD": "ADVERSE EVENT",
    "DSCAT": "DISPOSITION EVENT",
    "DSSCAT": "STUDY",
    "DSSTDTC": "2014-03-09",
    "DSDY": 78
  },
  {
    "STUDYID": "CDISCPILOT01",
    "DOMAIN": "DS",
    "USUBJID": "01-709-002",
    "DSSEQ": 1,
    "DSTERM": "INFORMED CONSENT OBTAINED",
    "DSDECOD": "INFORMED CONSENT OBTAINED",
    "DSCAT": "PROTOCOL MILESTONE",
    "DSSCAT": "",
    "DSSTDTC": "2013-02-08"
  },
  {
    "STUDYID": "CDISCPILOT01",
    "DOMAIN": "DS",
    "USUBJID": "01-709-002",
    "DSSEQ": 2,
    "DSTERM": "RANDOMIZED",
    "DSDECOD": "RANDOMIZED",
    "DSCAT": "PROTOCOL MILESTONE",
    "DSSCAT": "",
    "DSSTDTC": "2013-02-22",
    "DSDY": 1
  },
  {
    "STUDYID": "CDISCPILOT01",
    "DOMAIN": "DS",
    "USUBJID": "01-709-002",
    "DSSEQ": 3,
    "DSTERM": "COMPLETED TREATMENT",
    "DSDECOD": "COMPLETED",
    "DSCAT": "DISPOSITION EVENT",
    "DSSCAT": "TREATMENT",
    "DSSTDTC": "2013-08-09",
    "DSDY": 169
  },
  {
    "STUDYID": "CDISCPILOT01",
    "DOMAIN": "DS",
    "USUBJID": "01-709-002",
    "DSSEQ": 4,
    "DSTERM": "COMPLETED STUDY",
    "DSDECOD": "COMPLETED",
    "DSCAT": "DISPOSITION EVENT",
    "DSSCAT": "STUDY",
    "DSSTDTC": "2013-08-23",
    "DSDY": 183
  },
  {
    "STUDYID": "CDISCPILOT01",
    "DOMAIN": "DS",
    "USUBJID": "01-709-003",
    "DSSEQ": 1,
    "DSTERM": "INFORMED CONSENT OBTAINED",
    "DSDECOD": "INFORMED CONSENT OBTAINED",
    "DSCAT": "PROTOCOL MILESTONE",
    "DSSCAT": "",
    "DSSTDTC": "2013-10-12"
  },
  {
    "STUDYID": "CDISCPILOT01",
    "DOMAIN": "DS",
    "USUBJID": "01-709-003",
    "DSSEQ": 2,
    "DSTERM": "RANDOMIZED",
    "DSDECOD": "RANDOMIZED",
    "DSCAT": "PROTOCOL MILESTONE",
    "DSSCAT": "",
    "DSSTDTC": "2013-10-20",
    "DSDY": 1
  },
  {
    "STUDYID": "CDISCPILOT01",
    "DOMAIN": "DS",
    "USUBJID": "01-709-003",
    "DSSEQ": 3,
    "DSTERM": "COMPLETED TREATMENT",
    "DSDECOD": "COMPLETED",
    "DSCAT": "DISPOSITION EVENT",
    "DSSCAT": "TREATMENT",
    "DSSTDTC": "2014-04-06",
    "DSDY": 169
  },
  {
    "STUDYID": "CDISCPILOT01",
    "DOMAIN": "DS",
    "USUBJID": "01-709-003",
    "DSSEQ": 4,
    "DSTERM": "COMPLETED STUDY",
    "DSDECOD": "COMPLETED",
    "DSCAT": "DISPOSITION EVENT",
    "DSSCAT": "STUDY",
    "DSSTDTC": "2014-04-20",
    "DSDY": 183
  },
  {
    "STUDYID": "CDISCPILOT01",
    "DOMAIN": "DS",
    "USUBJID": "01-709-004",
    "DSSEQ": 1,
    "DSTERM": "INFORMED CONSENT OBTAINED",
    "DSDECOD": "INFORMED CONSENT OBTAINED",
    "DSCAT": "PROTOCOL MILESTONE",
    "DSSCAT": "",
    "DSSTDTC": "2013-09-28"
  },
  {
    "STUDYID": "CDISCPILOT01",
    "DOMAIN": "DS",
    "USUBJID": "01-709-004",
    "DSSEQ": 2,
    "DSTERM": "RANDOMIZED",
    "DSDECOD": "RANDOMIZED",
    "DSCAT": "PROTOCOL MILESTONE",
    "DSSCAT": "",
    "DSSTDTC": "2013-10-14",
    "DSDY": 1
  },
  {
    "STUDYID": "CDISCPILOT01",
    "DOMAIN": "DS",
    "USUBJID": "01-709-004",
    "DSSEQ": 3,
    "DSTERM": "COMPLETED TREATMENT",
    "DSDECOD": "COMPLETED",
    "DSCAT": "DISPOSITION EVENT",
    "DSSCAT": "TREATMENT",
    "DSSTDTC": "2014-03-31",
    "DSDY": 169
  },
  {
    "STUDYID": "CDISCPILOT01",
    "DOMAIN": "DS",
    "USUBJID": "01-709-004",
    "DSSEQ": 4,
    "DSTERM": "COMPLETED STUDY",
    "DSDECOD": "COMPLETED",
    "DSCAT": "DISPOSITION EVENT",
    "DSSCAT": "STUDY",
    "DSSTDTC": "2014-04-14",
    "DSDY": 183
  },
  {
    "STUDYID": "CDISCPILOT01",
    "DOMAIN": "DS",
    "USUBJID": "01-709-005",
    "DSSEQ": 1,
    "DSTERM": "INFORMED CONSENT OBTAINED",
    "DSDECOD": "INFORMED CONSENT OBTAINED",
    "DSCAT": "PROTOCOL MILESTONE",
    "DSSCAT": "",
    "DSSTDTC": "2013-03-06"
  },
  {
    "STUDYID": "CDISCPILOT01",
    "DOMAIN": "DS",
    "USUBJID": "01-709-005",
    "DSSEQ": 2,
    "DSTERM": "RANDOMIZED",
    "DSDECOD": "RANDOMIZED",
    "DSCAT": "PROTOCOL MILESTONE",
    "DSSCAT": "",
    "DSSTDTC": "2013-03-13",
    "DSDY": 1
  },
  {
    "STUDYID": "CDISCPILOT01",
    "DOMAIN": "DS",
    "USUBJID": "01-709-005",
    "DSSEQ": 3,
    "DSTERM": "ADVERSE EVENT",
    "DSDECOD": "ADVERSE EVENT",
    "DSCAT": "DISPOSITION EVENT",
    "DSSCAT": "TREATMENT",
    "DSSTDTC": "2013-04-17",
    "DSDY": 36
  },
  {
    "STUDYID": "CDISCPILOT01",
    "DOMAIN": "DS",
    "USUBJID": "01-709-005",
    "DSSEQ": 4,
    "DSTERM": "ADVERSE EVENT",
    "DSDECOD": "ADVERSE EVENT",
    "DSCAT": "DISPOSITION EVENT",
    "DSSCAT": "STUDY",
    "DSSTDTC": "2013-04-18",
    "DSDY": 37
  },
  {
    "STUDYID": "CDISCPILOT01",
    "DOMAIN": "DS",
    "USUBJID": "01-709-006",
    "DSSEQ": 1,
    "DSTERM": "INFORMED CONSENT OBTAINED",
    "DSDECOD": "INFORMED CONSENT OBTAINED",
    "DSCAT": "PROTOCOL MILESTONE",
    "DSSCAT": "",
    "DSSTDTC": "2013-03-29"
  },
  {
    "STUDYID": "CDISCPILOT01",
    "DOMAIN": "DS",
    "USUBJID": "01-709-006",
    "DSSEQ": 2,
    "DSTERM": "RANDOMIZED",
    "DSDECOD": "RANDOMIZED",
    "DSCAT": "PROTOCOL MILESTONE",
    "DSSCAT": "",
    "DSSTDTC": "2013-04-09",
    "DSDY": 1
  },
  {
    "STUDYID": "CDISCPILOT01",
    "DOMAIN": "DS",
    "USUBJID": "01-709-006",
    "DSSEQ": 3,
    "DSTERM": "COMPLETED TREATMENT",
    "DSDECOD": "COMPLETED",
    "DSCAT": "DISPOSITION EVENT",
    "DSSCAT": "TREATMENT",
    "DSSTDTC": "2013-09-24",
    "DSDY": 169
  },
  {
    "STUDYID": "CDISCPILOT01",
    "DOMAIN": "DS",
    "USUBJID": "01-709-006",
    "DSSEQ": 4,
    "DSTERM": "COMPLETED STUDY",
    "DSDECOD": "COMPLETED",
    "DSCAT": "DISPOSITION EVENT",
    "DSSCAT": "STUDY",
    "DSSTDTC": "2013-10-08",
    "DSDY": 183
  },
  {
    "STUDYID": "CDISCPILOT01",
    "DOMAIN": "DS",
    "USUBJID": "01-709-007",
    "DSSEQ": 1,
    "DSTERM": "INFORMED CONSENT OBTAINED",
    "DSDECOD": "INFORMED CONSENT OBTAINED",
    "DSCAT": "PROTOCOL MILESTONE",
    "DSSCAT": "",
    "DSSTDTC": "2013-01-22"
  },
  {
    "STUDYID": "CDISCPILOT01",
    "DOMAIN": "DS",
    "USUBJID": "01-709-007",
    "DSSEQ": 2,
    "DSTERM": "RANDOMIZED",
    "DSDECOD": "RANDOMIZED",
    "DSCAT": "PROTOCOL MILESTONE",
    "DSSCAT": "",
    "DSSTDTC": "2013-02-03",
    "DSDY": 1
  },
  {
    "STUDYID": "CDISCPILOT01",
    "DOMAIN": "DS",
    "USUBJID": "01-709-007",
    "DSSEQ": 3,
    "DSTERM": "PROTOCOL VIOLATION",
    "DSDECOD": "PROTOCOL VIOLATION",
    "DSCAT": "DISPOSITION EVENT",
    "DSSCAT": "TREATMENT",
    "DSSTDTC": "2013-02-10",
    "DSDY": 8
  },
  {
    "STUDYID": "CDISCPILOT01",
    "DOMAIN": "DS",
    "USUBJID": "01-709-007",
    "DSSEQ": 4,
    "DSTERM": "PROTOCOL VIOLATION",
    "DSDECOD": "PROTOCOL VIOLATION",
    "DSCAT": "DISPOSITION EVENT",
    "DSSCAT": "STUDY",
    "DSSTDTC": "2013-02-16",
    "DSDY": 14
  },
  {
    "STUDYID": "CDISCPILOT01",
    "DOMAIN": "DS",
    "USUBJID": "01-709-008",
    "DSSEQ": 1,
    "DSTERM": "INFORMED CONSENT OBTAINED",
    "DSDECOD": "INFORMED CONSENT OBTAINED",
    "DSCAT": "PROTOCOL MILESTONE",
    "DSSCAT": "",
    "DSSTDTC": "2013-05-12"
  },
  {
    "STUDYID": "CDISCPILOT01",
    "DOMAIN": "DS",
    "USUBJID": "01-709-008",
    "DSSEQ": 2,
    "DSTERM": "RANDOMIZED",
    "DSDECOD": "RANDOMIZED",
    "DSCAT": "PROTOCOL MILESTONE",
    "DSSCAT": "",
    "DSSTDTC": "2013-06-02",
    "DSDY": 1
  },
  {
    "STUDYID": "CDISCPILOT01",
    "DOMAIN": "DS",
    "USUBJID": "01-709-008",
    "DSSEQ": 3,
    "DSTERM": "WITHDREW CONSENT",
    "DSDECOD": "WITHDREW CONSENT",
    "DSCAT": "DISPOSITION EVENT",
    "DSSCAT": "TREATMENT",
    "DSSTDTC": "2013-11-17",
    "DSDY": 169
  },
  {
    "STUDYID": "CDISCPILOT01",
    "DOMAIN": "DS",
    "USUBJID": "01-709-008",
    "DSSEQ": 4,
    "DSTERM": "WITHDREW CONSENT",
    "DSDECOD": "WITHDREW CONSENT",
    "DSCAT": "DISPOSITION EVENT",
    "DSSCAT": "STUDY",
    "DSSTDTC": "2013-11-27",
    "DSDY": 179
  },
  {
    "STUDYID": "CDISCPILOT01",
    "DOMAIN": "DS",
    "USUBJID": "01-709-009",
    "DSSEQ": 1,
    "DSTERM": "INFORMED CONSENT OBTAINED",
    "DSDECOD": "INFORMED CONSENT OBTAINED",
    "DSCAT": "PROTOCOL MILESTONE",
    "DSSCAT": "",
    "DSSTDTC": "2013-10-18"
  },
  {
    "STUDYID": "CDISCPILOT01",
    "DOMAIN": "DS",
    "USUBJID": "01-709-009",
    "DSSEQ": 2,
    "DSTERM": "RANDOMIZED",
    "DSDECOD": "RANDOMIZED",
    "DSCAT": "PROTOCOL MILESTONE",
    "DSSCAT": "",
    "DSSTDTC": "2013-10-29",
    "DSDY": 1
  },
  {
    "STUDYID": "CDISCPILOT01",
    "DOMAIN": "DS",
    "USUBJID": "01-709-009",
    "DSSEQ": 3,
    "DSTERM": "ADVERSE EVENT",
    "DSDECOD": "ADVERSE EVENT",
    "DSCAT": "DISPOSITION EVENT",
    "DSSCAT": "TREATMENT",
    "DSSTDTC": "2013-12-03",
    "DSDY": 36
  },
  {
    "STUDYID": "CDISCPILOT01",
    "DOMAIN": "DS",
    "USUBJID": "01-709-009",
    "DSSEQ": 4,
    "DSTERM": "ADVERSE EVENT",
    "DSDECOD": "ADVERSE EVENT",
    "DSCAT": "DISPOSITION EVENT",
    "DSSCAT": "STUDY",
    "DSSTDTC": "2013-12-11",
    "DSDY": 44
  },
  {
    "STUDYID": "CDISCPILOT01",
    "DOMAIN": "DS",
    "USUBJID": "01-709-010",
    "DSSEQ": 1,
    "DSTERM": "INFORMED CONSENT OBTAINED",
    "DSDECOD": "INFORMED CONSENT OBTAINED",
    "DSCAT": "PROTOCOL MILESTONE",
    "DSSCAT": "",
    "DSSTDTC": "2013-10-31"
  },
  {
    "STUDYID": "CDISCPILOT01",
    "DOMAIN": "DS",
    "USUBJID": "01-709-010",
    "DSSEQ": 2,
    "DSTERM": "RANDOMIZED",
    "DSDECOD": "RANDOMIZED",
    "DSCAT": "PROTOCOL MILESTONE",
    "DSSCAT": "",
    "DSSTDTC": "2013-11-19",
    "DSDY": 1
  },
  {
    "STUDYID": "CDISCPILOT01",
    "DOMAIN": "DS",
    "USUBJID": "01-709-010",
    "DSSEQ": 3,
    "DSTERM": "COMPLETED TREATMENT",
    "DSDECOD": "COMPLETED",
    "DSCAT": "DISPOSITION EVENT",
    "DSSCAT": "TREATMENT",
    "DSSTDTC": "2014-05-06",
    "DSDY": 169
  },
  {
    "STUDYID": "CDISCPILOT01",
    "DOMAIN": "DS",
    "USUBJID": "01-709-010",
    "DSSEQ": 4,
    "DSTERM": "COMPLETED STUDY",
    "DSDECOD": "COMPLETED",
    "DSCAT": "DISPOSITION EVENT",
    "DSSCAT": "STUDY",
    "DSSTDTC": "2014-05-20",
    "DSDY": 183
  },
  {
    "STUDYID": "CDISCPILOT01",
    "DOMAIN": "DS",
    "USUBJID": "01-709-011",
    "DSSEQ": 1,
    "DSTERM": "INFORMED CONSENT OBTAINED",
    "DSDECOD": "INFORMED CONSENT OBTAINED",
    "DSCAT": "PROTOCOL MILESTONE",
    "DSSCAT": "",
    "DSSTDTC": "2013-11-19"
  },
  {
    "STUDYID": "CDISCPILOT01",
    "DOMAIN": "DS",
    "USUBJID": "01-709-011",
    "DSSEQ": 2,
    "DSTERM": "RANDOMIZED",
    "DSDECOD": "RANDOMIZED",
    "DSCAT": "PROTOCOL MILESTONE",
    "DSSCAT": "",
    "DSSTDTC": "2013-12-09",
    "DSDY": 1
  },
  {
    "STUDYID": "CDISCPILOT01",
    "DOMAIN": "DS",
    "USUBJID": "01-709-011",
    "DSSEQ": 3,
    "DSTERM": "ADVERSE EVENT",
    "DSDECOD": "ADVERSE EVENT",
    "DSCAT": "DISPOSITION EVENT",
    "DSSCAT": "TREATMENT",
    "DSSTDTC": "2014-02-17",
    "DSDY": 71
  },
  {
    "STUDYID": "CDISCPILOT01",
    "DOMAIN": "DS",
    "USUBJID": "01-709-011",
    "DSSEQ": 4,
    "DSTERM": "ADVERSE EVENT",
    "DSDECOD": "ADVERSE EVENT",
    "DSCAT": "DISPOSITION EVENT",
    "DSSCAT": "STUDY",
    "DSSTDTC": "2014-02-21",
    "DSDY": 75
  },
  {
    "STUDYID": "CDISCPILOT01",
    "DOMAIN": "DS",
    "USUBJID": "01-709-012",
    "DSSEQ": 1,
    "DSTERM": "INFORMED CONSENT OBTAINED",
    "DSDECOD": "INFORMED CONSENT OBTAINED",
    "DSCAT": "PROTOCOL MILESTONE",
    "DSSCAT": "",
    "DSSTDTC": "2013-06-10"
  },
  {
    "STUDYID": "CDISCPILOT01",
    "DOMAIN": "DS",
    "USUBJID": "01-709-012",
    "DSSEQ": 2,
    "DSTERM": "RANDOMIZED",
    "DSDECOD": "RANDOMIZED",
    "DSCAT": "PROTOCOL MILESTONE",
    "DSSCAT": "",
    "DSSTDTC": "2013-06-30",
    "DSDY": 1
  },
  {
    "STUDYID": "CDISCPILOT01",
    "DOMAIN": "DS",
    "USUBJID": "01-709-012",
    "DSSEQ": 3,
    "DSTERM": "ADVERSE EVENT",
    "DSDECOD": "ADVERSE EVENT",
    "DSCAT": "DISPOSITION EVENT",
    "DSSCAT": "TREATMENT",
    "DSSTDTC": "2013-08-11",
    "DSDY": 43
  },
  {
    "STUDYID": "CDISCPILOT01",
    "DOMAIN": "DS",
    "USUBJID": "01-709-012",
    "DSSEQ": 4,
    "DSTERM": "ADVERSE EVENT",
    "DSDECOD": "ADVERSE EVENT",
    "DSCAT": "DISPOSITION EVENT",
    "DSSCAT": "STUDY",
    "DSSTDTC": "2013-08-11",
    "DSDY": 43
  },
  {
    "STUDYID": "CDISCPILOT01",
    "DOMAIN": "DS",
    "USUBJID": "01-709-013",
    "DSSEQ": 1,
    "DSTERM": "INFORMED CONSENT OBTAINED",
    "DSDECOD": "INFORMED CONSENT OBTAINED",
    "DSCAT": "PROTOCOL MILESTONE",
    "DSSCAT": "",
    "DSSTDTC": "2013-03-29"
  },
  {
    "STUDYID": "CDISCPILOT01",
    "DOMAIN": "DS",
    "USUBJID": "01-709-013",
    "DSSEQ": 2,
    "DSTERM": "RANDOMIZED",
    "DSDECOD": "RANDOMIZED",
    "DSCAT": "PROTOCOL MILESTONE",
    "DSSCAT": "",
    "DSSTDTC": "2013-04-05",
    "DSDY": 1
  },
  {
    "STUDYID": "CDISCPILOT01",
    "DOMAIN": "DS",
    "USUBJID": "01-709-013",
    "DSSEQ": 3,
    "DSTERM": "COMPLETED TREATMENT",
    "DSDECOD": "COMPLETED",
    "DSCAT": "DISPOSITION EVENT",
    "DSSCAT": "TREATMENT",
    "DSSTDTC": "2013-09-20",
    "DSDY": 169
  },
  {
    "STUDYID": "CDISCPILOT01",
    "DOMAIN": "DS",
    "USUBJID": "01-709-013",
    "DSSEQ": 4,
    "DSTERM": "COMPLETED STUDY",
    "DSDECOD": "COMPLETED",
    "DSCAT": "DISPOSITION EVENT",
    "DSSCAT": "STUDY",
    "DSSTDTC": "2013-10-04",
    "DSDY": 183
  },
  {
    "STUDYID": "CDISCPILOT01",
    "DOMAIN": "DS",
    "USUBJID": "01-709-014",
    "DSSEQ": 1,
    "DSTERM": "INFORMED CONSENT OBTAINED",
    "DSDECOD": "INFORMED CONSENT OBTAINED",
    "DSCAT": "PROTOCOL MILESTONE",
    "DSSCAT": "",
    "DSSTDTC": "2013-12-20"
  },
  {
    "STUDYID": "CDISCPILOT01",
    "DOMAIN": "DS",
    "USUBJID": "01-709-014",
    "DSSEQ": 2,
    "DSTERM": "RANDOMIZED",
    "DSDECOD": "RANDOMIZED",
    "DSCAT": "PROTOCOL MILESTONE",
    "DSSCAT": "",
    "DSSTDTC": "2014-01-01",
    "DSDY": 1
  },
  {
    "STUDYID": "CDISCPILOT01",
    "DOMAIN": "DS",
    "USUBJID": "01-709-014",
    "DSSEQ": 3,
    "DSTERM": "WITHDREW CONSENT",
    "DSDECOD": "WITHDREW CONSENT",
    "DSCAT": "DISPOSITION EVENT",
    "DSSCAT": "TREATMENT",
    "DSSTDTC": "2014-01-08",
    "DSDY": 8
  },
  {
    "STUDYID": "CDISCPILOT01",
    "DOMAIN": "DS",
    "USUBJID": "01-709-014",
    "DSSEQ": 4,
    "DSTERM": "WITHDREW CONSENT",
    "DSDECOD": "WITHDREW CONSENT",
    "DSCAT": "DISPOSITION EVENT",
    "DSSCAT": "STUDY",
    "DSSTDTC": "2014-01-09",
    "DSDY": 9
  },
  {
    "STUDYID": "CDISCPILOT01",
    "DOMAIN": "DS",
    "USUBJID": "01-709-015",
    "DSSEQ": 1,
    "DSTERM": "INFORMED CONSENT OBTAINED",
    "DSDECOD": "INFORMED CONSENT OBTAINED",
    "DSCAT": "PROTOCOL MILESTONE",
    "DSSCAT": "",
    "DSSTDTC": "2013-04-23"
  },
  {
    "STUDYID": "CDISCPILOT01",
    "DOMAIN": "DS",
    "USUBJID": "01-709-015",
    "DSSEQ": 2,
    "DSTERM": "RANDOMIZED",
    "DSDECOD": "RANDOMIZED",
    "DSCAT": "PROTOCOL MILESTONE",
    "DSSCAT": "",
    "DSSTDTC": "2013-05-04",
    "DSDY": 1
  },
  {
    "STUDYID": "CDISCPILOT01",
    "DOMAIN": "DS",
    "USUBJID": "01-709-015",
    "DSSEQ": 3,
    "DSTERM": "COMPLETED TREATMENT",
    "DSDECOD": "COMPLETED",
    "DSCAT": "DISPOSITION EVENT",
    "DSSCAT": "TREATMENT",
    "DSSTDTC": "2013-10-19",
    "DSDY": 169
  },
  {
    "STUDYID": "CDISCPILOT01",
    "DOMAIN": "DS",
    "USUBJID": "01-709-015",
    "DSSEQ": 4,
    "DSTERM": "COMPLETED STUDY",
    "DSDECOD": "COMPLETED",
    "DSCAT": "DISPOSITION EVENT",
    "DSSCAT": "STUDY",
    "DSSTDTC": "2013-11-02",
    "DSDY": 183
  },
  {
    "STUDYID": "CDISCPILOT01",
    "DOMAIN": "DS",
    "USUBJID": "01-709-016",
    "DSSEQ": 1,
    "DSTERM": "INFORMED CONSENT OBTAINED",
    "DSDECOD": "INFORMED CONSENT OBTAINED",
    "DSCAT": "PROTOCOL MILESTONE",
    "DSSCAT": "",
    "DSSTDTC": "2013-03-23"
  },
  {
    "STUDYID": "CDISCPILOT01",
    "DOMAIN": "DS",
    "USUBJID": "01-709-016",
    "DSSEQ": 2,
    "DSTERM": "RANDOMIZED",
    "DSDECOD": "RANDOMIZED",
    "DSCAT": "PROTOCOL MILESTONE",
    "DSSCAT": "",
    "DSSTDTC": "2013-04-03",
    "DSDY": 1
  },
  {
    "STUDYID": "CDISCPILOT01",
    "DOMAIN": "DS",
    "USUBJID": "01-709-016",
    "DSSEQ": 3,
    "DSTERM": "ADVERSE EVENT",
    "DSDECOD": "ADVERSE EVENT",
    "DSCAT": "DISPOSITION EVENT",
    "DSSCAT": "TREATMENT",
    "DSSTDTC": "2013-07-24",
    "DSDY": 113
  },
  {
    "STUDYID": "CDISCPILOT01",
    "DOMAIN": "DS",
    "USUBJID": "01-709-016",
    "DSSEQ": 4,
    "DSTERM": "ADVERSE EVENT",
    "DSDECOD": "ADVERSE EVENT",
    "DSCAT": "DISPOSITION EVENT",
    "DSSCAT": "STUDY",
    "DSSTDTC": "2013-07-28",
    "DSDY": 117
  },
  {
    "STUDYID": "CDISCPILOT01",
    "DOMAIN": "DS",
    "USUBJID": "01-709-017",
    "DSSEQ": 1,
    "DSTERM": "INFORMED CONSENT OBTAINED",
    "DSDECOD": "INFORMED CONSENT OBTAINED",
    "DSCAT": "PROTOCOL MILESTONE",
    "DSSCAT": "",
    "DSSTDTC": "2012-12-14"
  },
  {
    "STUDYID": "CDISCPILOT01",
    "DOMAIN": "DS",
    "USUBJID": "01-709-017",
    "DSSEQ": 2,
    "DSTERM": "RANDOMIZED",
    "DSDECOD": "RANDOMIZED",
    "DSCAT": "PROTOCOL MILESTONE",
    "DSSCAT": "",
    "DSSTDTC": "2013-01-02",
    "DSDY": 1
  },
  {
    "STUDYID": "CDISCPILOT01",
    "DOMAIN": "DS",
    "USUBJID": "01-709-017",
    "DSSEQ": 3,
    "DSTERM": "COMPLETED TREATMENT",
    "DSDECOD": "COMPLETED",
    "DSCAT": "DISPOSITION EVENT",
    "DSSCAT": "TREATMENT",
    "DSSTDTC": "2013-06-19",
    "DSDY": 169
  },
  {
    "STUDYID": "CDISCPILOT01",
    "DOMAIN": "DS",
    "USUBJID": "01-709-017",
    "DSSEQ": 4,
    "DSTERM": "COMPLETED STUDY",
    "DSDECOD": "COMPLETED",
    "DSCAT": "DISPOSITION EVENT",
    "DSSCAT": "STUDY",
    "DSSTDTC": "2013-07-03",
    "DSDY": 183
  },
  {
    "STUDYID": "CDISCPILOT01",
    "DOMAIN": "DS",
    "USUBJID": "01-709-018",
    "DSSEQ": 1,
    "DSTERM": "INFORMED CONSENT OBTAINED",
    "DSDECOD": "INFORMED CONSENT OBTAINED",
    "DSCAT": "PROTOCOL MILESTONE",
    "DSSCAT": "",
    "DSSTDTC": "2013-01-15"
  },
  {
    "STUDYID": "CDISCPILOT01",
    "DOMAIN": "DS",
    "USUBJID": "01-709-018",
    "DSSEQ": 2,
    "DSTERM": "RANDOMIZED",
    "DSDECOD": "RANDOMIZED",
    "DSCAT": "PROTOCOL MILESTONE",
    "DSSCAT": "",
    "DSSTDTC": "2013-01-29",
    "DSDY": 1
  },
  {
    "STUDYID": "CDISCPILOT01",
    "DOMAIN": "DS",
    "USUBJID": "01-709-018",
    "DSSEQ": 3,
    "DSTERM": "COMPLETED TREATMENT",
    "DSDECOD": "COMPLETED",
    "DSCAT": "DISPOSITION EVENT",
    "DSSCAT": "TREATMENT",
    "DSSTDTC": "2013-07-16",
    "DSDY": 169
  },
  {
    "STUDYID": "CDISCPILOT01",
    "DOMAIN": "DS",
    "USUBJID": "01-709-018",
    "DSSEQ": 4,
    "DSTERM": "COMPLETED STUDY",
    "DSDECOD": "COMPLETED",
    "DSCAT": "DISPOSITION EVENT",
    "DSSCAT": "STUDY",
    "DSSTDTC": "2013-07-30",
    "DSDY": 183
  },
  {
    "STUDYID": "CDISCPILOT01",
    "DOMAIN": "DS",
    "USUBJID": "01-709-019",
    "DSSEQ": 1,
    "DSTERM": "INFORMED CONSENT OBTAINED",
    "DSDECOD": "INFORMED CONSENT OBTAINED",
    "DSCAT": "PROTOCOL MILESTONE",
    "DSSCAT": "",
    "DSSTDTC": "2013-10-28"
  },
  {
    "STUDYID": "CDISCPILOT01",
    "DOMAIN": "DS",
    "USUBJID": "01-709-019",
    "DSSEQ": 2,
    "DSTERM": "RANDOMIZED",
    "DSDECOD": "RANDOMIZED",
    "DSCAT": "PROTOCOL MILESTONE",
    "DSSCAT": "",
    "DSSTDTC": "2013-11-18",
    "DSDY": 1
  },
  {
    "STUDYID": "CDISCPILOT01",
    "DOMAIN": "DS",
    "USUBJID": "01-709-019",
    "DSSEQ": 3,
    "DSTERM": "ADVERSE EVENT",
    "DSDECOD": "ADVERSE EVENT",
    "DSCAT": "DISPOSITION EVENT",
    "DSSCAT": "TREATMENT",
    "DSSTDTC": "2014-02-10",
    "DSDY": 85
  },
  {
    "STUDYID": "CDISCPILOT01",
    "DOMAIN": "DS",
    "USUBJID": "01-709-019",
    "DSSEQ": 4,
    "DSTERM": "ADVERSE EVENT",
    "DSDECOD": "ADVERSE EVENT",
    "DSCAT": "DISPOSITION EVENT",
    "DSSCAT": "STUDY",
    "DSSTDTC": "2014-02-11",
    "DSDY": 86
  },
  {
    "STUDYID": "CDISCPILOT01",
    "DOMAIN": "DS",
    "USUBJID": "01-709-020",
    "DSSEQ": 1,
    "DSTERM": "INFORMED CONSENT OBTAINED",
    "DSDECOD": "INFORMED CONSENT OBTAINED",
    "DSCAT": "PROTOCOL MILESTONE",
    "DSSCAT": "",
    "DSSTDTC": "2013-09-30"
  },
  {
    "STUDYID": "CDISCPILOT01",
    "DOMAIN": "DS",
    "USUBJID": "01-709-020",
    "DSSEQ": 2,
    "DSTERM": "RANDOMIZED",
    "DSDECOD": "RANDOMIZED",
    "DSCAT": "PROTOCOL MILESTONE",
    "DSSCAT": "",
    "DSSTDTC": "2013-10-08",
    "DSDY": 1
  },
  {
    "STUDYID": "CDISCPILOT01",
    "DOMAIN": "DS",
    "USUBJID": "01-709-020",
    "DSSEQ": 3,
    "DSTERM": "WITHDREW CONSENT",
    "DSDECOD": "WITHDREW CONSENT",
    "DSCAT": "DISPOSITION EVENT",
    "DSSCAT": "TREATMENT",
    "DSSTDTC": "2013-12-03",
    "DSDY": 57
  },
  {
    "STUDYID": "CDISCPILOT01",
    "DOMAIN": "DS",
    "USUBJID": "01-709-020",
    "DSSEQ": 4,
    "DSTERM": "WITHDREW CONSENT",
    "DSDECOD": "WITHDREW CONSENT",
    "DSCAT": "DISPOSITION EVENT",
    "DSSCAT": "STUDY",
    "DSSTDTC": "2013-12-11",
    "DSDY": 65
  },
  {
    "STUDYID": "CDISCPILOT01",
    "DOMAIN": "DS",
    "USUBJID": "01-709-021",
    "DSSEQ": 1,
    "DSTERM": "INFORMED CONSENT OBTAINED",
    "DSDECOD": "INFORMED CONSENT OBTAINED",
    "DSCAT": "PROTOCOL MILESTONE",
    "DSSCAT": "",
    "DSSTDTC": "2013-03-21"
  },
  {
    "STUDYID": "CDISCPILOT01",
    "DOMAIN": "DS",
    "USUBJID": "01-709-021",
    "DSSEQ": 2,
    "DSTERM": "RANDOMIZED",
    "DSDECOD": "RANDOMIZED",
    "DSCAT": "PROTOCOL MILESTONE",
    "DSSCAT": "",
    "DSSTDTC": "2013-04-07",
    "DSDY": 1
  },
  {
    "STUDYID": "CDISCPILOT01",
    "DOMAIN": "DS",
    "USUBJID": "01-709-021",
    "DSSEQ": 3,
    "DSTERM": "WITHDREW CONSENT",
    "DSDECOD": "WITHDREW CONSENT",
    "DSCAT": "DISPOSITION EVENT",
    "DSSCAT": "TREATMENT",
    "DSSTDTC": "2013-04-14",
    "DSDY": 8
  },
  {
    "STUDYID": "CDISCPILOT01",
    "DOMAIN": "DS",
    "USUBJID": "01-709-021",
    "DSSEQ": 4,
    "DSTERM": "WITHDREW CONSENT",
    "DSDECOD": "WITHDREW CONSENT",
    "DSCAT": "DISPOSITION EVENT",
    "DSSCAT": "STUDY",
    "DSSTDTC": "2013-04-16",
    "DSDY": 10
  },
  {
    "STUDYID": "CDISCPILOT01",
    "DOMAIN": "DS",
    "USUBJID": "01-709-022",
    "DSSEQ": 1,
    "DSTERM": "INFORMED CONSENT OBTAINED",
    "DSDECOD": "INFORMED CONSENT OBTAINED",
    "DSCAT": "PROTOCOL MILESTONE",
    "DSSCAT": "",
    "DSSTDTC": "2013-05-08"
  },
  {
    "STUDYID": "CDISCPILOT01",
    "DOMAIN": "DS",
    "USUBJID": "01-709-022",
    "DSSEQ": 2,
    "DSTERM": "RANDOMIZED",
    "DSDECOD": "RANDOMIZED",
    "DSCAT": "PROTOCOL MILESTONE",
    "DSSCAT": "",
    "DSSTDTC": "2013-05-17",
    "DSDY": 1
  },
  {
    "STUDYID": "CDISCPILOT01",
    "DOMAIN": "DS",
    "USUBJID": "01-709-022",
    "DSSEQ": 3,
    "DSTERM": "ADVERSE EVENT",
    "DSDECOD": "ADVERSE EVENT",
    "DSCAT": "DISPOSITION EVENT",
    "DSSCAT": "TREATMENT",
    "DSSTDTC": "2013-07-12",
    "DSDY": 57
  },
  {
    "STUDYID": "CDISCPILOT01",
    "DOMAIN": "DS",
    "USUBJID": "01-709-022",
    "DSSEQ": 4,
    "DSTERM": "ADVERSE EVENT",
    "DSDECOD": "ADVERSE EVENT",
    "DSCAT": "DISPOSITION EVENT",
    "DSSCAT": "STUDY",
    "DSSTDTC": "2013-07-13",
    "DSDY": 58
  },
  {
    "STUDYID": "CDISCPILOT01",
    "DOMAIN": "DS",
    "USUBJID": "01-709-023",
    "DSSEQ": 1,
    "DSTERM": "INFORMED CONSENT OBTAINED",
    "DSDECOD": "INFORMED CONSENT OBTAINED",
    "DSCAT": "PROTOCOL MILESTONE",
    "DSSCAT": "",
    "DSSTDTC": "2013-06-16"
  },
  {
    "STUDYID": "CDISCPILOT01",
    "DOMAIN": "DS",
    "USUBJID": "01-709-023",
    "DSSEQ": 2,
    "DSTERM": "RANDOMIZED",
    "DSDECOD": "RANDOMIZED",
    "DSCAT": "PROTOCOL MILESTONE",
    "DSSCAT": "",
    "DSSTDTC": "2013-06-30",
    "DSDY": 1
  },
  {
    "STUDYID": "CDISCPILOT01",
    "DOMAIN": "DS",
    "USUBJID": "01-709-023",
    "DSSEQ": 3,
    "DSTERM": "ADVERSE EVENT",
    "DSDECOD": "ADVERSE EVENT",
    "DSCAT": "DISPOSITION EVENT",
    "DSSCAT": "TREATMENT",
    "DSSTDTC": "2013-10-27",
    "DSDY": 120
  },
  {
    "STUDYID": "CDISCPILOT01",
    "DOMAIN": "DS",
    "USUBJID": "01-709-023",
    "DSSEQ": 4,
    "DSTERM": "ADVERSE EVENT",
    "DSDECOD": "ADVERSE EVENT",
    "DSCAT": "DISPOSITION EVENT",
    "DSSCAT": "STUDY",
    "DSSTDTC": "2013-11-03",
    "DSDY": 127
  },
  {
    "STUDYID": "CDISCPILOT01",
    "DOMAIN": "DS",
    "USUBJID": "01-710-001",
    "DSSEQ": 1,
    "DSTERM": "INFORMED CONSENT OBTAINED",
    "DSDECOD": "INFORMED CONSENT OBTAINED",
    "DSCAT": "PROTOCOL MILESTONE",
    "DSSCAT": "",
    "DSSTDTC": "2013-03-20"
  },
  {
    "STUDYID": "CDISCPILOT01",
    "DOMAIN": "DS",
    "USUBJID": "01-710-001",
    "DSSEQ": 2,
    "DSTERM": "RANDOMIZED",
    "DSDECOD": "RANDOMIZED",
    "DSCAT": "PROTOCOL MILESTONE",
    "DSSCAT": "",
    "DSSTDTC": "2013-03-29",
    "DSDY": 1
  },
  {
    "STUDYID": "CDISCPILOT01",
    "DOMAIN": "DS",
    "USUBJID": "01-710-001",
    "DSSEQ": 3,
    "DSTERM": "COMPLETED TREATMENT",
    "DSDECOD": "COMPLETED",
    "DSCAT": "DISPOSITION EVENT",
    "DSSCAT": "TREATMENT",
    "DSSTDTC": "2013-09-13",
    "DSDY": 169
  },
  {
    "STUDYID": "CDISCPILOT01",
    "DOMAIN": "DS",
    "USUBJID": "01-710-001",
    "DSSEQ": 4,
    "DSTERM": "COMPLETED STUDY",
    "DSDECOD": "COMPLETED",
    "DSCAT": "DISPOSITION EVENT",
    "DSSCAT": "STUDY",
    "DSSTDTC": "2013-09-27",
    "DSDY": 183
  },
  {
    "STUDYID": "CDISCPILOT01",
    "DOMAIN": "DS",
    "USUBJID": "01-710-002",
    "DSSEQ": 1,
    "DSTERM": "INFORMED CONSENT OBTAINED",
    "DSDECOD": "INFORMED CONSENT OBTAINED",
    "DSCAT": "PROTOCOL MILESTONE",
    "DSSCAT": "",
    "DSSTDTC": "2013-06-11"
  },
  {
    "STUDYID": "CDISCPILOT01",
    "DOMAIN": "DS",
    "USUBJID": "01-710-002",
    "DSSEQ": 2,
    "DSTERM": "RANDOMIZED",
    "DSDECOD": "RANDOMIZED",
    "DSCAT": "PROTOCOL MILESTONE",
    "DSSCAT": "",
    "DSSTDTC": "2013-06-28",
    "DSDY": 1
  },
  {
    "STUDYID": "CDISCPILOT01",
    "DOMAIN": "DS",
    "USUBJID": "01-710-002",
    "DSSEQ": 3,
    "DSTERM": "LACK OF EFFICACY",
    "DSDECOD": "LACK OF EFFICACY",
    "DSCAT": "DISPOSITION EVENT",
    "DSSCAT": "TREATMENT",
    "DSSTDTC": "2013-12-13",
    "DSDY": 169
  },
  {
    "STUDYID": "CDISCPILOT01",
    "DOMAIN": "DS",
    "USUBJID": "01-710-002",
    "DSSEQ": 4,
    "DSTERM": "LACK OF EFFICACY",
    "DSDECOD": "LACK OF EFFICACY",
    "DSCAT": "DISPOSITION EVENT",
    "DSSCAT": "STUDY",
    "DSSTDTC": "2013-12-15",
    "DSDY": 171
  },
  {
    "STUDYID": "CDISCPILOT01",
    "DOMAIN": "DS",
    "USUBJID": "01-710-003",
    "DSSEQ": 1,
    "DSTERM": "INFORMED CONSENT OBTAINED",
    "DSDECOD": "INFORMED CONSENT OBTAINED",
    "DSCAT": "PROTOCOL MILESTONE",
    "DSSCAT": "",
    "DSSTDTC": "2013-11-15"
  },
  {
    "STUDYID": "CDISCPILOT01",
    "DOMAIN": "DS",
    "USUBJID": "01-710-003",
    "DSSEQ": 2,
    "DSTERM": "RANDOMIZED",
    "DSDECOD": "RANDOMIZED",
    "DSCAT": "PROTOCOL MILESTONE",
    "DSSCAT": "",
    "DSSTDTC": "2013-11-23",
    "DSDY": 1
  },
  {
    "STUDYID": "CDISCPILOT01",
    "DOMAIN": "DS",
    "USUBJID": "01-710-003",
    "DSSEQ": 3,
    "DSTERM": "COMPLETED TREATMENT",
    "DSDECOD": "COMPLETED",
    "DSCAT": "DISPOSITION EVENT",
    "DSSCAT": "TREATMENT",
    "DSSTDTC": "2014-05-10",
    "DSDY": 169
  },
  {
    "STUDYID": "CDISCPILOT01",
    "DOMAIN": "DS",
    "USUBJID": "01-710-003",
    "DSSEQ": 4,
    "DSTERM": "WITHDREW CONSENT",
    "DSDECOD": "WITHDREW CONSENT",
    "DSCAT": "DISPOSITION EVENT",
    "DSSCAT": "STUDY",
    "DSSTDTC": "2014-05-17",
    "DSDY": 176
  },
  {
    "STUDYID": "CDISCPILOT01",
    "DOMAIN": "DS",
    "USUBJID": "01-710-004",
    "DSSEQ": 1,
    "DSTERM": "INFORMED CONSENT OBTAINED",
    "DSDECOD": "INFORMED CONSENT OBTAINED",
    "DSCAT": "PROTOCOL MILESTONE",
    "DSSCAT": "",
    "DSSTDTC": "2013-03-31"
  },
  {
    "STUDYID": "CDISCPILOT01",
    "DOMAIN": "DS",
    "USUBJID": "01-710-004",
    "DSSEQ": 2,
    "DSTERM": "RANDOMIZED",
    "DSDECOD": "RANDOMIZED",
    "DSCAT": "PROTOCOL MILESTONE",
    "DSSCAT": "",
    "DSSTDTC": "2013-04-17",
    "DSDY": 1
  },
  {
    "STUDYID": "CDISCPILOT01",
    "DOMAIN": "DS",
    "USUBJID": "01-710-004",
    "DSSEQ": 3,
    "DSTERM": "COMPLETED TREATMENT",
    "DSDECOD": "COMPLETED",
    "DSCAT": "DISPOSITION EVENT",
    "DSSCAT": "TREATMENT",
    "DSSTDTC": "2013-10-02",
    "DSDY": 169
  },
  {
    "STUDYID": "CDISCPILOT01",
    "DOMAIN": "DS",
    "USUBJID": "01-710-004",
    "DSSEQ": 4,
    "DSTERM": "COMPLETED STUDY",
    "DSDECOD": "COMPLETED",
    "DSCAT": "DISPOSITION EVENT",
    "DSSCAT": "STUDY",
    "DSSTDTC": "2013-10-16",
    "DSDY": 183
  },
  {
    "STUDYID": "CDISCPILOT01",
    "DOMAIN": "DS",
    "USUBJID": "01-710-005",
    "DSSEQ": 1,
    "DSTERM": "INFORMED CONSENT OBTAINED",
    "DSDECOD": "INFORMED CONSENT OBTAINED",
    "DSCAT": "PROTOCOL MILESTONE",
    "DSSCAT": "",
    "DSSTDTC": "2013-01-06"
  },
  {
    "STUDYID": "CDISCPILOT01",
    "DOMAIN": "DS",
    "USUBJID": "01-710-005",
    "DSSEQ": 2,
    "DSTERM": "RANDOMIZED",
    "DSDECOD": "RANDOMIZED",
    "DSCAT": "PROTOCOL MILESTONE",
    "DSSCAT": "",
    "DSSTDTC": "2013-01-21",
    "DSDY": 1
  },
  {
    "STUDYID": "CDISCPILOT01",
    "DOMAIN": "DS",
    "USUBJID": "01-710-005",
    "DSSEQ": 3,
    "DSTERM": "PROTOCOL CRITERIA NOT MET",
    "DSDECOD": "PROTOCOL CRITERIA NOT MET",
    "DSCAT": "DISPOSITION EVENT",
    "DSSCAT": "TREATMENT",
    "DSSTDTC": "2013-03-04",
    "DSDY": 43
  },
  {
    "STUDYID": "CDISCPILOT01",
    "DOMAIN": "DS",
    "USUBJID": "01-710-005",
    "DSSEQ": 4,
    "DSTERM": "PROTOCOL CRITERIA NOT MET",
    "DSDECOD": "PROTOCOL CRITERIA NOT MET",
    "DSCAT": "DISPOSITION EVENT",
    "DSSCAT": "STUDY",
    "DSSTDTC": "2013-03-09",
    "DSDY": 48
  },
  {
    "STUDYID": "CDISCPILOT01",
    "DOMAIN": "DS",
    "USUBJID": "01-710-006",
    "DSSEQ": 1,
    "DSTERM": "INFORMED CONSENT OBTAINED",
    "DSDECOD": "INFORMED CONSENT OBTAINED",
    "DSCAT": "PROTOCOL MILESTONE",
    "DSSCAT": "",
    "DSSTDTC": "2013-04-13"
  },
  {
    "STUDYID": "CDISCPILOT01",
    "DOMAIN": "DS",
    "USUBJID": "01-710-006",
    "DSSEQ": 2,
    "DSTERM": "RANDOMIZED",
    "DSDECOD": "RANDOMIZED",
    "DSCAT": "PROTOCOL MILESTONE",
    "DSSCAT": "",
    "DSSTDTC": "2013-04-27",
    "DSDY": 1
  },
  {
    "STUDYID": "CDISCPILOT01",
    "DOMAIN": "DS",
    "USUBJID": "01-710-006",
    "DSSEQ": 3,
    "DSTERM": "ADVERSE EVENT",
    "DSDECOD": "ADVERSE EVENT",
    "DSCAT": "DISPOSITION EVENT",
    "DSSCAT": "TREATMENT",
    "DSSTDTC": "2013-08-17",
    "DSDY": 113
  },
  {
    "STUDYID": "CDISCPILOT01",
    "DOMAIN": "DS",
    "USUBJID": "01-710-006",
    "DSSEQ": 4,
    "DSTERM": "ADVERSE EVENT",
    "DSDECOD": "ADVERSE EVENT",
    "DSCAT": "DISPOSITION EVENT",
    "DSSCAT": "STUDY",
    "DSSTDTC": "2013-08-31",
    "DSDY": 127
  },
  {
    "STUDYID": "CDISCPILOT01",
    "DOMAIN": "DS",
    "USUBJID": "01-710-007",
    "DSSEQ": 1,
    "DSTERM": "INFORMED CONSENT OBTAINED",
    "DSDECOD": "INFORMED CONSENT OBTAINED",
    "DSCAT": "PROTOCOL MILESTONE",
    "DSSCAT": "",
    "DSSTDTC": "2013-04-18"
  },
  {
    "STUDYID": "CDISCPILOT01",
    "DOMAIN": "DS",
    "USUBJID": "01-710-007",
    "DSSEQ": 2,
    "DSTERM": "RANDOMIZED",
    "DSDECOD": "RANDOMIZED",
    "DSCAT": "PROTOCOL MILESTONE",
    "DSSCAT": "",
    "DSSTDTC": "2013-05-06",
    "DSDY": 1
  },
  {
    "STUDYID": "CDISCPILOT01",
    "DOMAIN": "DS",
    "USUBJID": "01-710-007",
    "DSSEQ": 3,
    "DSTERM": "COMPLETED TREATMENT",
    "DSDECOD": "COMPLETED",
    "DSCAT": "DISPOSITION EVENT",
    "DSSCAT": "TREATMENT",
    "DSSTDTC": "2013-10-21",
    "DSDY": 169
  },
  {
    "STUDYID": "CDISCPILOT01",
    "DOMAIN": "DS",
    "USUBJID": "01-710-007",
    "DSSEQ": 4,
    "DSTERM": "COMPLETED STUDY",
    "DSDECOD": "COMPLETED",
    "DSCAT": "DISPOSITION EVENT",
    "DSSCAT": "STUDY",
    "DSSTDTC": "2013-11-04",
    "DSDY": 183
  },
  {
    "STUDYID": "CDISCPILOT01",
    "DOMAIN": "DS",
    "USUBJID": "01-710-008",
    "DSSEQ": 1,
    "DSTERM": "INFORMED CONSENT OBTAINED",
    "DSDECOD": "INFORMED CONSENT OBTAINED",
    "DSCAT": "PROTOCOL MILESTONE",
    "DSSCAT": "",
    "DSSTDTC": "2013-10-13"
  },
  {
    "STUDYID": "CDISCPILOT01",
    "DOMAIN": "DS",
    "USUBJID": "01-710-008",
    "DSSEQ": 2,
    "DSTERM": "RANDOMIZED",
    "DSDECOD": "RANDOMIZED",
    "DSCAT": "PROTOCOL MILESTONE",
    "DSSCAT": "",
    "DSSTDTC": "2013-10-26",
    "DSDY": 1
  },
  {
    "STUDYID": "CDISCPILOT01",
    "DOMAIN": "DS",
    "USUBJID": "01-710-008",
    "DSSEQ": 3,
    "DSTERM": "WITHDREW CONSENT",
    "DSDECOD": "WITHDREW CONSENT",
    "DSCAT": "DISPOSITION EVENT",
    "DSSCAT": "TREATMENT",
    "DSSTDTC": "2014-04-05",
    "DSDY": 162
  },
  {
    "STUDYID": "CDISCPILOT01",
    "DOMAIN": "DS",
    "USUBJID": "01-710-008",
    "DSSEQ": 4,
    "DSTERM": "WITHDREW CONSENT",
    "DSDECOD": "WITHDREW CONSENT",
    "DSCAT": "DISPOSITION EVENT",
    "DSSCAT": "STUDY",
    "DSSTDTC": "2014-04-12",
    "DSDY": 169
  },
  {
    "STUDYID": "CDISCPILOT01",
    "DOMAIN": "DS",
    "USUBJID": "01-710-009",
    "DSSEQ": 1,
    "DSTERM": "INFORMED CONSENT OBTAINED",
    "DSDECOD": "INFORMED CONSENT OBTAINED",
    "DSCAT": "PROTOCOL MILESTONE",
    "DSSCAT": "",
    "DSSTDTC": "2013-10-03"
  },
  {
    "STUDYID": "CDISCPILOT01",
    "DOMAIN": "DS",
    "USUBJID": "01-710-009",
    "DSSEQ": 2,
    "DSTERM": "RANDOMIZED",
    "DSDECOD": "RANDOMIZED",
    "DSCAT": "PROTOCOL MILESTONE",
    "DSSCAT": "",
    "DSSTDTC": "2013-10-13",
    "DSDY": 1
  },
  {
    "STUDYID": "CDISCPILOT01",
    "DOMAIN": "DS",
    "USUBJID": "01-710-009",
    "DSSEQ": 3,
    "DSTERM": "ADVERSE EVENT",
    "DSDECOD": "ADVERSE EVENT",
    "DSCAT": "DISPOSITION EVENT",
    "DSSCAT": "TREATMENT",
    "DSSTDTC": "2013-12-08",
    "DSDY": 57
  },
  {
    "STUDYID": "CDISCPILOT01",
    "DOMAIN": "DS",
    "USUBJID": "01-710-009",
    "DSSEQ": 4,
    "DSTERM": "ADVERSE EVENT",
    "DSDECOD": "ADVERSE EVENT",
    "DSCAT": "DISPOSITION EVENT",
    "DSSCAT": "STUDY",
    "DSSTDTC": "2013-12-11",
    "DSDY": 60
  },
  {
    "STUDYID": "CDISCPILOT01",
    "DOMAIN": "DS",
    "USUBJID": "01-710-010",
    "DSSEQ": 1,
    "DSTERM": "INFORMED CONSENT OBTAINED",
    "DSDECOD": "INFORMED CONSENT OBTAINED",
    "DSCAT": "PROTOCOL MILESTONE",
    "DSSCAT": "",
    "DSSTDTC": "2013-07-03"
  },
  {
    "STUDYID": "CDISCPILOT01",
    "DOMAIN": "DS",
    "USUBJID": "01-710-010",
    "DSSEQ": 2,
    "DSTERM": "RANDOMIZED",
    "DSDECOD": "RANDOMIZED",
    "DSCAT": "PROTOCOL MILESTONE",
    "DSSCAT": "",
    "DSSTDTC": "2013-07-14",
    "DSDY": 1
  },
  {
    "STUDYID": "CDISCPILOT01",
    "DOMAIN": "DS",
    "USUBJID": "01-710-010",
    "DSSEQ": 3,
    "DSTERM": "COMPLETED TREATMENT",
    "DSDECOD": "COMPLETED",
    "DSCAT": "DISPOSITION EVENT",
    "DSSCAT": "TREATMENT",
    "DSSTDTC": "2013-12-29",
    "DSDY": 169
  },
  {
    "STUDYID": "CDISCPILOT01",
    "DOMAIN": "DS",
    "USUBJID": "01-710-010",
    "DSSEQ": 4,
    "DSTERM": "COMPLETED STUDY",
    "DSDECOD": "COMPLETED",
    "DSCAT": "DISPOSITION EVENT",
    "DSSCAT": "STUDY",
    "DSSTDTC": "2014-01-12",
    "DSDY": 183
  },
  {
    "STUDYID": "CDISCPILOT01",
    "DOMAIN": "DS",
    "USUBJID": "01-710-011",
    "DSSEQ": 1,
    "DSTERM": "INFORMED CONSENT OBTAINED",
    "DSDECOD": "INFORMED CONSENT OBTAINED",
    "DSCAT": "PROTOCOL MILESTONE",
    "DSSCAT": "",
    "DSSTDTC": "2013-11-06"
  },
  {
    "STUDYID": "CDISCPILOT01",
    "DOMAIN": "DS",
    "USUBJID": "01-710-011",
    "DSSEQ": 2,
    "DSTERM": "RANDOMIZED",
    "DSDECOD": "RANDOMIZED",
    "DSCAT": "PROTOCOL MILESTONE",
    "DSSCAT": "",
    "DSSTDTC": "2013-11-16",
    "DSDY": 1
  },
  {
    "STUDYID": "CDISCPILOT01",
    "DOMAIN": "DS",
    "USUBJID": "01-710-011",
    "DSSEQ": 3,
    "DSTERM": "COMPLETED TREATMENT",
    "DSDECOD": "COMPLETED",
    "DSCAT": "DISPOSITION EVENT",
    "DSSCAT": "TREATMENT",
    "DSSTDTC": "2014-05-03",
    "DSDY": 169
  },
  {
    "STUDYID": "CDISCPILOT01",
    "DOMAIN": "DS",
    "USUBJID": "01-710-011",
    "DSSEQ": 4,
    "DSTERM": "COMPLETED STUDY",
    "DSDECOD": "COMPLETED",
    "DSCAT": "DISPOSITION EVENT",
    "DSSCAT": "STUDY",
    "DSSTDTC": "2014-05-17",
    "DSDY": 183
  },
  {
    "STUDYID": "CDISCPILOT01",
    "DOMAIN": "DS",
    "USUBJID": "01-710-012",
    "DSSEQ": 1,
    "DSTERM": "INFORMED CONSENT OBTAINED",
    "DSDECOD": "INFORMED CONSENT OBTAINED",
    "DSCAT": "PROTOCOL MILESTONE",
    "DSSCAT": "",
    "DSSTDTC": "2013-07-05"
  },
  {
    "STUDYID": "CDISCPILOT01",
    "DOMAIN": "DS",
    "USUBJID": "01-710-012",
    "DSSEQ": 2,
    "DSTERM": "RANDOMIZED",
    "DSDECOD": "RANDOMIZED",
    "DSCAT": "PROTOCOL MILESTONE",
    "DSSCAT": "",
    "DSSTDTC": "2013-07-24",
    "DSDY": 1
  },
  {
    "STUDYID": "CDISCPILOT01",
    "DOMAIN": "DS",
    "USUBJID": "01-710-012",
    "DSSEQ": 3,
    "DSTERM": "PHYSICIAN DECISION",
    "DSDECOD": "PHYSICIAN DECISION",
    "DSCAT": "DISPOSITION EVENT",
    "DSSCAT": "TREATMENT",
    "DSSTDTC": "2013-08-07",
    "DSDY": 15
  },
  {
    "STUDYID": "CDISCPILOT01",
    "DOMAIN": "DS",
    "USUBJID": "01-710-012",
    "DSSEQ": 4,
    "DSTERM": "PHYSICIAN DECISION",
    "DSDECOD": "PHYSICIAN DECISION",
    "DSCAT": "DISPOSITION EVENT",
    "DSSCAT": "STUDY",
    "DSSTDTC": "2013-08-07",
    "DSDY": 15
  },
  {
    "STUDYID": "CDISCPILOT01",
    "DOMAIN": "DS",
    "USUBJID": "01-710-013",
    "DSSEQ": 1,
    "DSTERM": "INFORMED CONSENT OBTAINED",
    "DSDECOD": "INFORMED CONSENT OBTAINED",
    "DSCAT": "PROTOCOL MILESTONE",
    "DSSCAT": "",
    "DSSTDTC": "2013-10-26"
  },
  {
    "STUDYID": "CDISCPILOT01",
    "DOMAIN": "DS",
    "USUBJID": "01-710-013",
    "DSSEQ": 2,
    "DSTERM": "RANDOMIZED",
    "DSDECOD": "RANDOMIZED",
    "DSCAT": "PROTOCOL MILESTONE",
    "DSSCAT": "",
    "DSSTDTC": "2013-11-15",
    "DSDY": 1
  },
  {
    "STUDYID": "CDISCPILOT01",
    "DOMAIN": "DS",
    "USUBJID": "01-710-013",
    "DSSEQ": 3,
    "DSTERM": "COMPLETED TREATMENT",
    "DSDECOD": "COMPLETED",
    "DSCAT": "DISPOSITION EVENT",
    "DSSCAT": "TREATMENT",
    "DSSTDTC": "2014-05-02",
    "DSDY": 169
  },
  {
    "STUDYID": "CDISCPILOT01",
    "DOMAIN": "DS",
    "USUBJID": "01-710-013",
    "DSSEQ": 4,
    "DSTERM": "COMPLETED STUDY",
    "DSDECOD": "COMPLETED",
    "DSCAT": "DISPOSITION EVENT",
    "DSSCAT": "STUDY",
    "DSSTDTC": "2014-05-16",
    "DSDY": 183
  },
  {
    "STUDYID": "CDISCPILOT01",
    "DOMAIN": "DS",
    "USUBJID": "01-710-014",
    "DSSEQ": 1,
    "DSTERM": "INFORMED CONSENT OBTAINED",
    "DSDECOD": "INFORMED CONSENT OBTAINED",
    "DSCAT": "PROTOCOL MILESTONE",
    "DSSCAT": "",
    "DSSTDTC": "2013-06-06"
  },
  {
    "STUDYID": "CDISCPILOT01",
    "DOMAIN": "DS",
    "USUBJID": "01-710-014",
    "DSSEQ": 2,
    "DSTERM": "RANDOMIZED",
    "DSDECOD": "RANDOMIZED",
    "DSCAT": "PROTOCOL MILESTONE",
    "DSSCAT": "",
    "DSSTDTC": "2013-06-14",
    "DSDY": 1
  },
  {
    "STUDYID": "CDISCPILOT01",
    "DOMAIN": "DS",
    "USUBJID": "01-710-014",
    "DSSEQ": 3,
    "DSTERM": "COMPLETED TREATMENT",
    "DSDECOD": "COMPLETED",
    "DSCAT": "DISPOSITION EVENT",
    "DSSCAT": "TREATMENT",
    "DSSTDTC": "2013-11-29",
    "DSDY": 169
  },
  {
    "STUDYID": "CDISCPILOT01",
    "DOMAIN": "DS",
    "USUBJID": "01-710-014",
    "DSSEQ": 4,
    "DSTERM": "COMPLETED STUDY",
    "DSDECOD": "COMPLETED",
    "DSCAT": "DISPOSITION EVENT",
    "DSSCAT": "STUDY",
    "DSSTDTC": "2013-12-13",
    "DSDY": 183
  },
  {
    "STUDYID": "CDISCPILOT01",
    "DOMAIN": "DS",
    "USUBJID": "01-710-015",
    "DSSEQ": 1,
    "DSTERM": "INFORMED CONSENT OBTAINED",
    "DSDECOD": "INFORMED CONSENT OBTAINED",
    "DSCAT": "PROTOCOL MILESTONE",
    "DSSCAT": "",
    "DSSTDTC": "2013-07-07"
  },
  {
    "STUDYID": "CDISCPILOT01",
    "DOMAIN": "DS",
    "USUBJID": "01-710-015",
    "DSSEQ": 2,
    "DSTERM": "RANDOMIZED",
    "DSDECOD": "RANDOMIZED",
    "DSCAT": "PROTOCOL MILESTONE",
    "DSSCAT": "",
    "DSSTDTC": "2013-07-26",
    "DSDY": 1
  },
  {
    "STUDYID": "CDISCPILOT01",
    "DOMAIN": "DS",
    "USUBJID": "01-710-015",
    "DSSEQ": 3,
    "DSTERM": "COMPLETED TREATMENT",
    "DSDECOD": "COMPLETED",
    "DSCAT": "DISPOSITION EVENT",
    "DSSCAT": "TREATMENT",
    "DSSTDTC": "2014-01-10",
    "DSDY": 169
  },
  {
    "STUDYID": "CDISCPILOT01",
    "DOMAIN": "DS",
    "USUBJID": "01-710-015",
    "DSSEQ": 4,
    "DSTERM": "OTHER",
    "DSDECOD": "OTHER",
    "DSCAT": "DISPOSITION EVENT",
    "DSSCAT": "STUDY",
    "DSSTDTC": "2014-01-18",
    "DSDY": 177
  },
  {
    "STUDYID": "CDISCPILOT01",
    "DOMAIN": "DS",
    "USUBJID": "01-710-016",
    "DSSEQ": 1,
    "DSTERM": "INFORMED CONSENT OBTAINED",
    "DSDECOD": "INFORMED CONSENT OBTAINED",
    "DSCAT": "PROTOCOL MILESTONE",
    "DSSCAT": "",
    "DSSTDTC": "2013-03-20"
  },
  {
    "STUDYID": "CDISCPILOT01",
    "DOMAIN": "DS",
    "USUBJID": "01-710-016",
    "DSSEQ": 2,
    "DSTERM": "RANDOMIZED",
    "DSDECOD": "RANDOMIZED",
    "DSCAT": "PROTOCOL MILESTONE",
    "DSSCAT": "",
    "DSSTDTC": "2013-03-27",
    "DSDY": 1
  },
  {
    "STUDYID": "CDISCPILOT01",
    "DOMAIN": "DS",
    "USUBJID": "01-710-016",
    "DSSEQ": 3,
    "DSTERM": "COMPLETED TREATMENT",
    "DSDECOD": "COMPLETED",
    "DSCAT": "DISPOSITION EVENT",
    "DSSCAT": "TREATMENT",
    "DSSTDTC": "2013-09-11",
    "DSDY": 169
  },
  {
    "STUDYID": "CDISCPILOT01",
    "DOMAIN": "DS",
    "USUBJID": "01-710-016",
    "DSSEQ": 4,
    "DSTERM": "COMPLETED STUDY",
    "DSDECOD": "COMPLETED",
    "DSCAT": "DISPOSITION EVENT",
    "DSSCAT": "STUDY",
    "DSSTDTC": "2013-09-25",
    "DSDY": 183
  },
  {
    "STUDYID": "CDISCPILOT01",
    "DOMAIN": "DS",
    "USUBJID": "01-710-017",
    "DSSEQ": 1,
    "DSTERM": "INFORMED CONSENT OBTAINED",
    "DSDECOD": "INFORMED CONSENT OBTAINED",
    "DSCAT": "PROTOCOL MILESTONE",
    "DSSCAT": "",
    "DSSTDTC": "2013-08-06"
  },
  {
    "STUDYID": "CDISCPILOT01",
    "DOMAIN": "DS",
    "USUBJID": "01-710-017",
    "DSSEQ": 2,
    "DSTERM": "RANDOMIZED",
    "DSDECOD": "RANDOMIZED",
    "DSCAT": "PROTOCOL MILESTONE",
    "DSSCAT": "",
    "DSSTDTC": "2013-08-24",
    "DSDY": 1
  },
  {
    "STUDYID": "CDISCPILOT01",
    "DOMAIN": "DS",
    "USUBJID": "01-710-017",
    "DSSEQ": 3,
    "DSTERM": "ADVERSE EVENT",
    "DSDECOD": "ADVERSE EVENT",
    "DSCAT": "DISPOSITION EVENT",
    "DSSCAT": "TREATMENT",
    "DSSTDTC": "2013-10-05",
    "DSDY": 43
  },
  {
    "STUDYID": "CDISCPILOT01",
    "DOMAIN": "DS",
    "USUBJID": "01-710-017",
    "DSSEQ": 4,
    "DSTERM": "ADVERSE EVENT",
    "DSDECOD": "ADVERSE EVENT",
    "DSCAT": "DISPOSITION EVENT",
    "DSSCAT": "STUDY",
    "DSSTDTC": "2013-10-17",
    "DSDY": 55
  },
  {
    "STUDYID": "CDISCPILOT01",
    "DOMAIN": "DS",
    "USUBJID": "01-710-018",
    "DSSEQ": 1,
    "DSTERM": "INFORMED CONSENT OBTAINED",
    "DSDECOD": "INFORMED CONSENT OBTAINED",
    "DSCAT": "PROTOCOL MILESTONE",
    "DSSCAT": "",
    "DSSTDTC": "2013-08-20"
  },
  {
    "STUDYID": "CDISCPILOT01",
    "DOMAIN": "DS",
    "USUBJID": "01-710-018",
    "DSSEQ": 2,
    "DSTERM": "RANDOMIZED",
    "DSDECOD": "RANDOMIZED",
    "DSCAT": "PROTOCOL MILESTONE",
    "DSSCAT": "",
    "DSSTDTC": "2013-08-27",
    "DSDY": 1
  },
  {
    "STUDYID": "CDISCPILOT01",
    "DOMAIN": "DS",
    "USUBJID": "01-710-018",
    "DSSEQ": 3,
    "DSTERM": "ADVERSE EVENT",
    "DSDECOD": "ADVERSE EVENT",
    "DSCAT": "DISPOSITION EVENT",
    "DSSCAT": "TREATMENT",
    "DSSTDTC": "2014-01-07",
    "DSDY": 134
  },
  {
    "STUDYID": "CDISCPILOT01",
    "DOMAIN": "DS",
    "USUBJID": "01-710-018",
    "DSSEQ": 4,
    "DSTERM": "ADVERSE EVENT",
    "DSDECOD": "ADVERSE EVENT",
    "DSCAT": "DISPOSITION EVENT",
    "DSSCAT": "STUDY",
    "DSSTDTC": "2014-01-09",
    "DSDY": 136
  },
  {
    "STUDYID": "CDISCPILOT01",
    "DOMAIN": "DS",
    "USUBJID": "01-710-019",
    "DSSEQ": 1,
    "DSTERM": "INFORMED CONSENT OBTAINED",
    "DSDECOD": "INFORMED CONSENT OBTAINED",
    "DSCAT": "PROTOCOL MILESTONE",
    "DSSCAT": "",
    "DSSTDTC": "2013-02-13"
  },
  {
    "STUDYID": "CDISCPILOT01",
    "DOMAIN": "DS",
    "USUBJID": "01-710-019",
    "DSSEQ": 2,
    "DSTERM": "RANDOMIZED",
    "DSDECOD": "RANDOMIZED",
    "DSCAT": "PROTOCOL MILESTONE",
    "DSSCAT": "",
    "DSSTDTC": "2013-02-24",
    "DSDY": 1
  },
  {
    "STUDYID": "CDISCPILOT01",
    "DOMAIN": "DS",
    "USUBJID": "01-710-019",
    "DSSEQ": 3,
    "DSTERM": "ADVERSE EVENT",
    "DSDECOD": "ADVERSE EVENT",
    "DSCAT": "DISPOSITION EVENT",
    "DSSCAT": "TREATMENT",
    "DSSTDTC": "2013-03-24",
    "DSDY": 29
  },
  {
    "STUDYID": "CDISCPILOT01",
    "DOMAIN": "DS",
    "USUBJID": "01-710-019",
    "DSSEQ": 4,
    "DSTERM": "ADVERSE EVENT",
    "DSDECOD": "ADVERSE EVENT",
    "DSCAT": "DISPOSITION EVENT",
    "DSSCAT": "STUDY",
    "DSSTDTC": "2013-04-01",
    "DSDY": 37
  },
  {
    "STUDYID": "CDISCPILOT01",
    "DOMAIN": "DS",
    "USUBJID": "01-710-020",
    "DSSEQ": 1,
    "DSTERM": "INFORMED CONSENT OBTAINED",
    "DSDECOD": "INFORMED CONSENT OBTAINED",
    "DSCAT": "PROTOCOL MILESTONE",
    "DSSCAT": "",
    "DSSTDTC": "2013-05-01"
  },
  {
    "STUDYID": "CDISCPILOT01",
    "DOMAIN": "DS",
    "USUBJID": "01-710-020",
    "DSSEQ": 2,
    "DSTERM": "RANDOMIZED",
    "DSDECOD": "RANDOMIZED",
    "DSCAT": "PROTOCOL MILESTONE",
    "DSSCAT": "",
    "DSSTDTC": "2013-05-21",
    "DSDY": 1
  },
  {
    "STUDYID": "CDISCPILOT01",
    "DOMAIN": "DS",
    "USUBJID": "01-710-020",
    "DSSEQ": 3,
    "DSTERM": "COMPLETED TREATMENT",
    "DSDECOD": "COMPLETED",
    "DSCAT": "DISPOSITION EVENT",
    "DSSCAT": "TREATMENT",
    "DSSTDTC": "2013-11-05",
    "DSDY": 169
  },
  {
    "STUDYID": "CDISCPILOT01",
    "DOMAIN": "DS",
    "USUBJID": "01-710-020",
    "DSSEQ": 4,
    "DSTERM": "COMPLETED STUDY",
    "DSDECOD": "COMPLETED",
    "DSCAT": "DISPOSITION EVENT",
    "DSSCAT": "STUDY",
    "DSSTDTC": "2013-11-19",
    "DSDY": 183
  },
  {
    "STUDYID": "CDISCPILOT01",
    "DOMAIN": "DS",
    "USUBJID": "01-710-021",
    "DSSEQ": 1,
    "DSTERM": "INFORMED CONSENT OBTAINED",
    "DSDECOD": "INFORMED CONSENT OBTAINED",
    "DSCAT": "PROTOCOL MILESTONE",
    "DSSCAT": "",
    "DSSTDTC": "2013-06-21"
  },
  {
    "STUDYID": "CDISCPILOT01",
    "DOMAIN": "DS",
    "USUBJID": "01-710-021",
    "DSSEQ": 2,
    "DSTERM": "RANDOMIZED",
    "DSDECOD": "RANDOMIZED",
    "DSCAT": "PROTOCOL MILESTONE",
    "DSSCAT": "",
    "DSSTDTC": "2013-07-02",
    "DSDY": 1
  },
  {
    "STUDYID": "CDISCPILOT01",
    "DOMAIN": "DS",
    "USUBJID": "01-710-021",
    "DSSEQ": 3,
    "DSTERM": "COMPLETED TREATMENT",
    "DSDECOD": "COMPLETED",
    "DSCAT": "DISPOSITION EVENT",
    "DSSCAT": "TREATMENT",
    "DSSTDTC": "2013-12-17",
    "DSDY": 169
  },
  {
    "STUDYID": "CDISCPILOT01",
    "DOMAIN": "DS",
    "USUBJID": "01-710-021",
    "DSSEQ": 4,
    "DSTERM": "COMPLETED STUDY",
    "DSDECOD": "COMPLETED",
    "DSCAT": "DISPOSITION EVENT",
    "DSSCAT": "STUDY",
    "DSSTDTC": "2013-12-31",
    "DSDY": 183
  },
  {
    "STUDYID": "CDISCPILOT01",
    "DOMAIN": "DS",
    "USUBJID": "01-710-022",
    "DSSEQ": 1,
    "DSTERM": "INFORMED CONSENT OBTAINED",
    "DSDECOD": "INFORMED CONSENT OBTAINED",
    "DSCAT": "PROTOCOL MILESTONE",
    "DSSCAT": "",
    "DSSTDTC": "2013-02-18"
  },
  {
    "STUDYID": "CDISCPILOT01",
    "DOMAIN": "DS",
    "USUBJID": "01-710-022",
    "DSSEQ": 2,
    "DSTERM": "RANDOMIZED",
    "DSDECOD": "RANDOMIZED",
    "DSCAT": "PROTOCOL MILESTONE",
    "DSSCAT": "",
    "DSSTDTC": "2013-03-04",
    "DSDY": 1
  },
  {
    "STUDYID": "CDISCPILOT01",
    "DOMAIN": "DS",
    "USUBJID": "01-710-022",
    "DSSEQ": 3,
    "DSTERM": "ADVERSE EVENT",
    "DSDECOD": "ADVERSE EVENT",
    "DSCAT": "DISPOSITION EVENT",
    "DSSCAT": "TREATMENT",
    "DSSTDTC": "2013-08-19",
    "DSDY": 169
  },
  {
    "STUDYID": "CDISCPILOT01",
    "DOMAIN": "DS",
    "USUBJID": "01-710-022",
    "DSSEQ": 4,
    "DSTERM": "ADVERSE EVENT",
    "DSDECOD": "ADVERSE EVENT",
    "DSCAT": "DISPOSITION EVENT",
    "DSSCAT": "STUDY",
    "DSSTDTC": "2013-08-20",
    "DSDY": 170
  },
  {
    "STUDYID": "CDISCPILOT01",
    "DOMAIN": "DS",
    "USUBJID": "01-710-023",
    "DSSEQ": 1,
    "DSTERM": "INFORMED CONSENT OBTAINED",
    "DSDECOD": "INFORMED CONSENT OBTAINED",
    "DSCAT": "PROTOCOL MILESTONE",
    "DSSCAT": "",
    "DSSTDTC": "2013-04-25"
  },
  {
    "STUDYID": "CDISCPILOT01",
    "DOMAIN": "DS",
    "USUBJID": "01-710-023",
    "DSSEQ": 2,
    "DSTERM": "RANDOMIZED",
    "DSDECOD": "RANDOMIZED",
    "DSCAT": "PROTOCOL MILESTONE",
    "DSSCAT": "",
    "DSSTDTC": "2013-05-10",
    "DSDY": 1
  },
  {
    "STUDYID": "CDISCPILOT01",
    "DOMAIN": "DS",
    "USUBJID": "01-710-023",
    "DSSEQ": 3,
    "DSTERM": "COMPLETED TREATMENT",
    "DSDECOD": "COMPLETED",
    "DSCAT": "DISPOSITION EVENT",
    "DSSCAT": "TREATMENT",
    "DSSTDTC": "2013-10-25",
    "DSDY": 169
  },
  {
    "STUDYID": "CDISCPILOT01",
    "DOMAIN": "DS",
    "USUBJID": "01-710-023",
    "DSSEQ": 4,
    "DSTERM": "COMPLETED STUDY",
    "DSDECOD": "COMPLETED",
    "DSCAT": "DISPOSITION EVENT",
    "DSSCAT": "STUDY",
    "DSSTDTC": "2013-11-08",
    "DSDY": 183
  },
  {
    "STUDYID": "CDISCPILOT01",
    "DOMAIN": "DS",
    "USUBJID": "01-710-024",
    "DSSEQ": 1,
    "DSTERM": "INFORMED CONSENT OBTAINED",
    "DSDECOD": "INFORMED CONSENT OBTAINED",
    "DSCAT": "PROTOCOL MILESTONE",
    "DSSCAT": "",
    "DSSTDTC": "2013-09-01"
  },
  {
    "STUDYID": "CDISCPILOT01",
    "DOMAIN": "DS",
    "USUBJID": "01-710-024",
    "DSSEQ": 2,
    "DSTERM": "RANDOMIZED",
    "DSDECOD": "RANDOMIZED",
    "DSCAT": "PROTOCOL MILESTONE",
    "DSSCAT": "",
    "DSSTDTC": "2013-09-17",
    "DSDY": 1
  },
  {
    "STUDYID": "CDISCPILOT01",
    "DOMAIN": "DS",
    "USUBJID": "01-710-024",
    "DSSEQ": 3,
    "DSTERM": "DEATH",
    "DSDECOD": "DEATH",
    "DSCAT": "DISPOSITION EVENT",
    "DSSCAT": "TREATMENT",
    "DSSTDTC": "2014-01-14",
    "DSDY": 120
  },
  {
    "STUDYID": "CDISCPILOT01",
    "DOMAIN": "DS",
    "USUBJID": "01-710-024",
    "DSSEQ": 4,
    "DSTERM": "DEATH",
    "DSDECOD": "DEATH",
    "DSCAT": "DISPOSITION EVENT",
    "DSSCAT": "STUDY",
    "DSSTDTC": "2014-01-14",
    "DSDY": 120
  },
  {
    "STUDYID": "CDISCPILOT01",
    "DOMAIN": "DS",
    "USUBJID": "01-710-025",
    "DSSEQ": 1,
    "DSTERM": "INFORMED CONSENT OBTAINED",
    "DSDECOD": "INFORMED CONSENT OBTAINED",
    "DSCAT": "PROTOCOL MILESTONE",
    "DSSCAT": "",
    "DSSTDTC": "2013-09-03"
  },
  {
    "STUDYID": "CDISCPILOT01",
    "DOMAIN": "DS",
    "USUBJID": "01-710-025",
    "DSSEQ": 2,
    "DSTERM": "RANDOMIZED",
    "DSDECOD": "RANDOMIZED",
    "DSCAT": "PROTOCOL MILESTONE",
    "DSSCAT": "",
    "DSSTDTC": "2013-09-21",
    "DSDY": 1
  },
  {
    "STUDYID": "CDISCPILOT01",
    "DOMAIN": "DS",
    "USUBJID": "01-710-025",
    "DSSEQ": 3,
    "DSTERM": "COMPLETED TREATMENT",
    "DSDECOD": "COMPLETED",
    "DSCAT": "DISPOSITION EVENT",
    "DSSCAT": "TREATMENT",
    "DSSTDTC": "2014-03-08",
    "DSDY": 169
  },
  {
    "STUDYID": "CDISCPILOT01",
    "DOMAIN": "DS",
    "USUBJID": "01-710-025",
    "DSSEQ": 4,
    "DSTERM": "COMPLETED STUDY",
    "DSDECOD": "COMPLETED",
    "DSCAT": "DISPOSITION EVENT",
    "DSSCAT": "STUDY",
    "DSSTDTC": "2014-03-22",
    "DSDY": 183
  },
  {
    "STUDYID": "CDISCPILOT01",
    "DOMAIN": "DS",
    "USUBJID": "01-710-026",
    "DSSEQ": 1,
    "DSTERM": "INFORMED CONSENT OBTAINED",
    "DSDECOD": "INFORMED CONSENT OBTAINED",
    "DSCAT": "PROTOCOL MILESTONE",
    "DSSCAT": "",
    "DSSTDTC": "2013-02-02"
  },
  {
    "STUDYID": "CDISCPILOT01",
    "DOMAIN": "DS",
    "USUBJID": "01-710-026",
    "DSSEQ": 2,
    "DSTERM": "RANDOMIZED",
    "DSDECOD": "RANDOMIZED",
    "DSCAT": "PROTOCOL MILESTONE",
    "DSSCAT": "",
    "DSSTDTC": "2013-02-15",
    "DSDY": 1
  },
  {
    "STUDYID": "CDISCPILOT01",
    "DOMAIN": "DS",
    "USUBJID": "01-710-026",
    "DSSEQ": 3,
    "DSTERM": "COMPLETED TREATMENT",
    "DSDECOD": "COMPLETED",
    "DSCAT": "DISPOSITION EVENT",
    "DSSCAT": "TREATMENT",
    "DSSTDTC": "2013-08-02",
    "DSDY": 169
  },
  {
    "STUDYID": "CDISCPILOT01",
    "DOMAIN": "DS",
    "USUBJID": "01-710-026",
    "DSSEQ": 4,
    "DSTERM": "COMPLETED STUDY",
    "DSDECOD": "COMPLETED",
    "DSCAT": "DISPOSITION EVENT",
    "DSSCAT": "STUDY",
    "DSSTDTC": "2013-08-16",
    "DSDY": 183
  },
  {
    "STUDYID": "CDISCPILOT01",
    "DOMAIN": "DS",
    "USUBJID": "01-710-027",
    "DSSEQ": 1,
    "DSTERM": "INFORMED CONSENT OBTAINED",
    "DSDECOD": "INFORMED CONSENT OBTAINED",
    "DSCAT": "PROTOCOL MILESTONE",
    "DSSCAT": "",
    "DSSTDTC": "2013-02-21"
  },
  {
    "STUDYID": "CDISCPILOT01",
    "DOMAIN": "DS",
    "USUBJID": "01-710-027",
    "DSSEQ": 2,
    "DSTERM": "RANDOMIZED",
    "DSDECOD": "RANDOMIZED",
    "DSCAT": "PROTOCOL MILESTONE",
    "DSSCAT": "",
    "DSSTDTC": "2013-03-09",
    "DSDY": 1
  },
  {
    "STUDYID": "CDISCPILOT01",
    "DOMAIN": "DS",
    "USUBJID": "01-710-027",
    "DSSEQ": 3,
    "DSTERM": "ADVERSE EVENT",
    "DSDECOD": "ADVERSE EVENT",
    "DSCAT": "DISPOSITION EVENT",
    "DSSCAT": "TREATMENT",
    "DSSTDTC": "2013-04-20",
    "DSDY": 43
  },
  {
    "STUDYID": "CDISCPILOT01",
    "DOMAIN": "DS",
    "USUBJID": "01-710-027",
    "DSSEQ": 4,
    "DSTERM": "ADVERSE EVENT",
    "DSDECOD": "ADVERSE EVENT",
    "DSCAT": "DISPOSITION EVENT",
    "DSSCAT": "STUDY",
    "DSSTDTC": "2013-05-02",
    "DSDY": 55
  },
  {
    "STUDYID": "CDISCPILOT01",
    "DOMAIN": "DS",
    "USUBJID": "01-710-028",
    "DSSEQ": 1,
    "DSTERM": "INFORMED CONSENT OBTAINED",
    "DSDECOD": "INFORMED CONSENT OBTAINED",
    "DSCAT": "PROTOCOL MILESTONE",
    "DSSCAT": "",
    "DSSTDTC": "2013-08-01"
  },
  {
    "STUDYID": "CDISCPILOT01",
    "DOMAIN": "DS",
    "USUBJID": "01-710-028",
    "DSSEQ": 2,
    "DSTERM": "RANDOMIZED",
    "DSDECOD": "RANDOMIZED",
    "DSCAT": "PROTOCOL MILESTONE",
    "DSSCAT": "",
    "DSSTDTC": "2013-08-22",
    "DSDY": 1
  },
  {
    "STUDYID": "CDISCPILOT01",
    "DOMAIN": "DS",
    "USUBJID": "01-710-028",
    "DSSEQ": 3,
    "DSTERM": "COMPLETED TREATMENT",
    "DSDECOD": "COMPLETED",
    "DSCAT": "DISPOSITION EVENT",
    "DSSCAT": "TREATMENT",
    "DSSTDTC": "2014-02-06",
    "DSDY": 169
  },
  {
    "STUDYID": "CDISCPILOT01",
    "DOMAIN": "DS",
    "USUBJID": "01-710-028",
    "DSSEQ": 4,
    "DSTERM": "COMPLETED STUDY",
    "DSDECOD": "COMPLETED",
    "DSCAT": "DISPOSITION EVENT",
    "DSSCAT": "STUDY",
    "DSSTDTC": "2014-02-20",
    "DSDY": 183
  },
  {
    "STUDYID": "CDISCPILOT01",
    "DOMAIN": "DS",
    "USUBJID": "01-710-029",
    "DSSEQ": 1,
    "DSTERM": "INFORMED CONSENT OBTAINED",
    "DSDECOD": "INFORMED CONSENT OBTAINED",
    "DSCAT": "PROTOCOL MILESTONE",
    "DSSCAT": "",
    "DSSTDTC": "2013-09-24"
  },
  {
    "STUDYID": "CDISCPILOT01",
    "DOMAIN": "DS",
    "USUBJID": "01-710-029",
    "DSSEQ": 2,
    "DSTERM": "RANDOMIZED",
    "DSDECOD": "RANDOMIZED",
    "DSCAT": "PROTOCOL MILESTONE",
    "DSSCAT": "",
    "DSSTDTC": "2013-10-04",
    "DSDY": 1
  },
  {
    "STUDYID": "CDISCPILOT01",
    "DOMAIN": "DS",
    "USUBJID": "01-710-029",
    "DSSEQ": 3,
    "DSTERM": "PROTOCOL VIOLATION",
    "DSDECOD": "PROTOCOL VIOLATION",
    "DSCAT": "DISPOSITION EVENT",
    "DSSCAT": "TREATMENT",
    "DSSTDTC": "2013-11-22",
    "DSDY": 50
  },
  {
    "STUDYID": "CDISCPILOT01",
    "DOMAIN": "DS",
    "USUBJID": "01-710-029",
    "DSSEQ": 4,
    "DSTERM": "PROTOCOL VIOLATION",
    "DSDECOD": "PROTOCOL VIOLATION",
    "DSCAT": "DISPOSITION EVENT",
    "DSSCAT": "STUDY",
    "DSSTDTC": "2013-12-05",
    "DSDY": 63
  },
  {
    "STUDYID": "CDISCPILOT01",
    "DOMAIN": "DS",
    "USUBJID": "01-711-001",
    "DSSEQ": 1,
    "DSTERM": "INFORMED CONSENT OBTAINED",
    "DSDECOD": "INFORMED CONSENT OBTAINED",
    "DSCAT": "PROTOCOL MILESTONE",
    "DSSCAT": "",
    "DSSTDTC": "2013-07-25"
  },
  {
    "STUDYID": "CDISCPILOT01",
    "DOMAIN": "DS",
    "USUBJID": "01-711-001",
    "DSSEQ": 2,
    "DSTERM": "RANDOMIZED",
    "DSDECOD": "RANDOMIZED",
    "DSCAT": "PROTOCOL MILESTONE",
    "DSSCAT": "",
    "DSSTDTC": "2013-08-06",
    "DSDY": 1
  },
  {
    "STUDYID": "CDISCPILOT01",
    "DOMAIN": "DS",
    "USUBJID": "01-711-001",
    "DSSEQ": 3,
    "DSTERM": "LACK OF EFFICACY",
    "DSDECOD": "LACK OF EFFICACY",
    "DSCAT": "DISPOSITION EVENT",
    "DSSCAT": "TREATMENT",
    "DSSTDTC": "2013-09-17",
    "DSDY": 43
  },
  {
    "STUDYID": "CDISCPILOT01",
    "DOMAIN": "DS",
    "USUBJID": "01-711-001",
    "DSSEQ": 4,
    "DSTERM": "LACK OF EFFICACY",
    "DSDECOD": "LACK OF EFFICACY",
    "DSCAT": "DISPOSITION EVENT",
    "DSSCAT": "STUDY",
    "DSSTDTC": "2013-09-26",
    "DSDY": 52
  },
  {
    "STUDYID": "CDISCPILOT01",
    "DOMAIN": "DS",
    "USUBJID": "01-711-002",
    "DSSEQ": 1,
    "DSTERM": "INFORMED CONSENT OBTAINED",
    "DSDECOD": "INFORMED CONSENT OBTAINED",
    "DSCAT": "PROTOCOL MILESTONE",
    "DSSCAT": "",
    "DSSTDTC": "2012-12-13"
  },
  {
    "STUDYID": "CDISCPILOT01",
    "DOMAIN": "DS",
    "USUBJID": "01-711-002",
    "DSSEQ": 2,
    "DSTERM": "RANDOMIZED",
    "DSDECOD": "RANDOMIZED",
    "DSCAT": "PROTOCOL MILESTONE",
    "DSSCAT": "",
    "DSSTDTC": "2013-01-03",
    "DSDY": 1
  },
  {
    "STUDYID": "CDISCPILOT01",
    "DOMAIN": "DS",
    "USUBJID": "01-711-002",
    "DSSEQ": 3,
    "DSTERM": "COMPLETED TREATMENT",
    "DSDECOD": "COMPLETED",
    "DSCAT": "DISPOSITION EVENT",
    "DSSCAT": "TREATMENT",
    "DSSTDTC": "2013-06-20",
    "DSDY": 169
  },
  {
    "STUDYID": "CDISCPILOT01",
    "DOMAIN": "DS",
    "USUBJID": "01-711-002",
    "DSSEQ": 4,
    "DSTERM": "COMPLETED STUDY",
    "DSDECOD": "COMPLETED",
    "DSCAT": "DISPOSITION EVENT",
    "DSSCAT": "STUDY",
    "DSSTDTC": "2013-07-04",
    "DSDY": 183
  },
  {
    "STUDYID": "CDISCPILOT01",
    "DOMAIN": "DS",
    "USUBJID": "01-711-003",
    "DSSEQ": 1,
    "DSTERM": "INFORMED CONSENT OBTAINED",
    "DSDECOD": "INFORMED CONSENT OBTAINED",
    "DSCAT": "PROTOCOL MILESTONE",
    "DSSCAT": "",
    "DSSTDTC": "2013-11-08"
  },
  {
    "STUDYID": "CDISCPILOT01",
    "DOMAIN": "DS",
    "USUBJID": "01-711-003",
    "DSSEQ": 2,
    "DSTERM": "RANDOMIZED",
    "DSDECOD": "RANDOMIZED",
    "DSCAT": "PROTOCOL MILESTONE",
    "DSSCAT": "",
    "DSSTDTC": "2013-11-18",
    "DSDY": 1
  },
  {
    "STUDYID": "CDISCPILOT01",
    "DOMAIN": "DS",
    "USUBJID": "01-711-003",
    "DSSEQ": 3,
    "DSTERM": "ADVERSE EVENT",
    "DSDECOD": "ADVERSE EVENT",
    "DSCAT": "DISPOSITION EVENT",
    "DSSCAT": "TREATMENT",
    "DSSTDTC": "2013-12-23",
    "DSDY": 36
  },
  {
    "STUDYID": "CDISCPILOT01",
    "DOMAIN": "DS",
    "USUBJID": "01-711-003",
    "DSSEQ": 4,
    "DSTERM": "ADVERSE EVENT",
    "DSDECOD": "ADVERSE EVENT",
    "DSCAT": "DISPOSITION EVENT",
    "DSSCAT": "STUDY",
    "DSSTDTC": "2013-12-24",
    "DSDY": 37
  },
  {
    "STUDYID": "CDISCPILOT01",
    "DOMAIN": "DS",
    "USUBJID": "01-711-004",
    "DSSEQ": 1,
    "DSTERM": "INFORMED CONSENT OBTAINED",
    "DSDECOD": "INFORMED CONSENT OBTAINED",
    "DSCAT": "PROTOCOL MILESTONE",
    "DSSCAT": "",
    "DSSTDTC": "2013-09-23"
  },
  {
    "STUDYID": "CDISCPILOT01",
    "DOMAIN": "DS",
    "USUBJID": "01-711-004",
    "DSSEQ": 2,
    "DSTERM": "RANDOMIZED",
    "DSDECOD": "RANDOMIZED",
    "DSCAT": "PROTOCOL MILESTONE",
    "DSSCAT": "",
    "DSSTDTC": "2013-10-01",
    "DSDY": 1
  },
  {
    "STUDYID": "CDISCPILOT01",
    "DOMAIN": "DS",
    "USUBJID": "01-711-004",
    "DSSEQ": 3,
    "DSTERM": "WITHDREW CONSENT",
    "DSDECOD": "WITHDREW CONSENT",
    "DSCAT": "DISPOSITION EVENT",
    "DSSCAT": "TREATMENT",
    "DSSTDTC": "2013-10-22",
    "DSDY": 22
  },
  {
    "STUDYID": "CDISCPILOT01",
    "DOMAIN": "DS",
    "USUBJID": "01-711-004",
    "DSSEQ": 4,
    "DSTERM": "WITHDREW CONSENT",
    "DSDECOD": "WITHDREW CONSENT",
    "DSCAT": "DISPOSITION EVENT",
    "DSSCAT": "STUDY",
    "DSSTDTC": "2013-10-27",
    "DSDY": 27
  },
  {
    "STUDYID": "CDISCPILOT01",
    "DOMAIN": "DS",
    "USUBJID": "01-713-001",
    "DSSEQ": 1,
    "DSTERM": "INFORMED CONSENT OBTAINED",
    "DSDECOD": "INFORMED CONSENT OBTAINED",
    "DSCAT": "PROTOCOL MILESTONE",
    "DSSCAT": "",
    "DSSTDTC": "2012-12-13"
  },
  {
    "STUDYID": "CDISCPILOT01",
    "DOMAIN": "DS",
    "USUBJID": "01-713-001",
    "DSSEQ": 2,
    "DSTERM": "RANDOMIZED",
    "DSDECOD": "RANDOMIZED",
    "DSCAT": "PROTOCOL MILESTONE",
    "DSSCAT": "",
    "DSSTDTC": "2013-01-02",
    "DSDY": 1
  },
  {
    "STUDYID": "CDISCPILOT01",
    "DOMAIN": "DS",
    "USUBJID": "01-713-001",
    "DSSEQ": 3,
    "DSTERM": "WITHDREW CONSENT",
    "DSDECOD": "WITHDREW CONSENT",
    "DSCAT": "DISPOSITION EVENT",
    "DSSCAT": "TREATMENT",
    "DSSTDTC": "2013-04-17",
    "DSDY": 106
  },
  {
    "STUDYID": "CDISCPILOT01",
    "DOMAIN": "DS",
    "USUBJID": "01-713-001",
    "DSSEQ": 4,
    "DSTERM": "WITHDREW CONSENT",
    "DSDECOD": "WITHDREW CONSENT",
    "DSCAT": "DISPOSITION EVENT",
    "DSSCAT": "STUDY",
    "DSSTDTC": "2013-04-30",
    "DSDY": 119
  },
  {
    "STUDYID": "CDISCPILOT01",
    "DOMAIN": "DS",
    "USUBJID": "01-713-002",
    "DSSEQ": 1,
    "DSTERM": "INFORMED CONSENT OBTAINED",
    "DSDECOD": "INFORMED CONSENT OBTAINED",
    "DSCAT": "PROTOCOL MILESTONE",
    "DSSCAT": "",
    "DSSTDTC": "2013-05-08"
  },
  {
    "STUDYID": "CDISCPILOT01",
    "DOMAIN": "DS",
    "USUBJID": "01-713-002",
    "DSSEQ": 2,
    "DSTERM": "RANDOMIZED",
    "DSDECOD": "RANDOMIZED",
    "DSCAT": "PROTOCOL MILESTONE",
    "DSSCAT": "",
    "DSSTDTC": "2013-05-26",
    "DSDY": 1
  },
  {
    "STUDYID": "CDISCPILOT01",
    "DOMAIN": "DS",
    "USUBJID": "01-713-002",
    "DSSEQ": 3,
    "DSTERM": "COMPLETED TREATMENT",
    "DSDECOD": "COMPLETED",
