[
  {
    "STUDYID": "CDISCPILOT01",
    "DOMAIN": "LB",
    "USUBJID": "01-701-001",
    "LBSEQ": 1,
    "LBTESTCD": "HGB",
    "LBTEST": "Hemoglobin",
    "LBCAT": "HEMATOLOGY",
    "LBORRES": 12.97,
    "LBORRESU": "g/dL",
    "LBSTRESN": 12.97,
    "LBSTRESU": "g/dL",
    "LBSTNRLO": 12,
    "LBSTNRHI": 15.5,
    "LBNRIND": "NORMAL",
    "LBBLFL": "Y",
    "VISITNUM": 1,
    "VISIT": "SCREENING",
    "VISITDY": -7,
    "LBDTC": "2013-06-11",
    "LBDY": -7
  },
  {
    "STUDYID": "CDISCPILOT01",
    "DOMAIN": "LB",
    "USUBJID": "01-701-001",
    "LBSEQ": 2,
    "LBTESTCD": "WBC",
    "LBTEST": "White Blood Cells",
    "LBCAT": "HEMATOLOGY",
    "LBORRES": 7.69,
    "LBORRESU": "10^9/L",
    "LBSTRESN": 7.69,
    "LBSTRESU": "10^9/L",
    "LBSTNRLO": 4,
    "LBSTNRHI": 11,
    "LBNRIND": "NORMAL",
    "LBBLFL": "Y",
    "VISITNUM": 1,
    "VISIT": "SCREENING",
    "VISITDY": -7,
    "LBDTC": "2013-06-11",
    "LBDY": -7
  },
  {
    "STUDYID": "CDISCPILOT01",
    "DOMAIN": "LB",
    "USUBJID": "01-701-001",
    "LBSEQ": 3,
    "LBTESTCD": "RBC",
    "LBTEST": "Red Blood Cells",
    "LBCAT": "HEMATOLOGY",
    "LBORRES": 5.08,
    "LBORRESU": "10^12/L",
    "LBSTRESN": 5.08,
    "LBSTRESU": "10^12/L",
    "LBSTNRLO": 4,
    "LBSTNRHI": 5,
    "LBNRIND": "HIGH",
    "LBBLFL": "Y",
    "VISITNUM": 1,
    "VISIT": "SCREENING",
    "VISITDY": -7,
    "LBDTC": "2013-06-10",
    "LBDY": -7
  },
  {
    "STUDYID": "CDISCPILOT01",
    "DOMAIN": "LB",
    "USUBJID": "01-701-001",
    "LBSEQ": 4,
    "LBTESTCD": "PLT",
    "LBTEST": "Platelets",
    "LBCAT": "HEMATOLOGY",
    "LBORRES": 269.31,
    "LBORRESU": "10^9/L",
    "LBSTRESN": 269.31,
    "LBSTRESU": "10^9/L",
    "LBSTNRLO": 150,
    "LBSTNRHI": 400,
    "LBNRIND": "NORMAL",
    "LBBLFL": "Y",
    "VISITNUM": 1,
    "VISIT": "SCREENING",
    "VISITDY": -7,
    "LBDTC": "2013-06-11",
    "LBDY": -7
  },
  {
    "STUDYID": "CDISCPILOT01",
    "DOMAIN": "LB",
    "USUBJID": "01-701-001",
    "LBSEQ": 5,
    "LBTESTCD": "HCT",
    "LBTEST": "Hematocrit",
    "LBCAT": "HEMATOLOGY",
    "LBORRES": 40.06,
    "LBORRESU": "%",
    "LBSTRESN": 40.06,
    "LBSTRESU": "%",
    "LBSTNRLO": 36,
    "LBSTNRHI": 44,
    "LBNRIND": "NORMAL",
    "LBBLFL": "Y",
    "VISITNUM": 1,
    "VISIT": "SCREENING",
    "VISITDY": -7,
    "LBDTC": "2013-06-12",
    "LBDY": -7
  },
  {
    "STUDYID": "CDISCPILOT01",
    "DOMAIN": "LB",
    "USUBJID": "01-701-001",
    "LBSEQ": 6,
    "LBTESTCD": "ALT",
    "LBTEST": "Alanine Aminotransferase",
    "LBCAT": "CHEMISTRY",
    "LBORRES": 22.59,
    "LBORRESU": "U/L",
    "LBSTRESN": 22.59,
    "LBSTRESU": "U/L",
    "LBSTNRLO": 7,
    "LBSTNRHI": 56,
    "LBNRIND": "NORMAL",
    "LBBLFL": "Y",
    "VISITNUM": 1,
    "VISIT": "SCREENING",
    "VISITDY": -7,
    "LBDTC": "2013-06-11",
    "LBDY": -7
  },
  {
    "STUDYID": "CDISCPILOT01",
    "DOMAIN": "LB",
    "USUBJID": "01-701-001",
    "LBSEQ": 7,
    "LBTESTCD": "AST",
    "LBTEST": "Aspartate Aminotransferase",
    "LBCAT": "CHEMISTRY",
    "LBORRES": 33.78,
    "LBORRESU": "U/L",
    "LBSTRESN": 33.78,
    "LBSTRESU": "U/L",
    "LBSTNRLO": 10,
    "LBSTNRHI": 40,
    "LBNRIND": "NORMAL",
    "LBBLFL": "Y",
    "VISITNUM": 1,
    "VISIT": "SCREENING",
    "VISITDY": -7,
    "LBDTC": "2013-06-12",
    "LBDY": -7
  },
  {
    "STUDYID": "CDISCPILOT01",
    "DOMAIN": "LB",
    "USUBJID": "01-701-001",
    "LBSEQ": 8,
    "LBTESTCD": "ALP",
    "LBTEST": "Alkaline Phosphatase",
    "LBCAT": "CHEMISTRY",
    "LBORRES": 85.89,
    "LBORRESU": "U/L",
    "LBSTRESN": 85.89,
    "LBSTRESU": "U/L",
    "LBSTNRLO": 44,
    "LBSTNRHI": 147,
    "LBNRIND": "NORMAL",
    "LBBLFL": "Y",
    "VISITNUM": 1,
    "VISIT": "SCREENING",
    "VISITDY": -7,
    "LBDTC": "2013-06-10",
    "LBDY": -7
  },
  {
    "STUDYID": "CDISCPILOT01",
    "DOMAIN": "LB",
    "USUBJID": "01-701-001",
    "LBSEQ": 9,
    "LBTESTCD": "BILI",
    "LBTEST": "Bilirubin",
    "LBCAT": "CHEMISTRY",
    "LBORRES": 0.91,
    "LBORRESU": "mg/dL",
    "LBSTRESN": 0.91,
    "LBSTRESU": "mg/dL",
    "LBSTNRLO": 0.1,
    "LBSTNRHI": 1.2,
    "LBNRIND": "NORMAL",
    "LBBLFL": "Y",
    "VISITNUM": 1,
    "VISIT": "SCREENING",
    "VISITDY": -7,
    "LBDTC": "2013-06-11",
    "LBDY": -7
  },
  {
    "STUDYID": "CDISCPILOT01",
    "DOMAIN": "LB",
    "USUBJID": "01-701-001",
    "LBSEQ": 10,
    "LBTESTCD": "ALB",
    "LBTEST": "Albumin",
    "LBCAT": "CHEMISTRY",
    "LBORRES": 3.81,
    "LBORRESU": "g/dL",
    "LBSTRESN": 3.81,
    "LBSTRESU": "g/dL",
    "LBSTNRLO": 3.5,
    "LBSTNRHI": 5,
    "LBNRIND": "NORMAL",
    "LBBLFL": "Y",
    "VISITNUM": 1,
    "VISIT": "SCREENING",
    "VISITDY": -7,
    "LBDTC": "2013-06-11",
    "LBDY": -7
  },
  {
    "STUDYID": "CDISCPILOT01",
    "DOMAIN": "LB",
    "USUBJID": "01-701-001",
    "LBSEQ": 11,
    "LBTESTCD": "CREAT",
    "LBTEST": "Creatinine",
    "LBCAT": "CHEMISTRY",
    "LBORRES": 0.99,
    "LBORRESU": "mg/dL",
    "LBSTRESN": 0.99,
    "LBSTRESU": "mg/dL",
    "LBSTNRLO": 0.7,
    "LBSTNRHI": 1.3,
    "LBNRIND": "NORMAL",
    "LBBLFL": "Y",
    "VISITNUM": 1,
    "VISIT": "SCREENING",
    "VISITDY": -7,
    "LBDTC": "2013-06-10",
    "LBDY": -7
  },
  {
    "STUDYID": "CDISCPILOT01",
    "DOMAIN": "LB",
    "USUBJID": "01-701-001",
    "LBSEQ": 12,
    "LBTESTCD": "BUN",
    "LBTEST": "Blood Urea Nitrogen",
    "LBCAT": "CHEMISTRY",
    "LBORRES": 13.58,
    "LBORRESU": "mg/dL",
    "LBSTRESN": 13.58,
    "LBSTRESU": "mg/dL",
    "LBSTNRLO": 8,
    "LBSTNRHI": 23,
    "LBNRIND": "NORMAL",
    "LBBLFL": "Y",
    "VISITNUM": 1,
    "VISIT": "SCREENING",
    "VISITDY": -7,
    "LBDTC": "2013-06-11",
    "LBDY": -7
  },
  {
    "STUDYID": "CDISCPILOT01",
    "DOMAIN": "LB",
    "USUBJID": "01-701-001",
    "LBSEQ": 13,
    "LBTESTCD": "SODIUM",
    "LBTEST": "Sodium",
    "LBCAT": "CHEMISTRY",
    "LBORRES": 139.42,
    "LBORRESU": "mmol/L",
    "LBSTRESN": 139.42,
    "LBSTRESU": "mmol/L",
    "LBSTNRLO": 136,
    "LBSTNRHI": 145,
    "LBNRIND": "NORMAL",
    "LBBLFL": "Y",
    "VISITNUM": 1,
    "VISIT": "SCREENING",
    "VISITDY": -7,
    "LBDTC": "2013-06-10",
    "LBDY": -7
  },
  {
    "STUDYID": "CDISCPILOT01",
    "DOMAIN": "LB",
    "USUBJID": "01-701-001",
    "LBSEQ": 14,
    "LBTESTCD": "POTASSIUM",
    "LBTEST": "Potassium",
    "LBCAT": "CHEMISTRY",
    "LBORRES": 3.78,
    "LBORRESU": "mmol/L",
    "LBSTRESN": 3.78,
    "LBSTRESU": "mmol/L",
    "LBSTNRLO": 3.5,
    "LBSTNRHI": 5,
    "LBNRIND": "NORMAL",
    "LBBLFL": "Y",
    "VISITNUM": 1,
    "VISIT": "SCREENING",
    "VISITDY": -7,
    "LBDTC": "2013-06-10",
    "LBDY": -7
  },
  {
    "STUDYID": "CDISCPILOT01",
    "DOMAIN": "LB",
    "USUBJID": "01-701-001",
    "LBSEQ": 15,
    "LBTESTCD": "CHLORIDE",
    "LBTEST": "Chloride",
    "LBCAT": "CHEMISTRY",
    "LBORRES": 99.84,
    "LBORRESU": "mmol/L",
    "LBSTRESN": 99.84,
    "LBSTRESU": "mmol/L",
    "LBSTNRLO": 98,
    "LBSTNRHI": 106,
    "LBNRIND": "NORMAL",
    "LBBLFL": "Y",
    "VISITNUM": 1,
    "VISIT": "SCREENING",
    "VISITDY": -7,
    "LBDTC": "2013-06-12",
    "LBDY": -7
  },
  {
    "STUDYID": "CDISCPILOT01",
    "DOMAIN": "LB",
    "USUBJID": "01-701-001",
    "LBSEQ": 16,
    "LBTESTCD": "GLUC",
    "LBTEST": "Glucose",
    "LBCAT": "CHEMISTRY",
    "LBORRES": 88.68,
    "LBORRESU": "mg/dL",
    "LBSTRESN": 88.68,
    "LBSTRESU": "mg/dL",
    "LBSTNRLO": 70,
    "LBSTNRHI": 110,
    "LBNRIND": "NORMAL",
    "LBBLFL": "Y",
    "VISITNUM": 1,
    "VISIT": "SCREENING",
    "VISITDY": -7,
    "LBDTC": "2013-06-11",
    "LBDY": -7
  },
  {
    "STUDYID": "CDISCPILOT01",
    "DOMAIN": "LB",
    "USUBJID": "01-701-001",
    "LBSEQ": 17,
    "LBTESTCD": "HGB",
    "LBTEST": "Hemoglobin",
    "LBCAT": "HEMATOLOGY",
    "LBORRES": 12.98,
    "LBORRESU": "g/dL",
    "LBSTRESN": 12.98,
    "LBSTRESU": "g/dL",
    "LBSTNRLO": 12,
    "LBSTNRHI": 15.5,
    "LBNRIND": "NORMAL",
    "LBBLFL": "",
    "VISITNUM": 2,
    "VISIT": "BASELINE",
    "VISITDY": 1,
    "LBDTC": "2013-06-18",
    "LBDY": 1
  },
  {
    "STUDYID": "CDISCPILOT01",
    "DOMAIN": "LB",
    "USUBJID": "01-701-001",
    "LBSEQ": 18,
    "LBTESTCD": "WBC",
    "LBTEST": "White Blood Cells",
    "LBCAT": "HEMATOLOGY",
    "LBORRES": 7.67,
    "LBORRESU": "10^9/L",
    "LBSTRESN": 7.67,
    "LBSTRESU": "10^9/L",
    "LBSTNRLO": 4,
    "LBSTNRHI": 11,
    "LBNRIND": "NORMAL",
    "LBBLFL": "",
    "VISITNUM": 2,
    "VISIT": "BASELINE",
    "VISITDY": 1,
    "LBDTC": "2013-06-20",
    "LBDY": 1
  },
  {
    "STUDYID": "CDISCPILOT01",
    "DOMAIN": "LB",
    "USUBJID": "01-701-001",
    "LBSEQ": 19,
    "LBTESTCD": "RBC",
    "LBTEST": "Red Blood Cells",
    "LBCAT": "HEMATOLOGY",
    "LBORRES": 5.07,
    "LBORRESU": "10^12/L",
    "LBSTRESN": 5.07,
    "LBSTRESU": "10^12/L",
    "LBSTNRLO": 4,
    "LBSTNRHI": 5,
    "LBNRIND": "HIGH",
    "LBBLFL": "",
    "VISITNUM": 2,
    "VISIT": "BASELINE",
    "VISITDY": 1,
    "LBDTC": "2013-06-19",
    "LBDY": 1
  },
  {
    "STUDYID": "CDISCPILOT01",
    "DOMAIN": "LB",
    "USUBJID": "01-701-001",
    "LBSEQ": 20,
    "LBTESTCD": "PLT",
    "LBTEST": "Platelets",
    "LBCAT": "HEMATOLOGY",
    "LBORRES": 266.31,
    "LBORRESU": "10^9/L",
    "LBSTRESN": 266.31,
    "LBSTRESU": "10^9/L",
    "LBSTNRLO": 150,
    "LBSTNRHI": 400,
    "LBNRIND": "NORMAL",
    "LBBLFL": "",
    "VISITNUM": 2,
    "VISIT": "BASELINE",
    "VISITDY": 1,
    "LBDTC": "2013-06-18",
    "LBDY": 1
  },
  {
    "STUDYID": "CDISCPILOT01",
    "DOMAIN": "LB",
    "USUBJID": "01-701-001",
    "LBSEQ": 21,
    "LBTESTCD": "HCT",
    "LBTEST": "Hematocrit",
    "LBCAT": "HEMATOLOGY",
    "LBORRES": 40.06,
    "LBORRESU": "%",
    "LBSTRESN": 40.06,
    "LBSTRESU": "%",
    "LBSTNRLO": 36,
    "LBSTNRHI": 44,
    "LBNRIND": "NORMAL",
    "LBBLFL": "",
    "VISITNUM": 2,
    "VISIT": "BASELINE",
    "VISITDY": 1,
    "LBDTC": "2013-06-20",
    "LBDY": 1
  },
  {
    "STUDYID": "CDISCPILOT01",
    "DOMAIN": "LB",
    "USUBJID": "01-701-001",
    "LBSEQ": 22,
    "LBTESTCD": "ALT",
    "LBTEST": "Alanine Aminotransferase",
    "LBCAT": "CHEMISTRY",
    "LBORRES": 24.6,
    "LBORRESU": "U/L",
    "LBSTRESN": 24.6,
    "LBSTRESU": "U/L",
    "LBSTNRLO": 7,
    "LBSTNRHI": 56,
    "LBNRIND": "NORMAL",
    "LBBLFL": "",
    "VISITNUM": 2,
    "VISIT": "BASELINE",
    "VISITDY": 1,
    "LBDTC": "2013-06-18",
    "LBDY": 1
  },
  {
    "STUDYID": "CDISCPILOT01",
    "DOMAIN": "LB",
    "USUBJID": "01-701-001",
    "LBSEQ": 23,
    "LBTESTCD": "AST",
    "LBTEST": "Aspartate Aminotransferase",
    "LBCAT": "CHEMISTRY",
    "LBORRES": 33.23,
    "LBORRESU": "U/L",
    "LBSTRESN": 33.23,
    "LBSTRESU": "U/L",
    "LBSTNRLO": 10,
    "LBSTNRHI": 40,
    "LBNRIND": "NORMAL",
    "LBBLFL": "",
    "VISITNUM": 2,
    "VISIT": "BASELINE",
    "VISITDY": 1,
    "LBDTC": "2013-06-20",
    "LBDY": 1
  },
  {
    "STUDYID": "CDISCPILOT01",
    "DOMAIN": "LB",
    "USUBJID": "01-701-001",
    "LBSEQ": 24,
    "LBTESTCD": "ALP",
    "LBTEST": "Alkaline Phosphatase",
    "LBCAT": "CHEMISTRY",
    "LBORRES": 85.77,
    "LBORRESU": "U/L",
    "LBSTRESN": 85.77,
    "LBSTRESU": "U/L",
    "LBSTNRLO": 44,
    "LBSTNRHI": 147,
    "LBNRIND": "NORMAL",
    "LBBLFL": "",
    "VISITNUM": 2,
    "VISIT": "BASELINE",
    "VISITDY": 1,
    "LBDTC": "2013-06-18",
    "LBDY": 1
  },
  {
    "STUDYID": "CDISCPILOT01",
    "DOMAIN": "LB",
    "USUBJID": "01-701-001",
    "LBSEQ": 25,
    "LBTESTCD": "BILI",
    "LBTEST": "Bilirubin",
    "LBCAT": "CHEMISTRY",
    "LBORRES": 0.95,
    "LBORRESU": "mg/dL",
    "LBSTRESN": 0.95,
    "LBSTRESU": "mg/dL",
    "LBSTNRLO": 0.1,
    "LBSTNRHI": 1.2,
    "LBNRIND": "NORMAL",
    "LBBLFL": "",
    "VISITNUM": 2,
    "VISIT": "BASELINE",
    "VISITDY": 1,
    "LBDTC": "2013-06-18",
    "LBDY": 1
  },
  {
    "STUDYID": "CDISCPILOT01",
    "DOMAIN": "LB",
    "USUBJID": "01-701-001",
    "LBSEQ": 26,
    "LBTESTCD": "ALB",
    "LBTEST": "Albumin",
    "LBCAT": "CHEMISTRY",
    "LBORRES": 3.82,
    "LBORRESU": "g/dL",
    "LBSTRESN": 3.82,
    "LBSTRESU": "g/dL",
    "LBSTNRLO": 3.5,
    "LBSTNRHI": 5,
    "LBNRIND": "NORMAL",
    "LBBLFL": "",
    "VISITNUM": 2,
    "VISIT": "BASELINE",
    "VISITDY": 1,
    "LBDTC": "2013-06-19",
    "LBDY": 1
  },
  {
    "STUDYID": "CDISCPILOT01",
    "DOMAIN": "LB",
    "USUBJID": "01-701-001",
    "LBSEQ": 27,
    "LBTESTCD": "CREAT",
    "LBTEST": "Creatinine",
    "LBCAT": "CHEMISTRY",
    "LBORRES": 0.96,
    "LBORRESU": "mg/dL",
    "LBSTRESN": 0.96,
    "LBSTRESU": "mg/dL",
    "LBSTNRLO": 0.7,
    "LBSTNRHI": 1.3,
    "LBNRIND": "NORMAL",
    "LBBLFL": "",
    "VISITNUM": 2,
    "VISIT": "BASELINE",
    "VISITDY": 1,
    "LBDTC": "2013-06-19",
    "LBDY": 1
  },
  {
    "STUDYID": "CDISCPILOT01",
    "DOMAIN": "LB",
    "USUBJID": "01-701-001",
    "LBSEQ": 28,
    "LBTESTCD": "BUN",
    "LBTEST": "Blood Urea Nitrogen",
    "LBCAT": "CHEMISTRY",
    "LBORRES": 12.5,
    "LBORRESU": "mg/dL",
    "LBSTRESN": 12.5,
    "LBSTRESU": "mg/dL",
    "LBSTNRLO": 8,
    "LBSTNRHI": 23,
    "LBNRIND": "NORMAL",
    "LBBLFL": "",
    "VISITNUM": 2,
    "VISIT": "BASELINE",
    "VISITDY": 1,
    "LBDTC": "2013-06-18",
    "LBDY": 1
  },
  {
    "STUDYID": "CDISCPILOT01",
    "DOMAIN": "LB",
    "USUBJID": "01-701-001",
    "LBSEQ": 29,
    "LBTESTCD": "SODIUM",
    "LBTEST": "Sodium",
    "LBCAT": "CHEMISTRY",
    "LBORRES": 140.39,
    "LBORRESU": "mmol/L",
    "LBSTRESN": 140.39,
    "LBSTRESU": "mmol/L",
    "LBSTNRLO": 136,
    "LBSTNRHI": 145,
    "LBNRIND": "NORMAL",
    "LBBLFL": "",
    "VISITNUM": 2,
    "VISIT": "BASELINE",
    "VISITDY": 1,
    "LBDTC": "2013-06-18",
    "LBDY": 1
  },
  {
    "STUDYID": "CDISCPILOT01",
    "DOMAIN": "LB",
    "USUBJID": "01-701-001",
    "LBSEQ": 30,
    "LBTESTCD": "POTASSIUM",
    "LBTEST": "Potassium",
    "LBCAT": "CHEMISTRY",
    "LBORRES": 3.76,
    "LBORRESU": "mmol/L",
    "LBSTRESN": 3.76,
    "LBSTRESU": "mmol/L",
    "LBSTNRLO": 3.5,
    "LBSTNRHI": 5,
    "LBNRIND": "NORMAL",
    "LBBLFL": "",
    "VISITNUM": 2,
    "VISIT": "BASELINE",
    "VISITDY": 1,
    "LBDTC": "2013-06-20",
    "LBDY": 1
  },
  {
    "STUDYID": "CDISCPILOT01",
    "DOMAIN": "LB",
    "USUBJID": "01-701-001",
    "LBSEQ": 31,
    "LBTESTCD": "CHLORIDE",
    "LBTEST": "Chloride",
    "LBCAT": "CHEMISTRY",
    "LBORRES": 99.96,
    "LBORRESU": "mmol/L",
    "LBSTRESN": 99.96,
    "LBSTRESU": "mmol/L",
    "LBSTNRLO": 98,
    "LBSTNRHI": 106,
    "LBNRIND": "NORMAL",
    "LBBLFL": "",
    "VISITNUM": 2,
    "VISIT": "BASELINE",
    "VISITDY": 1,
    "LBDTC": "2013-06-18",
    "LBDY": 1
  },
  {
    "STUDYID": "CDISCPILOT01",
    "DOMAIN": "LB",
    "USUBJID": "01-701-001",
    "LBSEQ": 32,
    "LBTESTCD": "GLUC",
    "LBTEST": "Glucose",
    "LBCAT": "CHEMISTRY",
    "LBORRES": 87.06,
    "LBORRESU": "mg/dL",
    "LBSTRESN": 87.06,
    "LBSTRESU": "mg/dL",
    "LBSTNRLO": 70,
    "LBSTNRHI": 110,
    "LBNRIND": "NORMAL",
    "LBBLFL": "",
    "VISITNUM": 2,
    "VISIT": "BASELINE",
    "VISITDY": 1,
    "LBDTC": "2013-06-20",
    "LBDY": 1
  },
  {
    "STUDYID": "CDISCPILOT01",
    "DOMAIN": "LB",
    "USUBJID": "01-701-001",
    "LBSEQ": 33,
    "LBTESTCD": "HGB",
    "LBTEST": "Hemoglobin",
    "LBCAT": "HEMATOLOGY",
    "LBORRES": 12.98,
    "LBORRESU": "g/dL",
    "LBSTRESN": 12.98,
    "LBSTRESU": "g/dL",
    "LBSTNRLO": 12,
    "LBSTNRHI": 15.5,
    "LBNRIND": "NORMAL",
    "LBBLFL": "",
    "VISITNUM": 5,
    "VISIT": "WEEK 8",
    "VISITDY": 57,
    "LBDTC": "2013-08-13",
    "LBDY": 57
  },
  {
    "STUDYID": "CDISCPILOT01",
    "DOMAIN": "LB",
    "USUBJID": "01-701-001",
    "LBSEQ": 34,
    "LBTESTCD": "WBC",
    "LBTEST": "White Blood Cells",
    "LBCAT": "HEMATOLOGY",
    "LBORRES": 8.03,
    "LBORRESU": "10^9/L",
    "LBSTRESN": 8.03,
    "LBSTRESU": "10^9/L",
    "LBSTNRLO": 4,
    "LBSTNRHI": 11,
    "LBNRIND": "NORMAL",
    "LBBLFL": "",
    "VISITNUM": 5,
    "VISIT": "WEEK 8",
    "VISITDY": 57,
    "LBDTC": "2013-08-14",
    "LBDY": 57
  },
  {
    "STUDYID": "CDISCPILOT01",
    "DOMAIN": "LB",
    "USUBJID": "01-701-001",
    "LBSEQ": 35,
    "LBTESTCD": "RBC",
    "LBTEST": "Red Blood Cells",
    "LBCAT": "HEMATOLOGY",
    "LBORRES": 4.97,
    "LBORRESU": "10^12/L",
    "LBSTRESN": 4.97,
    "LBSTRESU": "10^12/L",
    "LBSTNRLO": 4,
    "LBSTNRHI": 5,
    "LBNRIND": "NORMAL",
    "LBBLFL": "",
    "VISITNUM": 5,
    "VISIT": "WEEK 8",
    "VISITDY": 57,
    "LBDTC": "2013-08-13",
    "LBDY": 57
  },
  {
    "STUDYID": "CDISCPILOT01",
    "DOMAIN": "LB",
    "USUBJID": "01-701-001",
    "LBSEQ": 36,
    "LBTESTCD": "PLT",
    "LBTEST": "Platelets",
    "LBCAT": "HEMATOLOGY",
    "LBORRES": 270.8,
    "LBORRESU": "10^9/L",
    "LBSTRESN": 270.8,
    "LBSTRESU": "10^9/L",
    "LBSTNRLO": 150,
    "LBSTNRHI": 400,
    "LBNRIND": "NORMAL",
    "LBBLFL": "",
    "VISITNUM": 5,
    "VISIT": "WEEK 8",
    "VISITDY": 57,
    "LBDTC": "2013-08-15",
    "LBDY": 57
  },
  {
    "STUDYID": "CDISCPILOT01",
    "DOMAIN": "LB",
    "USUBJID": "01-701-001",
    "LBSEQ": 37,
    "LBTESTCD": "HCT",
    "LBTEST": "Hematocrit",
    "LBCAT": "HEMATOLOGY",
    "LBORRES": 39.72,
    "LBORRESU": "%",
    "LBSTRESN": 39.72,
    "LBSTRESU": "%",
    "LBSTNRLO": 36,
    "LBSTNRHI": 44,
    "LBNRIND": "NORMAL",
    "LBBLFL": "",
    "VISITNUM": 5,
    "VISIT": "WEEK 8",
    "VISITDY": 57,
    "LBDTC": "2013-08-14",
    "LBDY": 57
  },
  {
    "STUDYID": "CDISCPILOT01",
    "DOMAIN": "LB",
    "USUBJID": "01-701-001",
    "LBSEQ": 38,
    "LBTESTCD": "ALT",
    "LBTEST": "Alanine Aminotransferase",
    "LBCAT": "CHEMISTRY",
    "LBORRES": 22.82,
    "LBORRESU": "U/L",
    "LBSTRESN": 22.82,
    "LBSTRESU": "U/L",
    "LBSTNRLO": 7,
    "LBSTNRHI": 56,
    "LBNRIND": "NORMAL",
    "LBBLFL": "",
    "VISITNUM": 5,
    "VISIT": "WEEK 8",
    "VISITDY": 57,
    "LBDTC": "2013-08-14",
    "LBDY": 57
  },
  {
    "STUDYID": "CDISCPILOT01",
    "DOMAIN": "LB",
    "USUBJID": "01-701-001",
    "LBSEQ": 39,
    "LBTESTCD": "AST",
    "LBTEST": "Aspartate Aminotransferase",
    "LBCAT": "CHEMISTRY",
    "LBORRES": 35.69,
    "LBORRESU": "U/L",
    "LBSTRESN": 35.69,
    "LBSTRESU": "U/L",
    "LBSTNRLO": 10,
    "LBSTNRHI": 40,
    "LBNRIND": "NORMAL",
    "LBBLFL": "",
    "VISITNUM": 5,
    "VISIT": "WEEK 8",
    "VISITDY": 57,
    "LBDTC": "2013-08-15",
    "LBDY": 57
  },
  {
    "STUDYID": "CDISCPILOT01",
    "DOMAIN": "LB",
    "USUBJID": "01-701-001",
    "LBSEQ": 40,
    "LBTESTCD": "ALP",
    "LBTEST": "Alkaline Phosphatase",
    "LBCAT": "CHEMISTRY",
    "LBORRES": 87.78,
    "LBORRESU": "U/L",
    "LBSTRESN": 87.78,
    "LBSTRESU": "U/L",
    "LBSTNRLO": 44,
    "LBSTNRHI": 147,
    "LBNRIND": "NORMAL",
    "LBBLFL": "",
    "VISITNUM": 5,
    "VISIT": "WEEK 8",
    "VISITDY": 57,
    "LBDTC": "2013-08-15",
    "LBDY": 57
  },
  {
    "STUDYID": "CDISCPILOT01",
    "DOMAIN": "LB",
    "USUBJID": "01-701-001",
    "LBSEQ": 41,
    "LBTESTCD": "BILI",
    "LBTEST": "Bilirubin",
    "LBCAT": "CHEMISTRY",
    "LBORRES": 0.9,
    "LBORRESU": "mg/dL",
    "LBSTRESN": 0.9,
    "LBSTRESU": "mg/dL",
    "LBSTNRLO": 0.1,
    "LBSTNRHI": 1.2,
    "LBNRIND": "NORMAL",
    "LBBLFL": "",
    "VISITNUM": 5,
    "VISIT": "WEEK 8",
    "VISITDY": 57,
    "LBDTC": "2013-08-14",
    "LBDY": 57
  },
  {
    "STUDYID": "CDISCPILOT01",
    "DOMAIN": "LB",
    "USUBJID": "01-701-001",
    "LBSEQ": 42,
    "LBTESTCD": "ALB",
    "LBTEST": "Albumin",
    "LBCAT": "CHEMISTRY",
    "LBORRES": 3.79,
    "LBORRESU": "g/dL",
    "LBSTRESN": 3.79,
    "LBSTRESU": "g/dL",
    "LBSTNRLO": 3.5,
    "LBSTNRHI": 5,
    "LBNRIND": "NORMAL",
    "LBBLFL": "",
    "VISITNUM": 5,
    "VISIT": "WEEK 8",
    "VISITDY": 57,
    "LBDTC": "2013-08-13",
    "LBDY": 57
  },
  {
    "STUDYID": "CDISCPILOT01",
    "DOMAIN": "LB",
    "USUBJID": "01-701-001",
    "LBSEQ": 43,
    "LBTESTCD": "CREAT",
    "LBTEST": "Creatinine",
    "LBCAT": "CHEMISTRY",
    "LBORRES": 0.92,
    "LBORRESU": "mg/dL",
    "LBSTRESN": 0.92,
    "LBSTRESU": "mg/dL",
    "LBSTNRLO": 0.7,
    "LBSTNRHI": 1.3,
    "LBNRIND": "NORMAL",
    "LBBLFL": "",
    "VISITNUM": 5,
    "VISIT": "WEEK 8",
    "VISITDY": 57,
    "LBDTC": "2013-08-13",
    "LBDY": 57
  },
  {
    "STUDYID": "CDISCPILOT01",
    "DOMAIN": "LB",
    "USUBJID": "01-701-001",
    "LBSEQ": 44,
    "LBTESTCD": "BUN",
    "LBTEST": "Blood Urea Nitrogen",
    "LBCAT": "CHEMISTRY",
    "LBORRES": 13.77,
    "LBORRESU": "mg/dL",
    "LBSTRESN": 13.77,
    "LBSTRESU": "mg/dL",
    "LBSTNRLO": 8,
    "LBSTNRHI": 23,
    "LBNRIND": "NORMAL",
    "LBBLFL": "",
    "VISITNUM": 5,
    "VISIT": "WEEK 8",
    "VISITDY": 57,
    "LBDTC": "2013-08-15",
    "LBDY": 57
  },
  {
    "STUDYID": "CDISCPILOT01",
    "DOMAIN": "LB",
    "USUBJID": "01-701-001",
    "LBSEQ": 45,
    "LBTESTCD": "SODIUM",
    "LBTEST": "Sodium",
    "LBCAT": "CHEMISTRY",
    "LBORRES": 139.12,
    "LBORRESU": "mmol/L",
    "LBSTRESN": 139.12,
    "LBSTRESU": "mmol/L",
    "LBSTNRLO": 136,
    "LBSTNRHI": 145,
    "LBNRIND": "NORMAL",
    "LBBLFL": "",
    "VISITNUM": 5,
    "VISIT": "WEEK 8",
    "VISITDY": 57,
    "LBDTC": "2013-08-15",
    "LBDY": 57
  },
  {
    "STUDYID": "CDISCPILOT01",
    "DOMAIN": "LB",
    "USUBJID": "01-701-001",
    "LBSEQ": 46,
    "LBTESTCD": "POTASSIUM",
    "LBTEST": "Potassium",
    "LBCAT": "CHEMISTRY",
    "LBORRES": 3.8,
    "LBORRESU": "mmol/L",
    "LBSTRESN": 3.8,
    "LBSTRESU": "mmol/L",
    "LBSTNRLO": 3.5,
    "LBSTNRHI": 5,
    "LBNRIND": "NORMAL",
    "LBBLFL": "",
    "VISITNUM": 5,
    "VISIT": "WEEK 8",
    "VISITDY": 57,
    "LBDTC": "2013-08-15",
    "LBDY": 57
  },
  {
    "STUDYID": "CDISCPILOT01",
    "DOMAIN": "LB",
    "USUBJID": "01-701-001",
    "LBSEQ": 47,
    "LBTESTCD": "CHLORIDE",
    "LBTEST": "Chloride",
    "LBCAT": "CHEMISTRY",
    "LBORRES": 98.97,
    "LBORRESU": "mmol/L",
    "LBSTRESN": 98.97,
    "LBSTRESU": "mmol/L",
    "LBSTNRLO": 98,
    "LBSTNRHI": 106,
    "LBNRIND": "NORMAL",
    "LBBLFL": "",
    "VISITNUM": 5,
    "VISIT": "WEEK 8",
    "VISITDY": 57,
    "LBDTC": "2013-08-14",
    "LBDY": 57
  },
  {
    "STUDYID": "CDISCPILOT01",
    "DOMAIN": "LB",
    "USUBJID": "01-701-001",
    "LBSEQ": 48,
    "LBTESTCD": "GLUC",
    "LBTEST": "Glucose",
    "LBCAT": "CHEMISTRY",
    "LBORRES": 85.54,
    "LBORRESU": "mg/dL",
    "LBSTRESN": 85.54,
    "LBSTRESU": "mg/dL",
    "LBSTNRLO": 70,
    "LBSTNRHI": 110,
    "LBNRIND": "NORMAL",
    "LBBLFL": "",
    "VISITNUM": 5,
    "VISIT": "WEEK 8",
    "VISITDY": 57,
    "LBDTC": "2013-08-13",
    "LBDY": 57
  },
  {
    "STUDYID": "CDISCPILOT01",
    "DOMAIN": "LB",
    "USUBJID": "01-701-001",
    "LBSEQ": 49,
    "LBTESTCD": "HGB",
    "LBTEST": "Hemoglobin",
    "LBCAT": "HEMATOLOGY",
    "LBORRES": 13.11,
    "LBORRESU": "g/dL",
    "LBSTRESN": 13.11,
    "LBSTRESU": "g/dL",
    "LBSTNRLO": 12,
    "LBSTNRHI": 15.5,
    "LBNRIND": "NORMAL",
    "LBBLFL": "",
    "VISITNUM": 7,
    "VISIT": "WEEK 16",
    "VISITDY": 113,
    "LBDTC": "2013-10-09",
    "LBDY": 113
  },
  {
    "STUDYID": "CDISCPILOT01",
    "DOMAIN": "LB",
    "USUBJID": "01-701-001",
    "LBSEQ": 50,
    "LBTESTCD": "WBC",
    "LBTEST": "White Blood Cells",
    "LBCAT": "HEMATOLOGY",
    "LBORRES": 7.95,
    "LBORRESU": "10^9/L",
    "LBSTRESN": 7.95,
    "LBSTRESU": "10^9/L",
    "LBSTNRLO": 4,
    "LBSTNRHI": 11,
    "LBNRIND": "NORMAL",
    "LBBLFL": "",
    "VISITNUM": 7,
    "VISIT": "WEEK 16",
    "VISITDY": 113,
    "LBDTC": "2013-10-08",
    "LBDY": 113
  },
  {
    "STUDYID": "CDISCPILOT01",
    "DOMAIN": "LB",
    "USUBJID": "01-701-001",
    "LBSEQ": 51,
    "LBTESTCD": "RBC",
    "LBTEST": "Red Blood Cells",
    "LBCAT": "HEMATOLOGY",
    "LBORRES": 5.1,
    "LBORRESU": "10^12/L",
    "LBSTRESN": 5.1,
    "LBSTRESU": "10^12/L",
    "LBSTNRLO": 4,
    "LBSTNRHI": 5,
    "LBNRIND": "HIGH",
    "LBBLFL": "",
    "VISITNUM": 7,
    "VISIT": "WEEK 16",
    "VISITDY": 113,
    "LBDTC": "2013-10-10",
    "LBDY": 113
  },
  {
    "STUDYID": "CDISCPILOT01",
    "DOMAIN": "LB",
    "USUBJID": "01-701-001",
    "LBSEQ": 52,
    "LBTESTCD": "PLT",
    "LBTEST": "Platelets",
    "LBCAT": "HEMATOLOGY",
    "LBORRES": 269.22,
    "LBORRESU": "10^9/L",
    "LBSTRESN": 269.22,
    "LBSTRESU": "10^9/L",
    "LBSTNRLO": 150,
    "LBSTNRHI": 400,
    "LBNRIND": "NORMAL",
    "LBBLFL": "",
    "VISITNUM": 7,
    "VISIT": "WEEK 16",
    "VISITDY": 113,
    "LBDTC": "2013-10-10",
    "LBDY": 113
  },
  {
    "STUDYID": "CDISCPILOT01",
    "DOMAIN": "LB",
    "USUBJID": "01-701-001",
    "LBSEQ": 53,
    "LBTESTCD": "HCT",
    "LBTEST": "Hematocrit",
    "LBCAT": "HEMATOLOGY",
    "LBORRES": 40.31,
    "LBORRESU": "%",
    "LBSTRESN": 40.31,
    "LBSTRESU": "%",
    "LBSTNRLO": 36,
    "LBSTNRHI": 44,
    "LBNRIND": "NORMAL",
    "LBBLFL": "",
    "VISITNUM": 7,
    "VISIT": "WEEK 16",
    "VISITDY": 113,
    "LBDTC": "2013-10-08",
    "LBDY": 113
  },
  {
    "STUDYID": "CDISCPILOT01",
    "DOMAIN": "LB",
    "USUBJID": "01-701-001",
    "LBSEQ": 54,
    "LBTESTCD": "ALT",
    "LBTEST": "Alanine Aminotransferase",
    "LBCAT": "CHEMISTRY",
    "LBORRES": 24.16,
    "LBORRESU": "U/L",
    "LBSTRESN": 24.16,
    "LBSTRESU": "U/L",
    "LBSTNRLO": 7,
    "LBSTNRHI": 56,
    "LBNRIND": "NORMAL",
    "LBBLFL": "",
    "VISITNUM": 7,
    "VISIT": "WEEK 16",
    "VISITDY": 113,
    "LBDTC": "2013-10-09",
    "LBDY": 113
  },
  {
    "STUDYID": "CDISCPILOT01",
    "DOMAIN": "LB",
    "USUBJID": "01-701-001",
    "LBSEQ": 55,
    "LBTESTCD": "AST",
    "LBTEST": "Aspartate Aminotransferase",
    "LBCAT": "CHEMISTRY",
    "LBORRES": 34.21,
    "LBORRESU": "U/L",
    "LBSTRESN": 34.21,
    "LBSTRESU": "U/L",
    "LBSTNRLO": 10,
    "LBSTNRHI": 40,
    "LBNRIND": "NORMAL",
    "LBBLFL": "",
    "VISITNUM": 7,
    "VISIT": "WEEK 16",
    "VISITDY": 113,
    "LBDTC": "2013-10-08",
    "LBDY": 113
  },
  {
    "STUDYID": "CDISCPILOT01",
    "DOMAIN": "LB",
    "USUBJID": "01-701-001",
    "LBSEQ": 56,
    "LBTESTCD": "ALP",
    "LBTEST": "Alkaline Phosphatase",
    "LBCAT": "CHEMISTRY",
    "LBORRES": 86.01,
    "LBORRESU": "U/L",
    "LBSTRESN": 86.01,
    "LBSTRESU": "U/L",
    "LBSTNRLO": 44,
    "LBSTNRHI": 147,
    "LBNRIND": "NORMAL",
    "LBBLFL": "",
    "VISITNUM": 7,
    "VISIT": "WEEK 16",
    "VISITDY": 113,
    "LBDTC": "2013-10-10",
    "LBDY": 113
  },
  {
    "STUDYID": "CDISCPILOT01",
    "DOMAIN": "LB",
    "USUBJID": "01-701-001",
    "LBSEQ": 57,
    "LBTESTCD": "BILI",
    "LBTEST": "Bilirubin",
    "LBCAT": "CHEMISTRY",
    "LBORRES": 0.88,
    "LBORRESU": "mg/dL",
    "LBSTRESN": 0.88,
    "LBSTRESU": "mg/dL",
    "LBSTNRLO": 0.1,
    "LBSTNRHI": 1.2,
    "LBNRIND": "NORMAL",
    "LBBLFL": "",
    "VISITNUM": 7,
    "VISIT": "WEEK 16",
    "VISITDY": 113,
    "LBDTC": "2013-10-09",
    "LBDY": 113
  },
  {
    "STUDYID": "CDISCPILOT01",
    "DOMAIN": "LB",
    "USUBJID": "01-701-001",
    "LBSEQ": 58,
    "LBTESTCD": "ALB",
    "LBTEST": "Albumin",
    "LBCAT": "CHEMISTRY",
    "LBORRES": 3.77,
    "LBORRESU": "g/dL",
    "LBSTRESN": 3.77,
    "LBSTRESU": "g/dL",
    "LBSTNRLO": 3.5,
    "LBSTNRHI": 5,
    "LBNRIND": "NORMAL",
    "LBBLFL": "",
    "VISITNUM": 7,
    "VISIT": "WEEK 16",
    "VISITDY": 113,
    "LBDTC": "2013-10-10",
    "LBDY": 113
  },
  {
    "STUDYID": "CDISCPILOT01",
    "DOMAIN": "LB",
    "USUBJID": "01-701-001",
    "LBSEQ": 59,
    "LBTESTCD": "CREAT",
    "LBTEST": "Creatinine",
    "LBCAT": "CHEMISTRY",
    "LBORRES": 0.96,
    "LBORRESU": "mg/dL",
    "LBSTRESN": 0.96,
    "LBSTRESU": "mg/dL",
    "LBSTNRLO": 0.7,
    "LBSTNRHI": 1.3,
    "LBNRIND": "NORMAL",
    "LBBLFL": "",
    "VISITNUM": 7,
    "VISIT": "WEEK 16",
    "VISITDY": 113,
    "LBDTC": "2013-10-08",
    "LBDY": 113
  },
  {
    "STUDYID": "CDISCPILOT01",
    "DOMAIN": "LB",
    "USUBJID": "01-701-001",
    "LBSEQ": 60,
    "LBTESTCD": "BUN",
    "LBTEST": "Blood Urea Nitrogen",
    "LBCAT": "CHEMISTRY",
    "LBORRES": 12.72,
    "LBORRESU": "mg/dL",
    "LBSTRESN": 12.72,
    "LBSTRESU": "mg/dL",
    "LBSTNRLO": 8,
    "LBSTNRHI": 23,
    "LBNRIND": "NORMAL",
    "LBBLFL": "",
    "VISITNUM": 7,
    "VISIT": "WEEK 16",
    "VISITDY": 113,
    "LBDTC": "2013-10-09",
    "LBDY": 113
  },
  {
    "STUDYID": "CDISCPILOT01",
    "DOMAIN": "LB",
    "USUBJID": "01-701-001",
    "LBSEQ": 61,
    "LBTESTCD": "SODIUM",
    "LBTEST": "Sodium",
    "LBCAT": "CHEMISTRY",
    "LBORRES": 139.25,
    "LBORRESU": "mmol/L",
    "LBSTRESN": 139.25,
    "LBSTRESU": "mmol/L",
    "LBSTNRLO": 136,
    "LBSTNRHI": 145,
    "LBNRIND": "NORMAL",
    "LBBLFL": "",
    "VISITNUM": 7,
    "VISIT": "WEEK 16",
    "VISITDY": 113,
    "LBDTC": "2013-10-08",
    "LBDY": 113
  },
  {
    "STUDYID": "CDISCPILOT01",
    "DOMAIN": "LB",
    "USUBJID": "01-701-001",
    "LBSEQ": 62,
    "LBTESTCD": "POTASSIUM",
    "LBTEST": "Potassium",
    "LBCAT": "CHEMISTRY",
    "LBORRES": 3.84,
    "LBORRESU": "mmol/L",
    "LBSTRESN": 3.84,
    "LBSTRESU": "mmol/L",
    "LBSTNRLO": 3.5,
    "LBSTNRHI": 5,
    "LBNRIND": "NORMAL",
    "LBBLFL": "",
    "VISITNUM": 7,
    "VISIT": "WEEK 16",
    "VISITDY": 113,
    "LBDTC": "2013-10-10",
    "LBDY": 113
  },
  {
    "STUDYID": "CDISCPILOT01",
    "DOMAIN": "LB",
    "USUBJID": "01-701-001",
    "LBSEQ": 63,
    "LBTESTCD": "CHLORIDE",
    "LBTEST": "Chloride",
    "LBCAT": "CHEMISTRY",
    "LBORRES": 99.97,
    "LBORRESU": "mmol/L",
    "LBSTRESN": 99.97,
    "LBSTRESU": "mmol/L",
    "LBSTNRLO": 98,
    "LBSTNRHI": 106,
    "LBNRIND": "NORMAL",
    "LBBLFL": "",
    "VISITNUM": 7,
    "VISIT": "WEEK 16",
    "VISITDY": 113,
    "LBDTC": "2013-10-09",
    "LBDY": 113
  },
  {
    "STUDYID": "CDISCPILOT01",
    "DOMAIN": "LB",
    "USUBJID": "01-701-001",
    "LBSEQ": 64,
    "LBTESTCD": "GLUC",
    "LBTEST": "Glucose",
    "LBCAT": "CHEMISTRY",
    "LBORRES": 87.84,
    "LBORRESU": "mg/dL",
    "LBSTRESN": 87.84,
    "LBSTRESU": "mg/dL",
    "LBSTNRLO": 70,
    "LBSTNRHI": 110,
    "LBNRIND": "NORMAL",
    "LBBLFL": "",
    "VISITNUM": 7,
    "VISIT": "WEEK 16",
    "VISITDY": 113,
    "LBDTC": "2013-10-10",
    "LBDY": 113
  },
  {
    "STUDYID": "CDISCPILOT01",
    "DOMAIN": "LB",
    "USUBJID": "01-701-001",
    "LBSEQ": 65,
    "LBTESTCD": "HGB",
    "LBTEST": "Hemoglobin",
    "LBCAT": "HEMATOLOGY",
    "LBORRES": 12.81,
    "LBORRESU": "g/dL",
    "LBSTRESN": 12.81,
    "LBSTRESU": "g/dL",
    "LBSTNRLO": 12,
    "LBSTNRHI": 15.5,
    "LBNRIND": "NORMAL",
    "LBBLFL": "",
    "VISITNUM": 9,
    "VISIT": "WEEK 24",
    "VISITDY": 169,
    "LBDTC": "2013-12-03",
    "LBDY": 169
  },
  {
    "STUDYID": "CDISCPILOT01",
    "DOMAIN": "LB",
    "USUBJID": "01-701-001",
    "LBSEQ": 66,
    "LBTESTCD": "WBC",
    "LBTEST": "White Blood Cells",
    "LBCAT": "HEMATOLOGY",
    "LBORRES": 7.73,
    "LBORRESU": "10^9/L",
    "LBSTRESN": 7.73,
    "LBSTRESU": "10^9/L",
    "LBSTNRLO": 4,
    "LBSTNRHI": 11,
    "LBNRIND": "NORMAL",
    "LBBLFL": "",
    "VISITNUM": 9,
    "VISIT": "WEEK 24",
    "VISITDY": 169,
    "LBDTC": "2013-12-03",
    "LBDY": 169
  },
  {
    "STUDYID": "CDISCPILOT01",
    "DOMAIN": "LB",
    "USUBJID": "01-701-001",
    "LBSEQ": 67,
    "LBTESTCD": "RBC",
    "LBTEST": "Red Blood Cells",
    "LBCAT": "HEMATOLOGY",
    "LBORRES": 5.08,
    "LBORRESU": "10^12/L",
    "LBSTRESN": 5.08,
    "LBSTRESU": "10^12/L",
    "LBSTNRLO": 4,
    "LBSTNRHI": 5,
    "LBNRIND": "HIGH",
    "LBBLFL": "",
    "VISITNUM": 9,
    "VISIT": "WEEK 24",
    "VISITDY": 169,
    "LBDTC": "2013-12-03",
    "LBDY": 169
  },
  {
    "STUDYID": "CDISCPILOT01",
    "DOMAIN": "LB",
    "USUBJID": "01-701-001",
    "LBSEQ": 68,
    "LBTESTCD": "PLT",
    "LBTEST": "Platelets",
    "LBCAT": "HEMATOLOGY",
    "LBORRES": 266.77,
    "LBORRESU": "10^9/L",
    "LBSTRESN": 266.77,
    "LBSTRESU": "10^9/L",
    "LBSTNRLO": 150,
    "LBSTNRHI": 400,
    "LBNRIND": "NORMAL",
    "LBBLFL": "",
    "VISITNUM": 9,
    "VISIT": "WEEK 24",
    "VISITDY": 169,
    "LBDTC": "2013-12-05",
    "LBDY": 169
  },
  {
    "STUDYID": "CDISCPILOT01",
    "DOMAIN": "LB",
    "USUBJID": "01-701-001",
    "LBSEQ": 69,
    "LBTESTCD": "HCT",
    "LBTEST": "Hematocrit",
    "LBCAT": "HEMATOLOGY",
    "LBORRES": 40.07,
    "LBORRESU": "%",
    "LBSTRESN": 40.07,
    "LBSTRESU": "%",
    "LBSTNRLO": 36,
    "LBSTNRHI": 44,
    "LBNRIND": "NORMAL",
    "LBBLFL": "",
    "VISITNUM": 9,
    "VISIT": "WEEK 24",
    "VISITDY": 169,
    "LBDTC": "2013-12-04",
    "LBDY": 169
  },
  {
    "STUDYID": "CDISCPILOT01",
    "DOMAIN": "LB",
    "USUBJID": "01-701-001",
    "LBSEQ": 70,
    "LBTESTCD": "ALT",
    "LBTEST": "Alanine Aminotransferase",
    "LBCAT": "CHEMISTRY",
    "LBORRES": 21.97,
    "LBORRESU": "U/L",
    "LBSTRESN": 21.97,
    "LBSTRESU": "U/L",
    "LBSTNRLO": 7,
    "LBSTNRHI": 56,
    "LBNRIND": "NORMAL",
    "LBBLFL": "",
    "VISITNUM": 9,
    "VISIT": "WEEK 24",
    "VISITDY": 169,
    "LBDTC": "2013-12-04",
    "LBDY": 169
  },
  {
    "STUDYID": "CDISCPILOT01",
    "DOMAIN": "LB",
    "USUBJID": "01-701-001",
    "LBSEQ": 71,
    "LBTESTCD": "AST",
    "LBTEST": "Aspartate Aminotransferase",
    "LBCAT": "CHEMISTRY",
    "LBORRES": 34.57,
    "LBORRESU": "U/L",
    "LBSTRESN": 34.57,
    "LBSTRESU": "U/L",
    "LBSTNRLO": 10,
    "LBSTNRHI": 40,
    "LBNRIND": "NORMAL",
    "LBBLFL": "",
    "VISITNUM": 9,
    "VISIT": "WEEK 24",
    "VISITDY": 169,
    "LBDTC": "2013-12-04",
    "LBDY": 169
  },
  {
    "STUDYID": "CDISCPILOT01",
    "DOMAIN": "LB",
    "USUBJID": "01-701-001",
    "LBSEQ": 72,
    "LBTESTCD": "ALP",
    "LBTEST": "Alkaline Phosphatase",
    "LBCAT": "CHEMISTRY",
    "LBORRES": 86.43,
    "LBORRESU": "U/L",
    "LBSTRESN": 86.43,
    "LBSTRESU": "U/L",
    "LBSTNRLO": 44,
    "LBSTNRHI": 147,
    "LBNRIND": "NORMAL",
    "LBBLFL": "",
    "VISITNUM": 9,
    "VISIT": "WEEK 24",
    "VISITDY": 169,
    "LBDTC": "2013-12-05",
    "LBDY": 169
  },
  {
    "STUDYID": "CDISCPILOT01",
    "DOMAIN": "LB",
    "USUBJID": "01-701-001",
    "LBSEQ": 73,
    "LBTESTCD": "BILI",
    "LBTEST": "Bilirubin",
    "LBCAT": "CHEMISTRY",
    "LBORRES": 0.86,
    "LBORRESU": "mg/dL",
    "LBSTRESN": 0.86,
    "LBSTRESU": "mg/dL",
    "LBSTNRLO": 0.1,
    "LBSTNRHI": 1.2,
    "LBNRIND": "NORMAL",
    "LBBLFL": "",
    "VISITNUM": 9,
    "VISIT": "WEEK 24",
    "VISITDY": 169,
    "LBDTC": "2013-12-04",
    "LBDY": 169
  },
  {
    "STUDYID": "CDISCPILOT01",
    "DOMAIN": "LB",
    "USUBJID": "01-701-001",
    "LBSEQ": 74,
    "LBTESTCD": "ALB",
    "LBTEST": "Albumin",
    "LBCAT": "CHEMISTRY",
    "LBORRES": 3.82,
    "LBORRESU": "g/dL",
    "LBSTRESN": 3.82,
    "LBSTRESU": "g/dL",
    "LBSTNRLO": 3.5,
    "LBSTNRHI": 5,
    "LBNRIND": "NORMAL",
    "LBBLFL": "",
    "VISITNUM": 9,
    "VISIT": "WEEK 24",
    "VISITDY": 169,
    "LBDTC": "2013-12-05",
    "LBDY": 169
  },
  {
    "STUDYID": "CDISCPILOT01",
    "DOMAIN": "LB",
    "USUBJID": "01-701-001",
    "LBSEQ": 75,
    "LBTESTCD": "CREAT",
    "LBTEST": "Creatinine",
    "LBCAT": "CHEMISTRY",
    "LBORRES": 0.99,
    "LBORRESU": "mg/dL",
    "LBSTRESN": 0.99,
    "LBSTRESU": "mg/dL",
    "LBSTNRLO": 0.7,
    "LBSTNRHI": 1.3,
    "LBNRIND": "NORMAL",
    "LBBLFL": "",
    "VISITNUM": 9,
    "VISIT": "WEEK 24",
    "VISITDY": 169,
    "LBDTC": "2013-12-05",
    "LBDY": 169
  },
  {
    "STUDYID": "CDISCPILOT01",
    "DOMAIN": "LB",
    "USUBJID": "01-701-001",
    "LBSEQ": 76,
    "LBTESTCD": "BUN",
    "LBTEST": "Blood Urea Nitrogen",
    "LBCAT": "CHEMISTRY",
    "LBORRES": 13.79,
    "LBORRESU": "mg/dL",
    "LBSTRESN": 13.79,
    "LBSTRESU": "mg/dL",
    "LBSTNRLO": 8,
    "LBSTNRHI": 23,
    "LBNRIND": "NORMAL",
    "LBBLFL": "",
    "VISITNUM": 9,
    "VISIT": "WEEK 24",
    "VISITDY": 169,
    "LBDTC": "2013-12-05",
    "LBDY": 169
  },
  {
    "STUDYID": "CDISCPILOT01",
    "DOMAIN": "LB",
    "USUBJID": "01-701-001",
    "LBSEQ": 77,
    "LBTESTCD": "SODIUM",
    "LBTEST": "Sodium",
    "LBCAT": "CHEMISTRY",
    "LBORRES": 139.49,
    "LBORRESU": "mmol/L",
    "LBSTRESN": 139.49,
    "LBSTRESU": "mmol/L",
    "LBSTNRLO": 136,
    "LBSTNRHI": 145,
    "LBNRIND": "NORMAL",
    "LBBLFL": "",
    "VISITNUM": 9,
    "VISIT": "WEEK 24",
    "VISITDY": 169,
    "LBDTC": "2013-12-05",
    "LBDY": 169
  },
  {
    "STUDYID": "CDISCPILOT01",
    "DOMAIN": "LB",
    "USUBJID": "01-701-001",
    "LBSEQ": 78,
    "LBTESTCD": "POTASSIUM",
    "LBTEST": "Potassium",
    "LBCAT": "CHEMISTRY",
    "LBORRES": 3.83,
    "LBORRESU": "mmol/L",
    "LBSTRESN": 3.83,
    "LBSTRESU": "mmol/L",
    "LBSTNRLO": 3.5,
    "LBSTNRHI": 5,
    "LBNRIND": "NORMAL",
    "LBBLFL": "",
    "VISITNUM": 9,
    "VISIT": "WEEK 24",
    "VISITDY": 169,
    "LBDTC": "2013-12-04",
    "LBDY": 169
  },
  {
    "STUDYID": "CDISCPILOT01",
    "DOMAIN": "LB",
    "USUBJID": "01-701-001",
    "LBSEQ": 79,
    "LBTESTCD": "CHLORIDE",
    "LBTEST": "Chloride",
    "LBCAT": "CHEMISTRY",
    "LBORRES": 99.69,
    "LBORRESU": "mmol/L",
    "LBSTRESN": 99.69,
    "LBSTRESU": "mmol/L",
    "LBSTNRLO": 98,
    "LBSTNRHI": 106,
    "LBNRIND": "NORMAL",
    "LBBLFL": "",
    "VISITNUM": 9,
    "VISIT": "WEEK 24",
    "VISITDY": 169,
    "LBDTC": "2013-12-05",
    "LBDY": 169
  },
  {
    "STUDYID": "CDISCPILOT01",
    "DOMAIN": "LB",
    "USUBJID": "01-701-001",
    "LBSEQ": 80,
    "LBTESTCD": "GLUC",
    "LBTEST": "Glucose",
    "LBCAT": "CHEMISTRY",
    "LBORRES": 84.95,
    "LBORRESU": "mg/dL",
    "LBSTRESN": 84.95,
    "LBSTRESU": "mg/dL",
    "LBSTNRLO": 70,
    "LBSTNRHI": 110,
    "LBNRIND": "NORMAL",
    "LBBLFL": "",
    "VISITNUM": 9,
    "VISIT": "WEEK 24",
    "VISITDY": 169,
    "LBDTC": "2013-12-04",
    "LBDY": 169
  },
  {
    "STUDYID": "CDISCPILOT01",
    "DOMAIN": "LB",
    "USUBJID": "01-701-002",
    "LBSEQ": 1,
    "LBTESTCD": "HGB",
    "LBTEST": "Hemoglobin",
    "LBCAT": "HEMATOLOGY",
    "LBORRES": 10.26,
    "LBORRESU": "g/dL",
    "LBSTRESN": 10.26,
    "LBSTRESU": "g/dL",
    "LBSTNRLO": 12,
    "LBSTNRHI": 15.5,
    "LBNRIND": "LOW",
    "LBBLFL": "Y",
    "VISITNUM": 1,
    "VISIT": "SCREENING",
    "VISITDY": -7,
    "LBDTC": "2013-03-25",
    "LBDY": -7
  },
  {
    "STUDYID": "CDISCPILOT01",
    "DOMAIN": "LB",
    "USUBJID": "01-701-002",
    "LBSEQ": 2,
    "LBTESTCD": "WBC",
    "LBTEST": "White Blood Cells",
    "LBCAT": "HEMATOLOGY",
    "LBORRES": 4.19,
    "LBORRESU": "10^9/L",
    "LBSTRESN": 4.19,
    "LBSTRESU": "10^9/L",
    "LBSTNRLO": 4,
    "LBSTNRHI": 11,
    "LBNRIND": "NORMAL",
    "LBBLFL": "Y",
    "VISITNUM": 1,
    "VISIT": "SCREENING",
    "VISITDY": -7,
    "LBDTC": "2013-03-23",
    "LBDY": -7
  },
  {
    "STUDYID": "CDISCPILOT01",
    "DOMAIN": "LB",
    "USUBJID": "01-701-002",
    "LBSEQ": 3,
    "LBTESTCD": "RBC",
    "LBTEST": "Red Blood Cells",
    "LBCAT": "HEMATOLOGY",
    "LBORRES": 4.11,
    "LBORRESU": "10^12/L",
    "LBSTRESN": 4.11,
    "LBSTRESU": "10^12/L",
    "LBSTNRLO": 4,
    "LBSTNRHI": 5,
    "LBNRIND": "NORMAL",
    "LBBLFL": "Y",
    "VISITNUM": 1,
    "VISIT": "SCREENING",
    "VISITDY": -7,
    "LBDTC": "2013-03-23",
    "LBDY": -7
  },
  {
    "STUDYID": "CDISCPILOT01",
    "DOMAIN": "LB",
    "USUBJID": "01-701-002",
    "LBSEQ": 4,
    "LBTESTCD": "PLT",
    "LBTEST": "Platelets",
    "LBCAT": "HEMATOLOGY",
    "LBORRES": 182.78,
    "LBORRESU": "10^9/L",
    "LBSTRESN": 182.78,
    "LBSTRESU": "10^9/L",
    "LBSTNRLO": 150,
    "LBSTNRHI": 400,
    "LBNRIND": "NORMAL",
    "LBBLFL": "Y",
    "VISITNUM": 1,
    "VISIT": "SCREENING",
    "VISITDY": -7,
    "LBDTC": "2013-03-24",
    "LBDY": -7
  },
  {
    "STUDYID": "CDISCPILOT01",
    "DOMAIN": "LB",
    "USUBJID": "01-701-002",
    "LBSEQ": 5,
    "LBTESTCD": "HCT",
    "LBTEST": "Hematocrit",
    "LBCAT": "HEMATOLOGY",
    "LBORRES": 38.36,
    "LBORRESU": "%",
    "LBSTRESN": 38.36,
    "LBSTRESU": "%",
    "LBSTNRLO": 36,
    "LBSTNRHI": 44,
    "LBNRIND": "NORMAL",
    "LBBLFL": "Y",
    "VISITNUM": 1,
    "VISIT": "SCREENING",
    "VISITDY": -7,
    "LBDTC": "2013-03-24",
    "LBDY": -7
  },
  {
    "STUDYID": "CDISCPILOT01",
    "DOMAIN": "LB",
    "USUBJID": "01-701-002",
    "LBSEQ": 6,
    "LBTESTCD": "ALT",
    "LBTEST": "Alanine Aminotransferase",
    "LBCAT": "CHEMISTRY",
    "LBORRES": 4.08,
    "LBORRESU": "U/L",
    "LBSTRESN": 4.08,
    "LBSTRESU": "U/L",
    "LBSTNRLO": 7,
    "LBSTNRHI": 56,
    "LBNRIND": "LOW",
    "LBBLFL": "Y",
    "VISITNUM": 1,
    "VISIT": "SCREENING",
    "VISITDY": -7,
    "LBDTC": "2013-03-24",
    "LBDY": -7
  },
  {
    "STUDYID": "CDISCPILOT01",
    "DOMAIN": "LB",
    "USUBJID": "01-701-002",
    "LBSEQ": 7,
    "LBTESTCD": "AST",
    "LBTEST": "Aspartate Aminotransferase",
    "LBCAT": "CHEMISTRY",
    "LBORRES": 23.33,
    "LBORRESU": "U/L",
    "LBSTRESN": 23.33,
    "LBSTRESU": "U/L",
    "LBSTNRLO": 10,
    "LBSTNRHI": 40,
    "LBNRIND": "NORMAL",
    "LBBLFL": "Y",
    "VISITNUM": 1,
    "VISIT": "SCREENING",
    "VISITDY": -7,
    "LBDTC": "2013-03-23",
    "LBDY": -7
  },
  {
    "STUDYID": "CDISCPILOT01",
    "DOMAIN": "LB",
    "USUBJID": "01-701-002",
    "LBSEQ": 8,
    "LBTESTCD": "ALP",
    "LBTEST": "Alkaline Phosphatase",
    "LBCAT": "CHEMISTRY",
    "LBORRES": 71.06,
    "LBORRESU": "U/L",
    "LBSTRESN": 71.06,
    "LBSTRESU": "U/L",
    "LBSTNRLO": 44,
    "LBSTNRHI": 147,
    "LBNRIND": "NORMAL",
    "LBBLFL": "Y",
    "VISITNUM": 1,
    "VISIT": "SCREENING",
    "VISITDY": -7,
    "LBDTC": "2013-03-24",
    "LBDY": -7
  },
  {
    "STUDYID": "CDISCPILOT01",
    "DOMAIN": "LB",
    "USUBJID": "01-701-002",
    "LBSEQ": 9,
    "LBTESTCD": "BILI",
    "LBTEST": "Bilirubin",
    "LBCAT": "CHEMISTRY",
    "LBORRES": 0.44,
    "LBORRESU": "mg/dL",
    "LBSTRESN": 0.44,
    "LBSTRESU": "mg/dL",
    "LBSTNRLO": 0.1,
    "LBSTNRHI": 1.2,
    "LBNRIND": "NORMAL",
    "LBBLFL": "Y",
    "VISITNUM": 1,
    "VISIT": "SCREENING",
    "VISITDY": -7,
    "LBDTC": "2013-03-24",
    "LBDY": -7
  },
  {
    "STUDYID": "CDISCPILOT01",
    "DOMAIN": "LB",
    "USUBJID": "01-701-002",
    "LBSEQ": 10,
    "LBTESTCD": "ALB",
    "LBTEST": "Albumin",
    "LBCAT": "CHEMISTRY",
    "LBORRES": 3.86,
    "LBORRESU": "g/dL",
    "LBSTRESN": 3.86,
    "LBSTRESU": "g/dL",
    "LBSTNRLO": 3.5,
    "LBSTNRHI": 5,
    "LBNRIND": "NORMAL",
    "LBBLFL": "Y",
    "VISITNUM": 1,
    "VISIT": "SCREENING",
    "VISITDY": -7,
    "LBDTC": "2013-03-24",
    "LBDY": -7
  },
  {
    "STUDYID": "CDISCPILOT01",
    "DOMAIN": "LB",
    "USUBJID": "01-701-002",
    "LBSEQ": 11,
    "LBTESTCD": "CREAT",
    "LBTEST": "Creatinine",
    "LBCAT": "CHEMISTRY",
    "LBORRES": 1.13,
    "LBORRESU": "mg/dL",
    "LBSTRESN": 1.13,
    "LBSTRESU": "mg/dL",
    "LBSTNRLO": 0.7,
    "LBSTNRHI": 1.3,
    "LBNRIND": "NORMAL",
    "LBBLFL": "Y",
    "VISITNUM": 1,
    "VISIT": "SCREENING",
    "VISITDY": -7,
    "LBDTC": "2013-03-24",
    "LBDY": -7
  },
  {
    "STUDYID": "CDISCPILOT01",
    "DOMAIN": "LB",
    "USUBJID": "01-701-002",
    "LBSEQ": 12,
    "LBTESTCD": "BUN",
    "LBTEST": "Blood Urea Nitrogen",
    "LBCAT": "CHEMISTRY",
    "LBORRES": 16.91,
    "LBORRESU": "mg/dL",
    "LBSTRESN": 16.91,
    "LBSTRESU": "mg/dL",
    "LBSTNRLO": 8,
    "LBSTNRHI": 23,
    "LBNRIND": "NORMAL",
    "LBBLFL": "Y",
    "VISITNUM": 1,
    "VISIT": "SCREENING",
    "VISITDY": -7,
    "LBDTC": "2013-03-23",
    "LBDY": -7
  },
  {
    "STUDYID": "CDISCPILOT01",
    "DOMAIN": "LB",
    "USUBJID": "01-701-002",
    "LBSEQ": 13,
    "LBTESTCD": "SODIUM",
    "LBTEST": "Sodium",
    "LBCAT": "CHEMISTRY",
    "LBORRES": 141.88,
    "LBORRESU": "mmol/L",
    "LBSTRESN": 141.88,
    "LBSTRESU": "mmol/L",
    "LBSTNRLO": 136,
    "LBSTNRHI": 145,
    "LBNRIND": "NORMAL",
    "LBBLFL": "Y",
    "VISITNUM": 1,
    "VISIT": "SCREENING",
    "VISITDY": -7,
    "LBDTC": "2013-03-24",
    "LBDY": -7
  },
  {
    "STUDYID": "CDISCPILOT01",
    "DOMAIN": "LB",
    "USUBJID": "01-701-002",
    "LBSEQ": 14,
    "LBTESTCD": "POTASSIUM",
    "LBTEST": "Potassium",
    "LBCAT": "CHEMISTRY",
    "LBORRES": 4.41,
    "LBORRESU": "mmol/L",
    "LBSTRESN": 4.41,
    "LBSTRESU": "mmol/L",
    "LBSTNRLO": 3.5,
    "LBSTNRHI": 5,
    "LBNRIND": "NORMAL",
    "LBBLFL": "Y",
    "VISITNUM": 1,
    "VISIT": "SCREENING",
    "VISITDY": -7,
    "LBDTC": "2013-03-24",
    "LBDY": -7
  },
  {
    "STUDYID": "CDISCPILOT01",
    "DOMAIN": "LB",
    "USUBJID": "01-701-002",
    "LBSEQ": 15,
    "LBTESTCD": "CHLORIDE",
    "LBTEST": "Chloride",
    "LBCAT": "CHEMISTRY",
    "LBORRES": 101.78,
    "LBORRESU": "mmol/L",
    "LBSTRESN": 101.78,
    "LBSTRESU": "mmol/L",
    "LBSTNRLO": 98,
    "LBSTNRHI": 106,
    "LBNRIND": "NORMAL",
    "LBBLFL": "Y",
    "VISITNUM": 1,
    "VISIT": "SCREENING",
    "VISITDY": -7,
    "LBDTC": "2013-03-25",
    "LBDY": -7
  },
  {
    "STUDYID": "CDISCPILOT01",
    "DOMAIN": "LB",
    "USUBJID": "01-701-002",
    "LBSEQ": 16,
    "LBTESTCD": "GLUC",
    "LBTEST": "Glucose",
    "LBCAT": "CHEMISTRY",
    "LBORRES": 86.6,
    "LBORRESU": "mg/dL",
    "LBSTRESN": 86.6,
    "LBSTRESU": "mg/dL",
    "LBSTNRLO": 70,
    "LBSTNRHI": 110,
    "LBNRIND": "NORMAL",
    "LBBLFL": "Y",
    "VISITNUM": 1,
    "VISIT": "SCREENING",
    "VISITDY": -7,
    "LBDTC": "2013-03-24",
    "LBDY": -7
  },
  {
    "STUDYID": "CDISCPILOT01",
    "DOMAIN": "LB",
    "USUBJID": "01-701-002",
    "LBSEQ": 17,
    "LBTESTCD": "HGB",
    "LBTEST": "Hemoglobin",
    "LBCAT": "HEMATOLOGY",
    "LBORRES": 10.55,
    "LBORRESU": "g/dL",
    "LBSTRESN": 10.55,
    "LBSTRESU": "g/dL",
    "LBSTNRLO": 12,
    "LBSTNRHI": 15.5,
    "LBNRIND": "LOW",
    "LBBLFL": "",
    "VISITNUM": 2,
    "VISIT": "BASELINE",
    "VISITDY": 1,
    "LBDTC": "2013-04-01",
    "LBDY": 1
  },
  {
    "STUDYID": "CDISCPILOT01",
    "DOMAIN": "LB",
    "USUBJID": "01-701-002",
    "LBSEQ": 18,
    "LBTESTCD": "WBC",
    "LBTEST": "White Blood Cells",
    "LBCAT": "HEMATOLOGY",
    "LBORRES": 4.01,
    "LBORRESU": "10^9/L",
    "LBSTRESN": 4.01,
    "LBSTRESU": "10^9/L",
    "LBSTNRLO": 4,
    "LBSTNRHI": 11,
    "LBNRIND": "NORMAL",
    "LBBLFL": "",
    "VISITNUM": 2,
    "VISIT": "BASELINE",
    "VISITDY": 1,
    "LBDTC": "2013-04-02",
    "LBDY": 1
  },
  {
    "STUDYID": "CDISCPILOT01",
    "DOMAIN": "LB",
    "USUBJID": "01-701-002",
    "LBSEQ": 19,
    "LBTESTCD": "RBC",
    "LBTEST": "Red Blood Cells",
    "LBCAT": "HEMATOLOGY",
    "LBORRES": 4.14,
    "LBORRESU": "10^12/L",
    "LBSTRESN": 4.14,
    "LBSTRESU": "10^12/L",
    "LBSTNRLO": 4,
    "LBSTNRHI": 5,
    "LBNRIND": "NORMAL",
    "LBBLFL": "",
    "VISITNUM": 2,
    "VISIT": "BASELINE",
    "VISITDY": 1,
    "LBDTC": "2013-04-02",
    "LBDY": 1
  },
  {
    "STUDYID": "CDISCPILOT01",
    "DOMAIN": "LB",
    "USUBJID": "01-701-002",
    "LBSEQ": 20,
    "LBTESTCD": "PLT",
    "LBTEST": "Platelets",
    "LBCAT": "HEMATOLOGY",
    "LBORRES": 192.37,
    "LBORRESU": "10^9/L",
    "LBSTRESN": 192.37,
    "LBSTRESU": "10^9/L",
    "LBSTNRLO": 150,
    "LBSTNRHI": 400,
    "LBNRIND": "NORMAL",
    "LBBLFL": "",
    "VISITNUM": 2,
    "VISIT": "BASELINE",
    "VISITDY": 1,
    "LBDTC": "2013-04-02",
    "LBDY": 1
  },
  {
    "STUDYID": "CDISCPILOT01",
    "DOMAIN": "LB",
    "USUBJID": "01-701-002",
    "LBSEQ": 21,
    "LBTESTCD": "HCT",
    "LBTEST": "Hematocrit",
    "LBCAT": "HEMATOLOGY",
    "LBORRES": 38.61,
    "LBORRESU": "%",
    "LBSTRESN": 38.61,
    "LBSTRESU": "%",
    "LBSTNRLO": 36,
    "LBSTNRHI": 44,
    "LBNRIND": "NORMAL",
    "LBBLFL": "",
    "VISITNUM": 2,
    "VISIT": "BASELINE",
    "VISITDY": 1,
    "LBDTC": "2013-04-02",
    "LBDY": 1
  },
  {
    "STUDYID": "CDISCPILOT01",
    "DOMAIN": "LB",
    "USUBJID": "01-701-002",
    "LBSEQ": 22,
    "LBTESTCD": "ALT",
    "LBTEST": "Alanine Aminotransferase",
    "LBCAT": "CHEMISTRY",
    "LBORRES": 3.01,
    "LBORRESU": "U/L",
    "LBSTRESN": 3.01,
    "LBSTRESU": "U/L",
    "LBSTNRLO": 7,
    "LBSTNRHI": 56,
    "LBNRIND": "LOW",
    "LBBLFL": "",
    "VISITNUM": 2,
    "VISIT": "BASELINE",
    "VISITDY": 1,
    "LBDTC": "2013-04-02",
    "LBDY": 1
  },
  {
    "STUDYID": "CDISCPILOT01",
    "DOMAIN": "LB",
    "USUBJID": "01-701-002",
    "LBSEQ": 23,
    "LBTESTCD": "AST",
    "LBTEST": "Aspartate Aminotransferase",
    "LBCAT": "CHEMISTRY",
    "LBORRES": 23.94,
    "LBORRESU": "U/L",
    "LBSTRESN": 23.94,
    "LBSTRESU": "U/L",
    "LBSTNRLO": 10,
    "LBSTNRHI": 40,
    "LBNRIND": "NORMAL",
    "LBBLFL": "",
    "VISITNUM": 2,
    "VISIT": "BASELINE",
    "VISITDY": 1,
    "LBDTC": "2013-04-02",
    "LBDY": 1
  },
  {
    "STUDYID": "CDISCPILOT01",
    "DOMAIN": "LB",
    "USUBJID": "01-701-002",
    "LBSEQ": 24,
    "LBTESTCD": "ALP",
    "LBTEST": "Alkaline Phosphatase",
    "LBCAT": "CHEMISTRY",
    "LBORRES": 75.87,
    "LBORRESU": "U/L",
    "LBSTRESN": 75.87,
    "LBSTRESU": "U/L",
    "LBSTNRLO": 44,
    "LBSTNRHI": 147,
    "LBNRIND": "NORMAL",
    "LBBLFL": "",
    "VISITNUM": 2,
    "VISIT": "BASELINE",
    "VISITDY": 1,
    "LBDTC": "2013-04-02",
    "LBDY": 1
  },
  {
    "STUDYID": "CDISCPILOT01",
    "DOMAIN": "LB",
    "USUBJID": "01-701-002",
    "LBSEQ": 25,
    "LBTESTCD": "BILI",
    "LBTEST": "Bilirubin",
    "LBCAT": "CHEMISTRY",
    "LBORRES": 0.39,
    "LBORRESU": "mg/dL",
    "LBSTRESN": 0.39,
    "LBSTRESU": "mg/dL",
    "LBSTNRLO": 0.1,
    "LBSTNRHI": 1.2,
    "LBNRIND": "NORMAL",
    "LBBLFL": "",
    "VISITNUM": 2,
    "VISIT": "BASELINE",
    "VISITDY": 1,
    "LBDTC": "2013-04-01",
    "LBDY": 1
  },
  {
    "STUDYID": "CDISCPILOT01",
    "DOMAIN": "LB",
    "USUBJID": "01-701-002",
    "LBSEQ": 26,
    "LBTESTCD": "ALB",
    "LBTEST": "Albumin",
    "LBCAT": "CHEMISTRY",
    "LBORRES": 3.89,
    "LBORRESU": "g/dL",
    "LBSTRESN": 3.89,
    "LBSTRESU": "g/dL",
    "LBSTNRLO": 3.5,
    "LBSTNRHI": 5,
    "LBNRIND": "NORMAL",
    "LBBLFL": "",
    "VISITNUM": 2,
    "VISIT": "BASELINE",
    "VISITDY": 1,
    "LBDTC": "2013-04-01",
    "LBDY": 1
  },
  {
    "STUDYID": "CDISCPILOT01",
    "DOMAIN": "LB",
    "USUBJID": "01-701-002",
    "LBSEQ": 27,
    "LBTESTCD": "CREAT",
    "LBTEST": "Creatinine",
    "LBCAT": "CHEMISTRY",
    "LBORRES": 1.13,
    "LBORRESU": "mg/dL",
    "LBSTRESN": 1.13,
    "LBSTRESU": "mg/dL",
    "LBSTNRLO": 0.7,
    "LBSTNRHI": 1.3,
    "LBNRIND": "NORMAL",
    "LBBLFL": "",
    "VISITNUM": 2,
    "VISIT": "BASELINE",
    "VISITDY": 1,
    "LBDTC": "2013-03-31",
    "LBDY": 1
  },
  {
    "STUDYID": "CDISCPILOT01",
    "DOMAIN": "LB",
    "USUBJID": "01-701-002",
    "LBSEQ": 28,
    "LBTESTCD": "BUN",
    "LBTEST": "Blood Urea Nitrogen",
    "LBCAT": "CHEMISTRY",
    "LBORRES": 17.51,
    "LBORRESU": "mg/dL",
    "LBSTRESN": 17.51,
    "LBSTRESU": "mg/dL",
    "LBSTNRLO": 8,
    "LBSTNRHI": 23,
    "LBNRIND": "NORMAL",
    "LBBLFL": "",
    "VISITNUM": 2,
    "VISIT": "BASELINE",
    "VISITDY": 1,
    "LBDTC": "2013-04-02",
    "LBDY": 1
  },
  {
    "STUDYID": "CDISCPILOT01",
    "DOMAIN": "LB",
    "USUBJID": "01-701-002",
    "LBSEQ": 29,
    "LBTESTCD": "SODIUM",
    "LBTEST": "Sodium",
    "LBCAT": "CHEMISTRY",
    "LBORRES": 142.39,
    "LBORRESU": "mmol/L",
    "LBSTRESN": 142.39,
    "LBSTRESU": "mmol/L",
    "LBSTNRLO": 136,
    "LBSTNRHI": 145,
    "LBNRIND": "NORMAL",
    "LBBLFL": "",
    "VISITNUM": 2,
    "VISIT": "BASELINE",
    "VISITDY": 1,
    "LBDTC": "2013-04-02",
    "LBDY": 1
  },
  {
    "STUDYID": "CDISCPILOT01",
    "DOMAIN": "LB",
    "USUBJID": "01-701-002",
    "LBSEQ": 30,
    "LBTESTCD": "POTASSIUM",
    "LBTEST": "Potassium",
    "LBCAT": "CHEMISTRY",
    "LBORRES": 4.4,
    "LBORRESU": "mmol/L",
    "LBSTRESN": 4.4,
    "LBSTRESU": "mmol/L",
    "LBSTNRLO": 3.5,
    "LBSTNRHI": 5,
    "LBNRIND": "NORMAL",
    "LBBLFL": "",
    "VISITNUM": 2,
    "VISIT": "BASELINE",
    "VISITDY": 1,
    "LBDTC": "2013-03-31",
    "LBDY": 1
  },
  {
    "STUDYID": "CDISCPILOT01",
    "DOMAIN": "LB",
    "USUBJID": "01-701-002",
    "LBSEQ": 31,
    "LBTESTCD": "CHLORIDE",
    "LBTEST": "Chloride",
    "LBCAT": "CHEMISTRY",
    "LBORRES": 101.39,
    "LBORRESU": "mmol/L",
    "LBSTRESN": 101.39,
    "LBSTRESU": "mmol/L",
    "LBSTNRLO": 98,
    "LBSTNRHI": 106,
    "LBNRIND": "NORMAL",
    "LBBLFL": "",
    "VISITNUM": 2,
    "VISIT": "BASELINE",
    "VISITDY": 1,
    "LBDTC": "2013-03-31",
    "LBDY": 1
  },
  {
    "STUDYID": "CDISCPILOT01",
    "DOMAIN": "LB",
    "USUBJID": "01-701-002",
    "LBSEQ": 32,
    "LBTESTCD": "GLUC",
    "LBTEST": "Glucose",
    "LBCAT": "CHEMISTRY",
    "LBORRES": 83.83,
    "LBORRESU": "mg/dL",
    "LBSTRESN": 83.83,
    "LBSTRESU": "mg/dL",
    "LBSTNRLO": 70,
    "LBSTNRHI": 110,
    "LBNRIND": "NORMAL",
    "LBBLFL": "",
    "VISITNUM": 2,
    "VISIT": "BASELINE",
    "VISITDY": 1,
    "LBDTC": "2013-04-01",
    "LBDY": 1
  },
  {
    "STUDYID": "CDISCPILOT01",
    "DOMAIN": "LB",
    "USUBJID": "01-701-002",
    "LBSEQ": 33,
    "LBTESTCD": "HGB",
    "LBTEST": "Hemoglobin",
    "LBCAT": "HEMATOLOGY",
    "LBORRES": 10.2,
    "LBORRESU": "g/dL",
    "LBSTRESN": 10.2,
    "LBSTRESU": "g/dL",
    "LBSTNRLO": 12,
    "LBSTNRHI": 15.5,
    "LBNRIND": "LOW",
    "LBBLFL": "",
    "VISITNUM": 5,
    "VISIT": "WEEK 8",
    "VISITDY": 57,
    "LBDTC": "2013-05-27",
    "LBDY": 57
  },
  {
    "STUDYID": "CDISCPILOT01",
    "DOMAIN": "LB",
    "USUBJID": "01-701-002",
    "LBSEQ": 34,
    "LBTESTCD": "WBC",
    "LBTEST": "White Blood Cells",
    "LBCAT": "HEMATOLOGY",
    "LBORRES": 3.63,
    "LBORRESU": "10^9/L",
    "LBSTRESN": 3.63,
    "LBSTRESU": "10^9/L",
    "LBSTNRLO": 4,
    "LBSTNRHI": 11,
    "LBNRIND": "LOW",
    "LBBLFL": "",
    "VISITNUM": 5,
    "VISIT": "WEEK 8",
    "VISITDY": 57,
    "LBDTC": "2013-05-26",
    "LBDY": 57
  },
  {
    "STUDYID": "CDISCPILOT01",
    "DOMAIN": "LB",
    "USUBJID": "01-701-002",
    "LBSEQ": 35,
    "LBTESTCD": "RBC",
    "LBTEST": "Red Blood Cells",
    "LBCAT": "HEMATOLOGY",
    "LBORRES": 4.07,
    "LBORRESU": "10^12/L",
    "LBSTRESN": 4.07,
    "LBSTRESU": "10^12/L",
    "LBSTNRLO": 4,
    "LBSTNRHI": 5,
    "LBNRIND": "NORMAL",
    "LBBLFL": "",
    "VISITNUM": 5,
    "VISIT": "WEEK 8",
    "VISITDY": 57,
    "LBDTC": "2013-05-28",
    "LBDY": 57
  },
  {
    "STUDYID": "CDISCPILOT01",
    "DOMAIN": "LB",
    "USUBJID": "01-701-002",
    "LBSEQ": 36,
    "LBTESTCD": "PLT",
    "LBTEST": "Platelets",
    "LBCAT": "HEMATOLOGY",
    "LBORRES": 183.3,
    "LBORRESU": "10^9/L",
    "LBSTRESN": 183.3,
    "LBSTRESU": "10^9/L",
    "LBSTNRLO": 150,
    "LBSTNRHI": 400,
    "LBNRIND": "NORMAL",
    "LBBLFL": "",
    "VISITNUM": 5,
    "VISIT": "WEEK 8",
    "VISITDY": 57,
    "LBDTC": "2013-05-28",
    "LBDY": 57
  },
  {
    "STUDYID": "CDISCPILOT01",
    "DOMAIN": "LB",
    "USUBJID": "01-701-002",
    "LBSEQ": 37,
    "LBTESTCD": "HCT",
    "LBTEST": "Hematocrit",
    "LBCAT": "HEMATOLOGY",
    "LBORRES": 37.75,
    "LBORRESU": "%",
    "LBSTRESN": 37.75,
    "LBSTRESU": "%",
    "LBSTNRLO": 36,
    "LBSTNRHI": 44,
    "LBNRIND": "NORMAL",
    "LBBLFL": "",
    "VISITNUM": 5,
    "VISIT": "WEEK 8",
    "VISITDY": 57,
    "LBDTC": "2013-05-27",
    "LBDY": 57
  },
  {
    "STUDYID": "CDISCPILOT01",
    "DOMAIN": "LB",
    "USUBJID": "01-701-002",
    "LBSEQ": 38,
    "LBTESTCD": "ALT",
    "LBTEST": "Alanine Aminotransferase",
    "LBCAT": "CHEMISTRY",
    "LBORRES": 2.39,
    "LBORRESU": "U/L",
    "LBSTRESN": 2.39,
    "LBSTRESU": "U/L",
    "LBSTNRLO": 7,
    "LBSTNRHI": 56,
    "LBNRIND": "LOW",
    "LBBLFL": "",
    "VISITNUM": 5,
    "VISIT": "WEEK 8",
    "VISITDY": 57,
    "LBDTC": "2013-05-27",
    "LBDY": 57
  },
  {
    "STUDYID": "CDISCPILOT01",
    "DOMAIN": "LB",
    "USUBJID": "01-701-002",
    "LBSEQ": 39,
    "LBTESTCD": "AST",
    "LBTEST": "Aspartate Aminotransferase",
    "LBCAT": "CHEMISTRY",
    "LBORRES": 23.31,
    "LBORRESU": "U/L",
    "LBSTRESN": 23.31,
    "LBSTRESU": "U/L",
    "LBSTNRLO": 10,
    "LBSTNRHI": 40,
    "LBNRIND": "NORMAL",
    "LBBLFL": "",
    "VISITNUM": 5,
    "VISIT": "WEEK 8",
    "VISITDY": 57,
    "LBDTC": "2013-05-26",
    "LBDY": 57
  },
  {
    "STUDYID": "CDISCPILOT01",
    "DOMAIN": "LB",
    "USUBJID": "01-701-002",
    "LBSEQ": 40,
    "LBTESTCD": "ALP",
    "LBTEST": "Alkaline Phosphatase",
    "LBCAT": "CHEMISTRY",
    "LBORRES": 71.27,
    "LBORRESU": "U/L",
    "LBSTRESN": 71.27,
    "LBSTRESU": "U/L",
    "LBSTNRLO": 44,
    "LBSTNRHI": 147,
    "LBNRIND": "NORMAL",
    "LBBLFL": "",
    "VISITNUM": 5,
    "VISIT": "WEEK 8",
    "VISITDY": 57,
    "LBDTC": "2013-05-26",
    "LBDY": 57
  },
  {
    "STUDYID": "CDISCPILOT01",
    "DOMAIN": "LB",
    "USUBJID": "01-701-002",
    "LBSEQ": 41,
    "LBTESTCD": "BILI",
    "LBTEST": "Bilirubin",
    "LBCAT": "CHEMISTRY",
    "LBORRES": 0.47,
    "LBORRESU": "mg/dL",
    "LBSTRESN": 0.47,
    "LBSTRESU": "mg/dL",
    "LBSTNRLO": 0.1,
    "LBSTNRHI": 1.2,
    "LBNRIND": "NORMAL",
    "LBBLFL": "",
    "VISITNUM": 5,
    "VISIT": "WEEK 8",
    "VISITDY": 57,
    "LBDTC": "2013-05-27",
    "LBDY": 57
  },
  {
    "STUDYID": "CDISCPILOT01",
    "DOMAIN": "LB",
    "USUBJID": "01-701-002",
    "LBSEQ": 42,
    "LBTESTCD": "ALB",
    "LBTEST": "Albumin",
    "LBCAT": "CHEMISTRY",
    "LBORRES": 3.81,
    "LBORRESU": "g/dL",
    "LBSTRESN": 3.81,
    "LBSTRESU": "g/dL",
    "LBSTNRLO": 3.5,
    "LBSTNRHI": 5,
    "LBNRIND": "NORMAL",
    "LBBLFL": "",
    "VISITNUM": 5,
    "VISIT": "WEEK 8",
    "VISITDY": 57,
    "LBDTC": "2013-05-27",
    "LBDY": 57
  },
  {
    "STUDYID": "CDISCPILOT01",
    "DOMAIN": "LB",
    "USUBJID": "01-701-002",
    "LBSEQ": 43,
    "LBTESTCD": "CREAT",
    "LBTEST": "Creatinine",
    "LBCAT": "CHEMISTRY",
    "LBORRES": 1.19,
    "LBORRESU": "mg/dL",
    "LBSTRESN": 1.19,
    "LBSTRESU": "mg/dL",
    "LBSTNRLO": 0.7,
    "LBSTNRHI": 1.3,
    "LBNRIND": "NORMAL",
    "LBBLFL": "",
    "VISITNUM": 5,
    "VISIT": "WEEK 8",
    "VISITDY": 57,
    "LBDTC": "2013-05-27",
    "LBDY": 57
  },
  {
    "STUDYID": "CDISCPILOT01",
    "DOMAIN": "LB",
    "USUBJID": "01-701-002",
    "LBSEQ": 44,
    "LBTESTCD": "BUN",
    "LBTEST": "Blood Urea Nitrogen",
    "LBCAT": "CHEMISTRY",
    "LBORRES": 15.2,
    "LBORRESU": "mg/dL",
    "LBSTRESN": 15.2,
    "LBSTRESU": "mg/dL",
    "LBSTNRLO": 8,
    "LBSTNRHI": 23,
    "LBNRIND": "NORMAL",
    "LBBLFL": "",
    "VISITNUM": 5,
    "VISIT": "WEEK 8",
    "VISITDY": 57,
    "LBDTC": "2013-05-28",
    "LBDY": 57
  },
  {
    "STUDYID": "CDISCPILOT01",
    "DOMAIN": "LB",
    "USUBJID": "01-701-002",
    "LBSEQ": 45,
    "LBTESTCD": "SODIUM",
    "LBTEST": "Sodium",
    "LBCAT": "CHEMISTRY",
    "LBORRES": 141.99,
    "LBORRESU": "mmol/L",
    "LBSTRESN": 141.99,
    "LBSTRESU": "mmol/L",
    "LBSTNRLO": 136,
    "LBSTNRHI": 145,
    "LBNRIND": "NORMAL",
    "LBBLFL": "",
    "VISITNUM": 5,
    "VISIT": "WEEK 8",
    "VISITDY": 57,
    "LBDTC": "2013-05-26",
    "LBDY": 57
  },
  {
    "STUDYID": "CDISCPILOT01",
    "DOMAIN": "LB",
    "USUBJID": "01-701-002",
    "LBSEQ": 46,
    "LBTESTCD": "POTASSIUM",
    "LBTEST": "Potassium",
    "LBCAT": "CHEMISTRY",
    "LBORRES": 4.46,
    "LBORRESU": "mmol/L",
    "LBSTRESN": 4.46,
    "LBSTRESU": "mmol/L",
    "LBSTNRLO": 3.5,
    "LBSTNRHI": 5,
    "LBNRIND": "NORMAL",
    "LBBLFL": "",
    "VISITNUM": 5,
    "VISIT": "WEEK 8",
    "VISITDY": 57,
    "LBDTC": "2013-05-28",
    "LBDY": 57
  },
  {
    "STUDYID": "CDISCPILOT01",
    "DOMAIN": "LB",
    "USUBJID": "01-701-002",
    "LBSEQ": 47,
    "LBTESTCD": "CHLORIDE",
    "LBTEST": "Chloride",
    "LBCAT": "CHEMISTRY",
    "LBORRES": 101.82,
    "LBORRESU": "mmol/L",
    "LBSTRESN": 101.82,
    "LBSTRESU": "mmol/L",
    "LBSTNRLO": 98,
    "LBSTNRHI": 106,
    "LBNRIND": "NORMAL",
    "LBBLFL": "",
    "VISITNUM": 5,
    "VISIT": "WEEK 8",
    "VISITDY": 57,
    "LBDTC": "2013-05-27",
    "LBDY": 57
  },
  {
    "STUDYID": "CDISCPILOT01",
    "DOMAIN": "LB",
    "USUBJID": "01-701-002",
    "LBSEQ": 48,
    "LBTESTCD": "GLUC",
    "LBTEST": "Glucose",
    "LBCAT": "CHEMISTRY",
    "LBORRES": 88.95,
    "LBORRESU": "mg/dL",
    "LBSTRESN": 88.95,
    "LBSTRESU": "mg/dL",
    "LBSTNRLO": 70,
    "LBSTNRHI": 110,
    "LBNRIND": "NORMAL",
    "LBBLFL": "",
    "VISITNUM": 5,
    "VISIT": "WEEK 8",
    "VISITDY": 57,
    "LBDTC": "2013-05-28",
    "LBDY": 57
  },
  {
    "STUDYID": "CDISCPILOT01",
    "DOMAIN": "LB",
    "USUBJID": "01-701-002",
    "LBSEQ": 49,
    "LBTESTCD": "HGB",
    "LBTEST": "Hemoglobin",
    "LBCAT": "HEMATOLOGY",
    "LBORRES": 10.34,
    "LBORRESU": "g/dL",
    "LBSTRESN": 10.34,
    "LBSTRESU": "g/dL",
    "LBSTNRLO": 12,
    "LBSTNRHI": 15.5,
    "LBNRIND": "LOW",
    "LBBLFL": "",
    "VISITNUM": 7,
    "VISIT": "WEEK 16",
    "VISITDY": 113,
    "LBDTC": "2013-07-21",
    "LBDY": 113
  },
  {
    "STUDYID": "CDISCPILOT01",
    "DOMAIN": "LB",
    "USUBJID": "01-701-002",
    "LBSEQ": 50,
    "LBTESTCD": "WBC",
    "LBTEST": "White Blood Cells",
    "LBCAT": "HEMATOLOGY",
    "LBORRES": 4.35,
    "LBORRESU": "10^9/L",
    "LBSTRESN": 4.35,
    "LBSTRESU": "10^9/L",
    "LBSTNRLO": 4,
    "LBSTNRHI": 11,
    "LBNRIND": "NORMAL",
    "LBBLFL": "",
    "VISITNUM": 7,
    "VISIT": "WEEK 16",
    "VISITDY": 113,
    "LBDTC": "2013-07-23",
    "LBDY": 113
  },
  {
    "STUDYID": "CDISCPILOT01",
    "DOMAIN": "LB",
    "USUBJID": "01-701-002",
    "LBSEQ": 51,
    "LBTESTCD": "RBC",
    "LBTEST": "Red Blood Cells",
    "LBCAT": "HEMATOLOGY",
    "LBORRES": 4,
    "LBORRESU": "10^12/L",
    "LBSTRESN": 4,
    "LBSTRESU": "10^12/L",
    "LBSTNRLO": 4,
    "LBSTNRHI": 5,
    "LBNRIND": "NORMAL",
    "LBBLFL": "",
    "VISITNUM": 7,
    "VISIT": "WEEK 16",
    "VISITDY": 113,
    "LBDTC": "2013-07-22",
    "LBDY": 113
  },
  {
    "STUDYID": "CDISCPILOT01",
    "DOMAIN": "LB",
    "USUBJID": "01-701-002",
    "LBSEQ": 52,
    "LBTESTCD": "PLT",
    "LBTEST": "Platelets",
    "LBCAT": "HEMATOLOGY",
    "LBORRES": 198.5,
    "LBORRESU": "10^9/L",
    "LBSTRESN": 198.5,
    "LBSTRESU": "10^9/L",
    "LBSTNRLO": 150,
    "LBSTNRHI": 400,
    "LBNRIND": "NORMAL",
    "LBBLFL": "",
    "VISITNUM": 7,
    "VISIT": "WEEK 16",
    "VISITDY": 113,
    "LBDTC": "2013-07-22",
    "LBDY": 113
  },
  {
    "STUDYID": "CDISCPILOT01",
    "DOMAIN": "LB",
    "USUBJID": "01-701-002",
    "LBSEQ": 53,
    "LBTESTCD": "HCT",
    "LBTEST": "Hematocrit",
    "LBCAT": "HEMATOLOGY",
    "LBORRES": 37.75,
    "LBORRESU": "%",
    "LBSTRESN": 37.75,
    "LBSTRESU": "%",
    "LBSTNRLO": 36,
    "LBSTNRHI": 44,
    "LBNRIND": "NORMAL",
    "LBBLFL": "",
    "VISITNUM": 7,
    "VISIT": "WEEK 16",
    "VISITDY": 113,
    "LBDTC": "2013-07-22",
    "LBDY": 113
  },
  {
    "STUDYID": "CDISCPILOT01",
    "DOMAIN": "LB",
    "USUBJID": "01-701-002",
    "LBSEQ": 54,
    "LBTESTCD": "ALT",
    "LBTEST": "Alanine Aminotransferase",
    "LBCAT": "CHEMISTRY",
    "LBORRES": 5.14,
    "LBORRESU": "U/L",
    "LBSTRESN": 5.14,
    "LBSTRESU": "U/L",
    "LBSTNRLO": 7,
    "LBSTNRHI": 56,
    "LBNRIND": "LOW",
    "LBBLFL": "",
    "VISITNUM": 7,
    "VISIT": "WEEK 16",
    "VISITDY": 113,
    "LBDTC": "2013-07-21",
    "LBDY": 113
  },
  {
    "STUDYID": "CDISCPILOT01",
    "DOMAIN": "LB",
    "USUBJID": "01-701-002",
    "LBSEQ": 55,
    "LBTESTCD": "AST",
    "LBTEST": "Aspartate Aminotransferase",
    "LBCAT": "CHEMISTRY",
    "LBORRES": 21.84,
    "LBORRESU": "U/L",
    "LBSTRESN": 21.84,
    "LBSTRESU": "U/L",
    "LBSTNRLO": 10,
    "LBSTNRHI": 40,
    "LBNRIND": "NORMAL",
    "LBBLFL": "",
    "VISITNUM": 7,
    "VISIT": "WEEK 16",
    "VISITDY": 113,
    "LBDTC": "2013-07-23",
    "LBDY": 113
  },
  {
    "STUDYID": "CDISCPILOT01",
    "DOMAIN": "LB",
    "USUBJID": "01-701-002",
    "LBSEQ": 56,
    "LBTESTCD": "ALP",
    "LBTEST": "Alkaline Phosphatase",
    "LBCAT": "CHEMISTRY",
    "LBORRES": 69.6,
    "LBORRESU": "U/L",
    "LBSTRESN": 69.6,
    "LBSTRESU": "U/L",
    "LBSTNRLO": 44,
    "LBSTNRHI": 147,
    "LBNRIND": "NORMAL",
    "LBBLFL": "",
    "VISITNUM": 7,
    "VISIT": "WEEK 16",
    "VISITDY": 113,
    "LBDTC": "2013-07-21",
    "LBDY": 113
  },
  {
    "STUDYID": "CDISCPILOT01",
    "DOMAIN": "LB",
    "USUBJID": "01-701-002",
    "LBSEQ": 57,
    "LBTESTCD": "BILI",
    "LBTEST": "Bilirubin",
    "LBCAT": "CHEMISTRY",
    "LBORRES": 0.43,
    "LBORRESU": "mg/dL",
    "LBSTRESN": 0.43,
    "LBSTRESU": "mg/dL",
    "LBSTNRLO": 0.1,
    "LBSTNRHI": 1.2,
    "LBNRIND": "NORMAL",
    "LBBLFL": "",
    "VISITNUM": 7,
    "VISIT": "WEEK 16",
    "VISITDY": 113,
    "LBDTC": "2013-07-21",
    "LBDY": 113
  },
  {
    "STUDYID": "CDISCPILOT01",
    "DOMAIN": "LB",
    "USUBJID": "01-701-002",
    "LBSEQ": 58,
    "LBTESTCD": "ALB",
    "LBTEST": "Albumin",
    "LBCAT": "CHEMISTRY",
    "LBORRES": 3.93,
    "LBORRESU": "g/dL",
    "LBSTRESN": 3.93,
    "LBSTRESU": "g/dL",
    "LBSTNRLO": 3.5,
    "LBSTNRHI": 5,
    "LBNRIND": "NORMAL",
    "LBBLFL": "",
    "VISITNUM": 7,
    "VISIT": "WEEK 16",
    "VISITDY": 113,
    "LBDTC": "2013-07-23",
    "LBDY": 113
  },
  {
    "STUDYID": "CDISCPILOT01",
    "DOMAIN": "LB",
    "USUBJID": "01-701-002",
    "LBSEQ": 59,
    "LBTESTCD": "CREAT",
    "LBTEST": "Creatinine",
    "LBCAT": "CHEMISTRY",
    "LBORRES": 1.17,
    "LBORRESU": "mg/dL",
    "LBSTRESN": 1.17,
    "LBSTRESU": "mg/dL",
    "LBSTNRLO": 0.7,
    "LBSTNRHI": 1.3,
    "LBNRIND": "NORMAL",
    "LBBLFL": "",
    "VISITNUM": 7,
    "VISIT": "WEEK 16",
    "VISITDY": 113,
    "LBDTC": "2013-07-22",
    "LBDY": 113
  },
  {
    "STUDYID": "CDISCPILOT01",
    "DOMAIN": "LB",
    "USUBJID": "01-701-002",
    "LBSEQ": 60,
    "LBTESTCD": "BUN",
    "LBTEST": "Blood Urea Nitrogen",
    "LBCAT": "CHEMISTRY",
    "LBORRES": 16.11,
    "LBORRESU": "mg/dL",
    "LBSTRESN": 16.11,
    "LBSTRESU": "mg/dL",
    "LBSTNRLO": 8,
    "LBSTNRHI": 23,
    "LBNRIND": "NORMAL",
    "LBBLFL": "",
    "VISITNUM": 7,
    "VISIT": "WEEK 16",
    "VISITDY": 113,
    "LBDTC": "2013-07-23",
    "LBDY": 113
  },
  {
    "STUDYID": "CDISCPILOT01",
    "DOMAIN": "LB",
    "USUBJID": "01-701-002",
    "LBSEQ": 61,
    "LBTESTCD": "SODIUM",
    "LBTEST": "Sodium",
    "LBCAT": "CHEMISTRY",
    "LBORRES": 142.09,
    "LBORRESU": "mmol/L",
    "LBSTRESN": 142.09,
    "LBSTRESU": "mmol/L",
    "LBSTNRLO": 136,
    "LBSTNRHI": 145,
    "LBNRIND": "NORMAL",
    "LBBLFL": "",
    "VISITNUM": 7,
    "VISIT": "WEEK 16",
    "VISITDY": 113,
    "LBDTC": "2013-07-22",
    "LBDY": 113
  },
  {
    "STUDYID": "CDISCPILOT01",
    "DOMAIN": "LB",
    "USUBJID": "01-701-002",
    "LBSEQ": 62,
    "LBTESTCD": "POTASSIUM",
    "LBTEST": "Potassium",
    "LBCAT": "CHEMISTRY",
    "LBORRES": 4.37,
    "LBORRESU": "mmol/L",
    "LBSTRESN": 4.37,
    "LBSTRESU": "mmol/L",
    "LBSTNRLO": 3.5,
    "LBSTNRHI": 5,
    "LBNRIND": "NORMAL",
    "LBBLFL": "",
    "VISITNUM": 7,
    "VISIT": "WEEK 16",
    "VISITDY": 113,
    "LBDTC": "2013-07-21",
    "LBDY": 113
  },
  {
    "STUDYID": "CDISCPILOT01",
    "DOMAIN": "LB",
    "USUBJID": "01-701-002",
    "LBSEQ": 63,
    "LBTESTCD": "CHLORIDE",
    "LBTEST": "Chloride",
    "LBCAT": "CHEMISTRY",
    "LBORRES": 102.24,
    "LBORRESU": "mmol/L",
    "LBSTRESN": 102.24,
    "LBSTRESU": "mmol/L",
    "LBSTNRLO": 98,
    "LBSTNRHI": 106,
    "LBNRIND": "NORMAL",
    "LBBLFL": "",
    "VISITNUM": 7,
    "VISIT": "WEEK 16",
    "VISITDY": 113,
    "LBDTC": "2013-07-21",
    "LBDY": 113
  },
  {
    "STUDYID": "CDISCPILOT01",
    "DOMAIN": "LB",
    "USUBJID": "01-701-002",
    "LBSEQ": 64,
    "LBTESTCD": "GLUC",
    "LBTEST": "Glucose",
    "LBCAT": "CHEMISTRY",
    "LBORRES": 85.43,
    "LBORRESU": "mg/dL",
    "LBSTRESN": 85.43,
    "LBSTRESU": "mg/dL",
    "LBSTNRLO": 70,
    "LBSTNRHI": 110,
    "LBNRIND": "NORMAL",
    "LBBLFL": "",
    "VISITNUM": 7,
    "VISIT": "WEEK 16",
    "VISITDY": 113,
    "LBDTC": "2013-07-22",
    "LBDY": 113
  },
  {
    "STUDYID": "CDISCPILOT01",
    "DOMAIN": "LB",
    "USUBJID": "01-701-002",
    "LBSEQ": 65,
    "LBTESTCD": "HGB",
    "LBTEST": "Hemoglobin",
    "LBCAT": "HEMATOLOGY",
    "LBORRES": 10.05,
    "LBORRESU": "g/dL",
    "LBSTRESN": 10.05,
    "LBSTRESU": "g/dL",
    "LBSTNRLO": 12,
    "LBSTNRHI": 15.5,
    "LBNRIND": "LOW",
    "LBBLFL": "",
    "VISITNUM": 9,
    "VISIT": "WEEK 24",
    "VISITDY": 169,
    "LBDTC": "2013-09-15",
    "LBDY": 169
  },
  {
    "STUDYID": "CDISCPILOT01",
    "DOMAIN": "LB",
    "USUBJID": "01-701-002",
    "LBSEQ": 66,
    "LBTESTCD": "WBC",
    "LBTEST": "White Blood Cells",
    "LBCAT": "HEMATOLOGY",
    "LBORRES": 4.05,
    "LBORRESU": "10^9/L",
    "LBSTRESN": 4.05,
    "LBSTRESU": "10^9/L",
    "LBSTNRLO": 4,
    "LBSTNRHI": 11,
    "LBNRIND": "NORMAL",
    "LBBLFL": "",
    "VISITNUM": 9,
    "VISIT": "WEEK 24",
    "VISITDY": 169,
    "LBDTC": "2013-09-16",
    "LBDY": 169
  },
  {
    "STUDYID": "CDISCPILOT01",
    "DOMAIN": "LB",
    "USUBJID": "01-701-002",
    "LBSEQ": 67,
    "LBTESTCD": "RBC",
    "LBTEST": "Red Blood Cells",
    "LBCAT": "HEMATOLOGY",
    "LBORRES": 4.03,
    "LBORRESU": "10^12/L",
    "LBSTRESN": 4.03,
    "LBSTRESU": "10^12/L",
    "LBSTNRLO": 4,
    "LBSTNRHI": 5,
    "LBNRIND": "NORMAL",
    "LBBLFL": "",
    "VISITNUM": 9,
    "VISIT": "WEEK 24",
    "VISITDY": 169,
    "LBDTC": "2013-09-16",
    "LBDY": 169
  },
  {
    "STUDYID": "CDISCPILOT01",
    "DOMAIN": "LB",
    "USUBJID": "01-701-002",
    "LBSEQ": 68,
    "LBTESTCD": "PLT",
    "LBTEST": "Platelets",
    "LBCAT": "HEMATOLOGY",
    "LBORRES": 173.71,
    "LBORRESU": "10^9/L",
    "LBSTRESN": 173.71,
    "LBSTRESU": "10^9/L",
    "LBSTNRLO": 150,
    "LBSTNRHI": 400,
    "LBNRIND": "NORMAL",
    "LBBLFL": "",
    "VISITNUM": 9,
    "VISIT": "WEEK 24",
    "VISITDY": 169,
    "LBDTC": "2013-09-17",
    "LBDY": 169
  },
  {
    "STUDYID": "CDISCPILOT01",
    "DOMAIN": "LB",
    "USUBJID": "01-701-002",
    "LBSEQ": 69,
    "LBTESTCD": "HCT",
    "LBTEST": "Hematocrit",
    "LBCAT": "HEMATOLOGY",
    "LBORRES": 37.92,
    "LBORRESU": "%",
    "LBSTRESN": 37.92,
    "LBSTRESU": "%",
    "LBSTNRLO": 36,
    "LBSTNRHI": 44,
    "LBNRIND": "NORMAL",
    "LBBLFL": "",
    "VISITNUM": 9,
    "VISIT": "WEEK 24",
    "VISITDY": 169,
    "LBDTC": "2013-09-15",
    "LBDY": 169
  },
  {
    "STUDYID": "CDISCPILOT01",
    "DOMAIN": "LB",
    "USUBJID": "01-701-002",
    "LBSEQ": 70,
    "LBTESTCD": "ALT",
    "LBTEST": "Alanine Aminotransferase",
    "LBCAT": "CHEMISTRY",
    "LBORRES": 3.37,
    "LBORRESU": "U/L",
    "LBSTRESN": 3.37,
    "LBSTRESU": "U/L",
    "LBSTNRLO": 7,
    "LBSTNRHI": 56,
    "LBNRIND": "LOW",
    "LBBLFL": "",
    "VISITNUM": 9,
    "VISIT": "WEEK 24",
    "VISITDY": 169,
    "LBDTC": "2013-09-17",
    "LBDY": 169
  },
  {
    "STUDYID": "CDISCPILOT01",
    "DOMAIN": "LB",
    "USUBJID": "01-701-002",
    "LBSEQ": 71,
    "LBTESTCD": "AST",
    "LBTEST": "Aspartate Aminotransferase",
    "LBCAT": "CHEMISTRY",
    "LBORRES": 23.03,
    "LBORRESU": "U/L",
    "LBSTRESN": 23.03,
    "LBSTRESU": "U/L",
    "LBSTNRLO": 10,
    "LBSTNRHI": 40,
    "LBNRIND": "NORMAL",
    "LBBLFL": "",
    "VISITNUM": 9,
    "VISIT": "WEEK 24",
    "VISITDY": 169,
    "LBDTC": "2013-09-16",
    "LBDY": 169
  },
  {
    "STUDYID": "CDISCPILOT01",
    "DOMAIN": "LB",
    "USUBJID": "01-701-002",
    "LBSEQ": 72,
    "LBTESTCD": "ALP",
    "LBTEST": "Alkaline Phosphatase",
    "LBCAT": "CHEMISTRY",
    "LBORRES": 69.79,
    "LBORRESU": "U/L",
    "LBSTRESN": 69.79,
    "LBSTRESU": "U/L",
    "LBSTNRLO": 44,
    "LBSTNRHI": 147,
    "LBNRIND": "NORMAL",
    "LBBLFL": "",
    "VISITNUM": 9,
    "VISIT": "WEEK 24",
    "VISITDY": 169,
    "LBDTC": "2013-09-17",
    "LBDY": 169
  },
  {
    "STUDYID": "CDISCPILOT01",
    "DOMAIN": "LB",
    "USUBJID": "01-701-002",
    "LBSEQ": 73,
    "LBTESTCD": "BILI",
    "LBTEST": "Bilirubin",
    "LBCAT": "CHEMISTRY",
    "LBORRES": 0.52,
    "LBORRESU": "mg/dL",
    "LBSTRESN": 0.52,
    "LBSTRESU": "mg/dL",
    "LBSTNRLO": 0.1,
    "LBSTNRHI": 1.2,
    "LBNRIND": "NORMAL",
    "LBBLFL": "",
    "VISITNUM": 9,
    "VISIT": "WEEK 24",
    "VISITDY": 169,
    "LBDTC": "2013-09-16",
    "LBDY": 169
  },
  {
    "STUDYID": "CDISCPILOT01",
    "DOMAIN": "LB",
    "USUBJID": "01-701-002",
    "LBSEQ": 74,
    "LBTESTCD": "ALB",
    "LBTEST": "Albumin",
    "LBCAT": "CHEMISTRY",
    "LBORRES": 3.77,
    "LBORRESU": "g/dL",
    "LBSTRESN": 3.77,
    "LBSTRESU": "g/dL",
    "LBSTNRLO": 3.5,
    "LBSTNRHI": 5,
    "LBNRIND": "NORMAL",
    "LBBLFL": "",
    "VISITNUM": 9,
    "VISIT": "WEEK 24",
    "VISITDY": 169,
    "LBDTC": "2013-09-15",
    "LBDY": 169
  },
  {
    "STUDYID": "CDISCPILOT01",
    "DOMAIN": "LB",
    "USUBJID": "01-701-002",
    "LBSEQ": 75,
    "LBTESTCD": "CREAT",
    "LBTEST": "Creatinine",
    "LBCAT": "CHEMISTRY",
    "LBORRES": 1.13,
    "LBORRESU": "mg/dL",
    "LBSTRESN": 1.13,
    "LBSTRESU": "mg/dL",
    "LBSTNRLO": 0.7,
    "LBSTNRHI": 1.3,
    "LBNRIND": "NORMAL",
    "LBBLFL": "",
    "VISITNUM": 9,
    "VISIT": "WEEK 24",
    "VISITDY": 169,
    "LBDTC": "2013-09-15",
    "LBDY": 169
  },
  {
    "STUDYID": "CDISCPILOT01",
    "DOMAIN": "LB",
    "USUBJID": "01-701-002",
    "LBSEQ": 76,
    "LBTESTCD": "BUN",
    "LBTEST": "Blood Urea Nitrogen",
    "LBCAT": "CHEMISTRY",
    "LBORRES": 18.02,
    "LBORRESU": "mg/dL",
    "LBSTRESN": 18.02,
    "LBSTRESU": "mg/dL",
    "LBSTNRLO": 8,
    "LBSTNRHI": 23,
    "LBNRIND": "NORMAL",
    "LBBLFL": "",
    "VISITNUM": 9,
    "VISIT": "WEEK 24",
    "VISITDY": 169,
    "LBDTC": "2013-09-16",
    "LBDY": 169
  },
  {
    "STUDYID": "CDISCPILOT01",
    "DOMAIN": "LB",
    "USUBJID": "01-701-002",
    "LBSEQ": 77,
    "LBTESTCD": "SODIUM",
    "LBTEST": "Sodium",
    "LBCAT": "CHEMISTRY",
    "LBORRES": 141.88,
    "LBORRESU": "mmol/L",
    "LBSTRESN": 141.88,
    "LBSTRESU": "mmol/L",
    "LBSTNRLO": 136,
    "LBSTNRHI": 145,
    "LBNRIND": "NORMAL",
    "LBBLFL": "",
    "VISITNUM": 9,
    "VISIT": "WEEK 24",
    "VISITDY": 169,
    "LBDTC": "2013-09-15",
    "LBDY": 169
  },
  {
    "STUDYID": "CDISCPILOT01",
    "DOMAIN": "LB",
    "USUBJID": "01-701-002",
    "LBSEQ": 78,
    "LBTESTCD": "POTASSIUM",
    "LBTEST": "Potassium",
    "LBCAT": "CHEMISTRY",
    "LBORRES": 4.4,
    "LBORRESU": "mmol/L",
    "LBSTRESN": 4.4,
    "LBSTRESU": "mmol/L",
    "LBSTNRLO": 3.5,
    "LBSTNRHI": 5,
    "LBNRIND": "NORMAL",
    "LBBLFL": "",
    "VISITNUM": 9,
    "VISIT": "WEEK 24",
    "VISITDY": 169,
    "LBDTC": "2013-09-15",
    "LBDY": 169
  },
  {
    "STUDYID": "CDISCPILOT01",
    "DOMAIN": "LB",
    "USUBJID": "01-701-002",
    "LBSEQ": 79,
    "LBTESTCD": "CHLORIDE",
    "LBTEST": "Chloride",
    "LBCAT": "CHEMISTRY",
    "LBORRES": 101.43,
    "LBORRESU": "mmol/L",
    "LBSTRESN": 101.43,
    "LBSTRESU": "mmol/L",
    "LBSTNRLO": 98,
    "LBSTNRHI": 106,
    "LBNRIND": "NORMAL",
    "LBBLFL": "",
    "VISITNUM": 9,
    "VISIT": "WEEK 24",
    "VISITDY": 169,
    "LBDTC": "2013-09-16",
    "LBDY": 169
  },
  {
    "STUDYID": "CDISCPILOT01",
    "DOMAIN": "LB",
    "USUBJID": "01-701-002",
    "LBSEQ": 80,
    "LBTESTCD": "GLUC",
    "LBTEST": "Glucose",
    "LBCAT": "CHEMISTRY",
    "LBORRES": 88.19,
    "LBORRESU": "mg/dL",
    "LBSTRESN": 88.19,
    "LBSTRESU": "mg/dL",
    "LBSTNRLO": 70,
    "LBSTNRHI": 110,
    "LBNRIND": "NORMAL",
    "LBBLFL": "",
    "VISITNUM": 9,
    "VISIT": "WEEK 24",
    "VISITDY": 169,
    "LBDTC": "2013-09-15",
    "LBDY": 169
  },
  {
    "STUDYID": "CDISCPILOT01",
    "DOMAIN": "LB",
    "USUBJID": "01-701-003",
    "LBSEQ": 1,
    "LBTESTCD": "HGB",
    "LBTEST": "Hemoglobin",
    "LBCAT": "HEMATOLOGY",
    "LBORRES": 10.5,
    "LBORRESU": "g/dL",
    "LBSTRESN": 10.5,
    "LBSTRESU": "g/dL",
    "LBSTNRLO": 12,
    "LBSTNRHI": 15.5,
    "LBNRIND": "LOW",
    "LBBLFL": "Y",
    "VISITNUM": 1,
    "VISIT": "SCREENING",
    "VISITDY": -7,
    "LBDTC": "2012-12-26",
    "LBDY": -7
  },
  {
    "STUDYID": "CDISCPILOT01",
    "DOMAIN": "LB",
    "USUBJID": "01-701-003",
    "LBSEQ": 2,
    "LBTESTCD": "WBC",
    "LBTEST": "White Blood Cells",
    "LBCAT": "HEMATOLOGY",
    "LBORRES": 7.24,
    "LBORRESU": "10^9/L",
    "LBSTRESN": 7.24,
    "LBSTRESU": "10^9/L",
    "LBSTNRLO": 4,
    "LBSTNRHI": 11,
    "LBNRIND": "NORMAL",
    "LBBLFL": "Y",
    "VISITNUM": 1,
    "VISIT": "SCREENING",
    "VISITDY": -7,
    "LBDTC": "2012-12-26",
    "LBDY": -7
  },
  {
    "STUDYID": "CDISCPILOT01",
    "DOMAIN": "LB",
    "USUBJID": "01-701-003",
    "LBSEQ": 3,
    "LBTESTCD": "RBC",
    "LBTEST": "Red Blood Cells",
    "LBCAT": "HEMATOLOGY",
    "LBORRES": 4.11,
    "LBORRESU": "10^12/L",
    "LBSTRESN": 4.11,
    "LBSTRESU": "10^12/L",
    "LBSTNRLO": 4,
    "LBSTNRHI": 5,
    "LBNRIND": "NORMAL",
    "LBBLFL": "Y",
    "VISITNUM": 1,
    "VISIT": "SCREENING",
    "VISITDY": -7,
    "LBDTC": "2012-12-24",
    "LBDY": -7
  },
  {
    "STUDYID": "CDISCPILOT01",
    "DOMAIN": "LB",
    "USUBJID": "01-701-003",
    "LBSEQ": 4,
    "LBTESTCD": "PLT",
    "LBTEST": "Platelets",
    "LBCAT": "HEMATOLOGY",
    "LBORRES": 182.21,
    "LBORRESU": "10^9/L",
    "LBSTRESN": 182.21,
    "LBSTRESU": "10^9/L",
    "LBSTNRLO": 150,
    "LBSTNRHI": 400,
    "LBNRIND": "NORMAL",
    "LBBLFL": "Y",
    "VISITNUM": 1,
    "VISIT": "SCREENING",
    "VISITDY": -7,
    "LBDTC": "2012-12-24",
    "LBDY": -7
  },
  {
    "STUDYID": "CDISCPILOT01",
    "DOMAIN": "LB",
    "USUBJID": "01-701-003",
    "LBSEQ": 5,
    "LBTESTCD": "HCT",
    "LBTEST": "Hematocrit",
    "LBCAT": "HEMATOLOGY",
    "LBORRES": 37.45,
    "LBORRESU": "%",
    "LBSTRESN": 37.45,
    "LBSTRESU": "%",
    "LBSTNRLO": 36,
    "LBSTNRHI": 44,
    "LBNRIND": "NORMAL",
    "LBBLFL": "Y",
    "VISITNUM": 1,
    "VISIT": "SCREENING",
    "VISITDY": -7,
    "LBDTC": "2012-12-26",
    "LBDY": -7
  },
  {
    "STUDYID": "CDISCPILOT01",
    "DOMAIN": "LB",
    "USUBJID": "01-701-003",
    "LBSEQ": 6,
    "LBTESTCD": "ALT",
    "LBTEST": "Alanine Aminotransferase",
    "LBCAT": "CHEMISTRY",
    "LBORRES": 13.9,
    "LBORRESU": "U/L",
    "LBSTRESN": 13.9,
    "LBSTRESU": "U/L",
    "LBSTNRLO": 7,
    "LBSTNRHI": 56,
    "LBNRIND": "NORMAL",
    "LBBLFL": "Y",
    "VISITNUM": 1,
    "VISIT": "SCREENING",
    "VISITDY": -7,
    "LBDTC": "2012-12-25",
    "LBDY": -7
  },
  {
    "STUDYID": "CDISCPILOT01",
    "DOMAIN": "LB",
    "USUBJID": "01-701-003",
    "LBSEQ": 7,
    "LBTESTCD": "AST",
    "LBTEST": "Aspartate Aminotransferase",
    "LBCAT": "CHEMISTRY",
    "LBORRES": 19.42,
    "LBORRESU": "U/L",
    "LBSTRESN": 19.42,
    "LBSTRESU": "U/L",
    "LBSTNRLO": 10,
    "LBSTNRHI": 40,
    "LBNRIND": "NORMAL",
    "LBBLFL": "Y",
    "VISITNUM": 1,
    "VISIT": "SCREENING",
    "VISITDY": -7,
    "LBDTC": "2012-12-24",
    "LBDY": -7
  },
  {
    "STUDYID": "CDISCPILOT01",
    "DOMAIN": "LB",
    "USUBJID": "01-701-003",
    "LBSEQ": 8,
    "LBTESTCD": "ALP",
    "LBTEST": "Alkaline Phosphatase",
    "LBCAT": "CHEMISTRY",
    "LBORRES": 71.74,
    "LBORRESU": "U/L",
    "LBSTRESN": 71.74,
    "LBSTRESU": "U/L",
    "LBSTNRLO": 44,
    "LBSTNRHI": 147,
    "LBNRIND": "NORMAL",
    "LBBLFL": "Y",
    "VISITNUM": 1,
    "VISIT": "SCREENING",
    "VISITDY": -7,
    "LBDTC": "2012-12-26",
    "LBDY": -7
  },
  {
    "STUDYID": "CDISCPILOT01",
    "DOMAIN": "LB",
    "USUBJID": "01-701-003",
    "LBSEQ": 9,
    "LBTESTCD": "BILI",
    "LBTEST": "Bilirubin",
    "LBCAT": "CHEMISTRY",
    "LBORRES": 0.44,
    "LBORRESU": "mg/dL",
    "LBSTRESN": 0.44,
    "LBSTRESU": "mg/dL",
    "LBSTNRLO": 0.1,
    "LBSTNRHI": 1.2,
    "LBNRIND": "NORMAL",
    "LBBLFL": "Y",
    "VISITNUM": 1,
    "VISIT": "SCREENING",
    "VISITDY": -7,
    "LBDTC": "2012-12-26",
    "LBDY": -7
  },
  {
    "STUDYID": "CDISCPILOT01",
    "DOMAIN": "LB",
    "USUBJID": "01-701-003",
    "LBSEQ": 10,
    "LBTESTCD": "ALB",
    "LBTEST": "Albumin",
    "LBCAT": "CHEMISTRY",
    "LBORRES": 4.15,
    "LBORRESU": "g/dL",
    "LBSTRESN": 4.15,
    "LBSTRESU": "g/dL",
    "LBSTNRLO": 3.5,
    "LBSTNRHI": 5,
    "LBNRIND": "NORMAL",
    "LBBLFL": "Y",
    "VISITNUM": 1,
    "VISIT": "SCREENING",
    "VISITDY": -7,
    "LBDTC": "2012-12-26",
    "LBDY": -7
  },
  {
    "STUDYID": "CDISCPILOT01",
    "DOMAIN": "LB",
    "USUBJID": "01-701-003",
    "LBSEQ": 11,
    "LBTESTCD": "CREAT",
    "LBTEST": "Creatinine",
    "LBCAT": "CHEMISTRY",
    "LBORRES": 0.72,
    "LBORRESU": "mg/dL",
    "LBSTRESN": 0.72,
    "LBSTRESU": "mg/dL",
    "LBSTNRLO": 0.7,
    "LBSTNRHI": 1.3,
    "LBNRIND": "NORMAL",
    "LBBLFL": "Y",
    "VISITNUM": 1,
    "VISIT": "SCREENING",
    "VISITDY": -7,
    "LBDTC": "2012-12-24",
    "LBDY": -7
  },
  {
    "STUDYID": "CDISCPILOT01",
    "DOMAIN": "LB",
    "USUBJID": "01-701-003",
    "LBSEQ": 12,
    "LBTESTCD": "BUN",
    "LBTEST": "Blood Urea Nitrogen",
    "LBCAT": "CHEMISTRY",
    "LBORRES": 20.91,
    "LBORRESU": "mg/dL",
    "LBSTRESN": 20.91,
    "LBSTRESU": "mg/dL",
    "LBSTNRLO": 8,
    "LBSTNRHI": 23,
    "LBNRIND": "NORMAL",
    "LBBLFL": "Y",
    "VISITNUM": 1,
    "VISIT": "SCREENING",
    "VISITDY": -7,
    "LBDTC": "2012-12-24",
    "LBDY": -7
  },
  {
    "STUDYID": "CDISCPILOT01",
    "DOMAIN": "LB",
    "USUBJID": "01-701-003",
    "LBSEQ": 13,
    "LBTESTCD": "SODIUM",
    "LBTEST": "Sodium",
    "LBCAT": "CHEMISTRY",
    "LBORRES": 142.33,
    "LBORRESU": "mmol/L",
    "LBSTRESN": 142.33,
    "LBSTRESU": "mmol/L",
    "LBSTNRLO": 136,
    "LBSTNRHI": 145,
    "LBNRIND": "NORMAL",
    "LBBLFL": "Y",
    "VISITNUM": 1,
    "VISIT": "SCREENING",
    "VISITDY": -7,
    "LBDTC": "2012-12-24",
    "LBDY": -7
  },
  {
    "STUDYID": "CDISCPILOT01",
    "DOMAIN": "LB",
    "USUBJID": "01-701-003",
    "LBSEQ": 14,
    "LBTESTCD": "POTASSIUM",
    "LBTEST": "Potassium",
    "LBCAT": "CHEMISTRY",
    "LBORRES": 4.23,
    "LBORRESU": "mmol/L",
    "LBSTRESN": 4.23,
    "LBSTRESU": "mmol/L",
    "LBSTNRLO": 3.5,
    "LBSTNRHI": 5,
    "LBNRIND": "NORMAL",
    "LBBLFL": "Y",
    "VISITNUM": 1,
    "VISIT": "SCREENING",
    "VISITDY": -7,
    "LBDTC": "2012-12-24",
    "LBDY": -7
  },
  {
    "STUDYID": "CDISCPILOT01",
    "DOMAIN": "LB",
    "USUBJID": "01-701-003",
    "LBSEQ": 15,
    "LBTESTCD": "CHLORIDE",
    "LBTEST": "Chloride",
    "LBCAT": "CHEMISTRY",
    "LBORRES": 103.08,
    "LBORRESU": "mmol/L",
    "LBSTRESN": 103.08,
    "LBSTRESU": "mmol/L",
    "LBSTNRLO": 98,
    "LBSTNRHI": 106,
    "LBNRIND": "NORMAL",
    "LBBLFL": "Y",
    "VISITNUM": 1,
    "VISIT": "SCREENING",
    "VISITDY": -7,
    "LBDTC": "2012-12-24",
    "LBDY": -7
  },
  {
    "STUDYID": "CDISCPILOT01",
    "DOMAIN": "LB",
    "USUBJID": "01-701-003",
    "LBSEQ": 16,
    "LBTESTCD": "GLUC",
    "LBTEST": "Glucose",
    "LBCAT": "CHEMISTRY",
    "LBORRES": 106.15,
    "LBORRESU": "mg/dL",
    "LBSTRESN": 106.15,
    "LBSTRESU": "mg/dL",
    "LBSTNRLO": 70,
    "LBSTNRHI": 110,
    "LBNRIND": "NORMAL",
    "LBBLFL": "Y",
    "VISITNUM": 1,
    "VISIT": "SCREENING",
    "VISITDY": -7,
    "LBDTC": "2012-12-25",
    "LBDY": -7
  },
  {
    "STUDYID": "CDISCPILOT01",
    "DOMAIN": "LB",
    "USUBJID": "01-701-003",
    "LBSEQ": 17,
    "LBTESTCD": "HGB",
    "LBTEST": "Hemoglobin",
    "LBCAT": "HEMATOLOGY",
    "LBORRES": 10.42,
    "LBORRESU": "g/dL",
    "LBSTRESN": 10.42,
    "LBSTRESU": "g/dL",
    "LBSTNRLO": 12,
    "LBSTNRHI": 15.5,
    "LBNRIND": "LOW",
    "LBBLFL": "",
    "VISITNUM": 2,
    "VISIT": "BASELINE",
    "VISITDY": 1,
    "LBDTC": "2013-01-02",
    "LBDY": 1
  },
  {
    "STUDYID": "CDISCPILOT01",
    "DOMAIN": "LB",
    "USUBJID": "01-701-003",
    "LBSEQ": 18,
    "LBTESTCD": "WBC",
    "LBTEST": "White Blood Cells",
    "LBCAT": "HEMATOLOGY",
    "LBORRES": 7.08,
    "LBORRESU": "10^9/L",
    "LBSTRESN": 7.08,
    "LBSTRESU": "10^9/L",
    "LBSTNRLO": 4,
    "LBSTNRHI": 11,
    "LBNRIND": "NORMAL",
    "LBBLFL": "",
    "VISITNUM": 2,
    "VISIT": "BASELINE",
    "VISITDY": 1,
    "LBDTC": "2013-01-03",
    "LBDY": 1
  },
  {
    "STUDYID": "CDISCPILOT01",
    "DOMAIN": "LB",
    "USUBJID": "01-701-003",
    "LBSEQ": 19,
    "LBTESTCD": "RBC",
    "LBTEST": "Red Blood Cells",
    "LBCAT": "HEMATOLOGY",
    "LBORRES": 4.13,
    "LBORRESU": "10^12/L",
    "LBSTRESN": 4.13,
    "LBSTRESU": "10^12/L",
    "LBSTNRLO": 4,
    "LBSTNRHI": 5,
    "LBNRIND": "NORMAL",
    "LBBLFL": "",
    "VISITNUM": 2,
    "VISIT": "BASELINE",
    "VISITDY": 1,
    "LBDTC": "2013-01-02",
    "LBDY": 1
  },
  {
    "STUDYID": "CDISCPILOT01",
    "DOMAIN": "LB",
    "USUBJID": "01-701-003",
    "LBSEQ": 20,
    "LBTESTCD": "PLT",
    "LBTEST": "Platelets",
    "LBCAT": "HEMATOLOGY",
    "LBORRES": 188.83,
    "LBORRESU": "10^9/L",
    "LBSTRESN": 188.83,
    "LBSTRESU": "10^9/L",
    "LBSTNRLO": 150,
    "LBSTNRHI": 400,
    "LBNRIND": "NORMAL",
    "LBBLFL": "",
    "VISITNUM": 2,
    "VISIT": "BASELINE",
    "VISITDY": 1,
    "LBDTC": "2013-01-02",
    "LBDY": 1
  },
  {
    "STUDYID": "CDISCPILOT01",
    "DOMAIN": "LB",
    "USUBJID": "01-701-003",
    "LBSEQ": 21,
    "LBTESTCD": "HCT",
    "LBTEST": "Hematocrit",
    "LBCAT": "HEMATOLOGY",
    "LBORRES": 37.51,
    "LBORRESU": "%",
    "LBSTRESN": 37.51,
    "LBSTRESU": "%",
    "LBSTNRLO": 36,
    "LBSTNRHI": 44,
    "LBNRIND": "NORMAL",
    "LBBLFL": "",
    "VISITNUM": 2,
    "VISIT": "BASELINE",
    "VISITDY": 1,
    "LBDTC": "2013-01-01",
    "LBDY": 1
  },
  {
    "STUDYID": "CDISCPILOT01",
    "DOMAIN": "LB",
    "USUBJID": "01-701-003",
    "LBSEQ": 22,
    "LBTESTCD": "ALT",
    "LBTEST": "Alanine Aminotransferase",
    "LBCAT": "CHEMISTRY",
    "LBORRES": 18.59,
    "LBORRESU": "U/L",
    "LBSTRESN": 18.59,
    "LBSTRESU": "U/L",
    "LBSTNRLO": 7,
    "LBSTNRHI": 56,
    "LBNRIND": "NORMAL",
    "LBBLFL": "",
    "VISITNUM": 2,
    "VISIT": "BASELINE",
    "VISITDY": 1,
    "LBDTC": "2013-01-03",
    "LBDY": 1
  },
  {
    "STUDYID": "CDISCPILOT01",
    "DOMAIN": "LB",
    "USUBJID": "01-701-003",
    "LBSEQ": 23,
    "LBTESTCD": "AST",
    "LBTEST": "Aspartate Aminotransferase",
    "LBCAT": "CHEMISTRY",
    "LBORRES": 20.9,
    "LBORRESU": "U/L",
    "LBSTRESN": 20.9,
    "LBSTRESU": "U/L",
    "LBSTNRLO": 10,
    "LBSTNRHI": 40,
    "LBNRIND": "NORMAL",
    "LBBLFL": "",
    "VISITNUM": 2,
    "VISIT": "BASELINE",
    "VISITDY": 1,
    "LBDTC": "2013-01-01",
    "LBDY": 1
  },
  {
    "STUDYID": "CDISCPILOT01",
    "DOMAIN": "LB",
    "USUBJID": "01-701-003",
    "LBSEQ": 24,
    "LBTESTCD": "ALP",
    "LBTEST": "Alkaline Phosphatase",
    "LBCAT": "CHEMISTRY",
    "LBORRES": 73.96,
    "LBORRESU": "U/L",
    "LBSTRESN": 73.96,
    "LBSTRESU": "U/L",
    "LBSTNRLO": 44,
    "LBSTNRHI": 147,
    "LBNRIND": "NORMAL",
    "LBBLFL": "",
    "VISITNUM": 2,
    "VISIT": "BASELINE",
    "VISITDY": 1,
    "LBDTC": "2013-01-01",
    "LBDY": 1
  },
  {
    "STUDYID": "CDISCPILOT01",
    "DOMAIN": "LB",
    "USUBJID": "01-701-003",
    "LBSEQ": 25,
    "LBTESTCD": "BILI",
    "LBTEST": "Bilirubin",
    "LBCAT": "CHEMISTRY",
    "LBORRES": 0.43,
    "LBORRESU": "mg/dL",
    "LBSTRESN": 0.43,
    "LBSTRESU": "mg/dL",
    "LBSTNRLO": 0.1,
    "LBSTNRHI": 1.2,
    "LBNRIND": "NORMAL",
    "LBBLFL": "",
    "VISITNUM": 2,
    "VISIT": "BASELINE",
    "VISITDY": 1,
    "LBDTC": "2013-01-03",
    "LBDY": 1
  },
  {
    "STUDYID": "CDISCPILOT01",
    "DOMAIN": "LB",
    "USUBJID": "01-701-003",
    "LBSEQ": 26,
    "LBTESTCD": "ALB",
    "LBTEST": "Albumin",
    "LBCAT": "CHEMISTRY",
    "LBORRES": 4.24,
    "LBORRESU": "g/dL",
    "LBSTRESN": 4.24,
    "LBSTRESU": "g/dL",
    "LBSTNRLO": 3.5,
    "LBSTNRHI": 5,
    "LBNRIND": "NORMAL",
    "LBBLFL": "",
    "VISITNUM": 2,
    "VISIT": "BASELINE",
    "VISITDY": 1,
    "LBDTC": "2013-01-01",
    "LBDY": 1
  },
  {
    "STUDYID": "CDISCPILOT01",
    "DOMAIN": "LB",
    "USUBJID": "01-701-003",
    "LBSEQ": 27,
    "LBTESTCD": "CREAT",
    "LBTEST": "Creatinine",
    "LBCAT": "CHEMISTRY",
    "LBORRES": 0.73,
    "LBORRESU": "mg/dL",
    "LBSTRESN": 0.73,
    "LBSTRESU": "mg/dL",
    "LBSTNRLO": 0.7,
    "LBSTNRHI": 1.3,
    "LBNRIND": "NORMAL",
    "LBBLFL": "",
    "VISITNUM": 2,
    "VISIT": "BASELINE",
    "VISITDY": 1,
    "LBDTC": "2013-01-02",
    "LBDY": 1
  },
  {
    "STUDYID": "CDISCPILOT01",
    "DOMAIN": "LB",
    "USUBJID": "01-701-003",
    "LBSEQ": 28,
    "LBTESTCD": "BUN",
    "LBTEST": "Blood Urea Nitrogen",
    "LBCAT": "CHEMISTRY",
    "LBORRES": 21.95,
    "LBORRESU": "mg/dL",
    "LBSTRESN": 21.95,
    "LBSTRESU": "mg/dL",
    "LBSTNRLO": 8,
    "LBSTNRHI": 23,
    "LBNRIND": "NORMAL",
    "LBBLFL": "",
    "VISITNUM": 2,
    "VISIT": "BASELINE",
    "VISITDY": 1,
    "LBDTC": "2013-01-03",
    "LBDY": 1
  },
  {
    "STUDYID": "CDISCPILOT01",
    "DOMAIN": "LB",
    "USUBJID": "01-701-003",
    "LBSEQ": 29,
    "LBTESTCD": "SODIUM",
    "LBTEST": "Sodium",
    "LBCAT": "CHEMISTRY",
    "LBORRES": 142.21,
    "LBORRESU": "mmol/L",
    "LBSTRESN": 142.21,
    "LBSTRESU": "mmol/L",
    "LBSTNRLO": 136,
    "LBSTNRHI": 145,
    "LBNRIND": "NORMAL",
    "LBBLFL": "",
    "VISITNUM": 2,
    "VISIT": "BASELINE",
    "VISITDY": 1,
    "LBDTC": "2013-01-03",
    "LBDY": 1
  },
  {
    "STUDYID": "CDISCPILOT01",
    "DOMAIN": "LB",
    "USUBJID": "01-701-003",
    "LBSEQ": 30,
    "LBTESTCD": "POTASSIUM",
    "LBTEST": "Potassium",
    "LBCAT": "CHEMISTRY",
    "LBORRES": 4.18,
    "LBORRESU": "mmol/L",
    "LBSTRESN": 4.18,
    "LBSTRESU": "mmol/L",
    "LBSTNRLO": 3.5,
    "LBSTNRHI": 5,
    "LBNRIND": "NORMAL",
    "LBBLFL": "",
    "VISITNUM": 2,
    "VISIT": "BASELINE",
    "VISITDY": 1,
    "LBDTC": "2013-01-02",
    "LBDY": 1
  },
  {
    "STUDYID": "CDISCPILOT01",
    "DOMAIN": "LB",
    "USUBJID": "01-701-003",
    "LBSEQ": 31,
    "LBTESTCD": "CHLORIDE",
    "LBTEST": "Chloride",
    "LBCAT": "CHEMISTRY",
    "LBORRES": 102.88,
    "LBORRESU": "mmol/L",
    "LBSTRESN": 102.88,
    "LBSTRESU": "mmol/L",
    "LBSTNRLO": 98,
    "LBSTNRHI": 106,
    "LBNRIND": "NORMAL",
    "LBBLFL": "",
    "VISITNUM": 2,
    "VISIT": "BASELINE",
    "VISITDY": 1,
    "LBDTC": "2013-01-02",
    "LBDY": 1
  },
  {
    "STUDYID": "CDISCPILOT01",
    "DOMAIN": "LB",
    "USUBJID": "01-701-003",
    "LBSEQ": 32,
    "LBTESTCD": "GLUC",
    "LBTEST": "Glucose",
    "LBCAT": "CHEMISTRY",
    "LBORRES": 107.74,
    "LBORRESU": "mg/dL",
    "LBSTRESN": 107.74,
    "LBSTRESU": "mg/dL",
    "LBSTNRLO": 70,
    "LBSTNRHI": 110,
    "LBNRIND": "NORMAL",
    "LBBLFL": "",
    "VISITNUM": 2,
    "VISIT": "BASELINE",
    "VISITDY": 1,
    "LBDTC": "2013-01-03",
    "LBDY": 1
  },
  {
    "STUDYID": "CDISCPILOT01",
    "DOMAIN": "LB",
    "USUBJID": "01-701-003",
    "LBSEQ": 33,
    "LBTESTCD": "HGB",
    "LBTEST": "Hemoglobin",
    "LBCAT": "HEMATOLOGY",
    "LBORRES": 10.67,
    "LBORRESU": "g/dL",
    "LBSTRESN": 10.67,
    "LBSTRESU": "g/dL",
    "LBSTNRLO": 12,
    "LBSTNRHI": 15.5,
    "LBNRIND": "LOW",
    "LBBLFL": "",
    "VISITNUM": 5,
    "VISIT": "WEEK 8",
    "VISITDY": 57,
    "LBDTC": "2013-02-26",
    "LBDY": 57
  },
  {
    "STUDYID": "CDISCPILOT01",
    "DOMAIN": "LB",
    "USUBJID": "01-701-003",
    "LBSEQ": 34,
    "LBTESTCD": "WBC",
    "LBTEST": "White Blood Cells",
    "LBCAT": "HEMATOLOGY",
    "LBORRES": 7.56,
    "LBORRESU": "10^9/L",
    "LBSTRESN": 7.56,
    "LBSTRESU": "10^9/L",
    "LBSTNRLO": 4,
    "LBSTNRHI": 11,
    "LBNRIND": "NORMAL",
    "LBBLFL": "",
    "VISITNUM": 5,
    "VISIT": "WEEK 8",
    "VISITDY": 57,
    "LBDTC": "2013-02-27",
    "LBDY": 57
  },
  {
    "STUDYID": "CDISCPILOT01",
    "DOMAIN": "LB",
    "USUBJID": "01-701-003",
    "LBSEQ": 35,
    "LBTESTCD": "RBC",
    "LBTEST": "Red Blood Cells",
    "LBCAT": "HEMATOLOGY",
    "LBORRES": 4.13,
    "LBORRESU": "10^12/L",
    "LBSTRESN": 4.13,
    "LBSTRESU": "10^12/L",
    "LBSTNRLO": 4,
    "LBSTNRHI": 5,
    "LBNRIND": "NORMAL",
    "LBBLFL": "",
    "VISITNUM": 5,
    "VISIT": "WEEK 8",
    "VISITDY": 57,
    "LBDTC": "2013-02-28",
    "LBDY": 57
  },
  {
    "STUDYID": "CDISCPILOT01",
    "DOMAIN": "LB",
    "USUBJID": "01-701-003",
    "LBSEQ": 36,
    "LBTESTCD": "PLT",
    "LBTEST": "Platelets",
    "LBCAT": "HEMATOLOGY",
    "LBORRES": 177.24,
    "LBORRESU": "10^9/L",
    "LBSTRESN": 177.24,
    "LBSTRESU": "10^9/L",
    "LBSTNRLO": 150,
    "LBSTNRHI": 400,
    "LBNRIND": "NORMAL",
    "LBBLFL": "",
    "VISITNUM": 5,
    "VISIT": "WEEK 8",
    "VISITDY": 57,
    "LBDTC": "2013-02-28",
    "LBDY": 57
  },
  {
    "STUDYID": "CDISCPILOT01",
    "DOMAIN": "LB",
    "USUBJID": "01-701-003",
    "LBSEQ": 37,
    "LBTESTCD": "HCT",
    "LBTEST": "Hematocrit",
    "LBCAT": "HEMATOLOGY",
    "LBORRES": 37.54,
    "LBORRESU": "%",
    "LBSTRESN": 37.54,
    "LBSTRESU": "%",
    "LBSTNRLO": 36,
    "LBSTNRHI": 44,
    "LBNRIND": "NORMAL",
    "LBBLFL": "",
    "VISITNUM": 5,
    "VISIT": "WEEK 8",
    "VISITDY": 57,
    "LBDTC": "2013-02-27",
    "LBDY": 57
  },
  {
    "STUDYID": "CDISCPILOT01",
    "DOMAIN": "LB",
    "USUBJID": "01-701-003",
    "LBSEQ": 38,
    "LBTESTCD": "ALT",
    "LBTEST": "Alanine Aminotransferase",
    "LBCAT": "CHEMISTRY",
    "LBORRES": 13.01,
    "LBORRESU": "U/L",
    "LBSTRESN": 13.01,
    "LBSTRESU": "U/L",
    "LBSTNRLO": 7,
    "LBSTNRHI": 56,
    "LBNRIND": "NORMAL",
    "LBBLFL": "",
    "VISITNUM": 5,
    "VISIT": "WEEK 8",
    "VISITDY": 57,
    "LBDTC": "2013-02-27",
    "LBDY": 57
  },
  {
    "STUDYID": "CDISCPILOT01",
    "DOMAIN": "LB",
    "USUBJID": "01-701-003",
    "LBSEQ": 39,
    "LBTESTCD": "AST",
    "LBTEST": "Aspartate Aminotransferase",
    "LBCAT": "CHEMISTRY",
    "LBORRES": 19.3,
    "LBORRESU": "U/L",
    "LBSTRESN": 19.3,
    "LBSTRESU": "U/L",
    "LBSTNRLO": 10,
    "LBSTNRHI": 40,
    "LBNRIND": "NORMAL",
    "LBBLFL": "",
    "VISITNUM": 5,
    "VISIT": "WEEK 8",
    "VISITDY": 57,
    "LBDTC": "2013-02-27",
    "LBDY": 57
  },
  {
    "STUDYID": "CDISCPILOT01",
    "DOMAIN": "LB",
    "USUBJID": "01-701-003",
    "LBSEQ": 40,
    "LBTESTCD": "ALP",
    "LBTEST": "Alkaline Phosphatase",
    "LBCAT": "CHEMISTRY",
    "LBORRES": 73.06,
    "LBORRESU": "U/L",
    "LBSTRESN": 73.06,
    "LBSTRESU": "U/L",
    "LBSTNRLO": 44,
    "LBSTNRHI": 147,
    "LBNRIND": "NORMAL",
    "LBBLFL": "",
    "VISITNUM": 5,
    "VISIT": "WEEK 8",
    "VISITDY": 57,
    "LBDTC": "2013-02-27",
    "LBDY": 57
  },
  {
    "STUDYID": "CDISCPILOT01",
    "DOMAIN": "LB",
    "USUBJID": "01-701-003",
    "LBSEQ": 41,
    "LBTESTCD": "BILI",
    "LBTEST": "Bilirubin",
    "LBCAT": "CHEMISTRY",
    "LBORRES": 0.43,
    "LBORRESU": "mg/dL",
    "LBSTRESN": 0.43,
    "LBSTRESU": "mg/dL",
    "LBSTNRLO": 0.1,
    "LBSTNRHI": 1.2,
    "LBNRIND": "NORMAL",
    "LBBLFL": "",
    "VISITNUM": 5,
    "VISIT": "WEEK 8",
    "VISITDY": 57,
    "LBDTC": "2013-02-26",
    "LBDY": 57
  },
  {
    "STUDYID": "CDISCPILOT01",
    "DOMAIN": "LB",
    "USUBJID": "01-701-003",
    "LBSEQ": 42,
    "LBTESTCD": "ALB",
    "LBTEST": "Albumin",
    "LBCAT": "CHEMISTRY",
    "LBORRES": 4.08,
    "LBORRESU": "g/dL",
    "LBSTRESN": 4.08,
    "LBSTRESU": "g/dL",
    "LBSTNRLO": 3.5,
    "LBSTNRHI": 5,
    "LBNRIND": "NORMAL",
    "LBBLFL": "",
    "VISITNUM": 5,
    "VISIT": "WEEK 8",
    "VISITDY": 57,
    "LBDTC": "2013-02-28",
    "LBDY": 57
  },
  {
    "STUDYID": "CDISCPILOT01",
    "DOMAIN": "LB",
    "USUBJID": "01-701-003",
    "LBSEQ": 43,
    "LBTESTCD": "CREAT",
    "LBTEST": "Creatinine",
    "LBCAT": "CHEMISTRY",
    "LBORRES": 0.66,
    "LBORRESU": "mg/dL",
    "LBSTRESN": 0.66,
    "LBSTRESU": "mg/dL",
    "LBSTNRLO": 0.7,
    "LBSTNRHI": 1.3,
    "LBNRIND": "LOW",
    "LBBLFL": "",
    "VISITNUM": 5,
    "VISIT": "WEEK 8",
    "VISITDY": 57,
    "LBDTC": "2013-02-26",
    "LBDY": 57
  },
  {
    "STUDYID": "CDISCPILOT01",
    "DOMAIN": "LB",
    "USUBJID": "01-701-003",
    "LBSEQ": 44,
    "LBTESTCD": "BUN",
    "LBTEST": "Blood Urea Nitrogen",
    "LBCAT": "CHEMISTRY",
    "LBORRES": 20.71,
    "LBORRESU": "mg/dL",
    "LBSTRESN": 20.71,
    "LBSTRESU": "mg/dL",
    "LBSTNRLO": 8,
    "LBSTNRHI": 23,
    "LBNRIND": "NORMAL",
    "LBBLFL": "",
    "VISITNUM": 5,
    "VISIT": "WEEK 8",
    "VISITDY": 57,
    "LBDTC": "2013-02-27",
    "LBDY": 57
  },
  {
    "STUDYID": "CDISCPILOT01",
    "DOMAIN": "LB",
    "USUBJID": "01-701-003",
    "LBSEQ": 45,
    "LBTESTCD": "SODIUM",
    "LBTEST": "Sodium",
    "LBCAT": "CHEMISTRY",
    "LBORRES": 142.6,
    "LBORRESU": "mmol/L",
    "LBSTRESN": 142.6,
    "LBSTRESU": "mmol/L",
    "LBSTNRLO": 136,
    "LBSTNRHI": 145,
    "LBNRIND": "NORMAL",
    "LBBLFL": "",
    "VISITNUM": 5,
    "VISIT": "WEEK 8",
    "VISITDY": 57,
    "LBDTC": "2013-02-28",
    "LBDY": 57
  },
  {
    "STUDYID": "CDISCPILOT01",
    "DOMAIN": "LB",
    "USUBJID": "01-701-003",
    "LBSEQ": 46,
    "LBTESTCD": "POTASSIUM",
    "LBTEST": "Potassium",
    "LBCAT": "CHEMISTRY",
    "LBORRES": 4.2,
    "LBORRESU": "mmol/L",
    "LBSTRESN": 4.2,
    "LBSTRESU": "mmol/L",
    "LBSTNRLO": 3.5,
    "LBSTNRHI": 5,
    "LBNRIND": "NORMAL",
    "LBBLFL": "",
    "VISITNUM": 5,
    "VISIT": "WEEK 8",
    "VISITDY": 57,
    "LBDTC": "2013-02-26",
    "LBDY": 57
  },
  {
    "STUDYID": "CDISCPILOT01",
    "DOMAIN": "LB",
    "USUBJID": "01-701-003",
    "LBSEQ": 47,
    "LBTESTCD": "CHLORIDE",
    "LBTEST": "Chloride",
    "LBCAT": "CHEMISTRY",
    "LBORRES": 102.83,
    "LBORRESU": "mmol/L",
    "LBSTRESN": 102.83,
    "LBSTRESU": "mmol/L",
    "LBSTNRLO": 98,
    "LBSTNRHI": 106,
    "LBNRIND": "NORMAL",
    "LBBLFL": "",
    "VISITNUM": 5,
    "VISIT": "WEEK 8",
    "VISITDY": 57,
    "LBDTC": "2013-02-26",
    "LBDY": 57
  },
  {
    "STUDYID": "CDISCPILOT01",
    "DOMAIN": "LB",
    "USUBJID": "01-701-003",
    "LBSEQ": 48,
    "LBTESTCD": "GLUC",
    "LBTEST": "Glucose",
    "LBCAT": "CHEMISTRY",
    "LBORRES": 109.64,
    "LBORRESU": "mg/dL",
    "LBSTRESN": 109.64,
    "LBSTRESU": "mg/dL",
    "LBSTNRLO": 70,
    "LBSTNRHI": 110,
    "LBNRIND": "NORMAL",
    "LBBLFL": "",
    "VISITNUM": 5,
    "VISIT": "WEEK 8",
    "VISITDY": 57,
    "LBDTC": "2013-02-27",
    "LBDY": 57
  },
  {
    "STUDYID": "CDISCPILOT01",
    "DOMAIN": "LB",
    "USUBJID": "01-701-003",
    "LBSEQ": 49,
    "LBTESTCD": "HGB",
    "LBTEST": "Hemoglobin",
    "LBCAT": "HEMATOLOGY",
    "LBORRES": 10.36,
    "LBORRESU": "g/dL",
    "LBSTRESN": 10.36,
    "LBSTRESU": "g/dL",
    "LBSTNRLO": 12,
    "LBSTNRHI": 15.5,
    "LBNRIND": "LOW",
    "LBBLFL": "",
    "VISITNUM": 7,
    "VISIT": "WEEK 16",
    "VISITDY": 113,
    "LBDTC": "2013-04-24",
    "LBDY": 113
  },
  {
    "STUDYID": "CDISCPILOT01",
    "DOMAIN": "LB",
    "USUBJID": "01-701-003",
    "LBSEQ": 50,
    "LBTESTCD": "WBC",
    "LBTEST": "White Blood Cells",
    "LBCAT": "HEMATOLOGY",
    "LBORRES": 7.26,
    "LBORRESU": "10^9/L",
    "LBSTRESN": 7.26,
    "LBSTRESU": "10^9/L",
    "LBSTNRLO": 4,
    "LBSTNRHI": 11,
    "LBNRIND": "NORMAL",
    "LBBLFL": "",
    "VISITNUM": 7,
    "VISIT": "WEEK 16",
    "VISITDY": 113,
    "LBDTC": "2013-04-24",
    "LBDY": 113
  },
  {
    "STUDYID": "CDISCPILOT01",
    "DOMAIN": "LB",
    "USUBJID": "01-701-003",
    "LBSEQ": 51,
    "LBTESTCD": "RBC",
    "LBTEST": "Red Blood Cells",
    "LBCAT": "HEMATOLOGY",
    "LBORRES": 4.15,
    "LBORRESU": "10^12/L",
    "LBSTRESN": 4.15,
    "LBSTRESU": "10^12/L",
    "LBSTNRLO": 4,
    "LBSTNRHI": 5,
    "LBNRIND": "NORMAL",
    "LBBLFL": "",
    "VISITNUM": 7,
    "VISIT": "WEEK 16",
    "VISITDY": 113,
    "LBDTC": "2013-04-25",
    "LBDY": 113
  },
  {
    "STUDYID": "CDISCPILOT01",
    "DOMAIN": "LB",
    "USUBJID": "01-701-003",
    "LBSEQ": 52,
    "LBTESTCD": "PLT",
    "LBTEST": "Platelets",
    "LBCAT": "HEMATOLOGY",
    "LBORRES": 187.42,
    "LBORRESU": "10^9/L",
    "LBSTRESN": 187.42,
    "LBSTRESU": "10^9/L",
    "LBSTNRLO": 150,
    "LBSTNRHI": 400,
    "LBNRIND": "NORMAL",
    "LBBLFL": "",
    "VISITNUM": 7,
    "VISIT": "WEEK 16",
    "VISITDY": 113,
    "LBDTC": "2013-04-23",
    "LBDY": 113
  },
  {
    "STUDYID": "CDISCPILOT01",
    "DOMAIN": "LB",
    "USUBJID": "01-701-003",
    "LBSEQ": 53,
    "LBTESTCD": "HCT",
    "LBTEST": "Hematocrit",
    "LBCAT": "HEMATOLOGY",
    "LBORRES": 37.89,
    "LBORRESU": "%",
    "LBSTRESN": 37.89,
    "LBSTRESU": "%",
    "LBSTNRLO": 36,
    "LBSTNRHI": 44,
    "LBNRIND": "NORMAL",
    "LBBLFL": "",
    "VISITNUM": 7,
    "VISIT": "WEEK 16",
    "VISITDY": 113,
    "LBDTC": "2013-04-23",
    "LBDY": 113
  },
  {
    "STUDYID": "CDISCPILOT01",
    "DOMAIN": "LB",
    "USUBJID": "01-701-003",
    "LBSEQ": 54,
    "LBTESTCD": "ALT",
    "LBTEST": "Alanine Aminotransferase",
    "LBCAT": "CHEMISTRY",
    "LBORRES": 14.34,
    "LBORRESU": "U/L",
    "LBSTRESN": 14.34,
    "LBSTRESU": "U/L",
    "LBSTNRLO": 7,
    "LBSTNRHI": 56,
    "LBNRIND": "NORMAL",
    "LBBLFL": "",
    "VISITNUM": 7,
    "VISIT": "WEEK 16",
    "VISITDY": 113,
    "LBDTC": "2013-04-23",
    "LBDY": 113
  },
  {
    "STUDYID": "CDISCPILOT01",
    "DOMAIN": "LB",
    "USUBJID": "01-701-003",
    "LBSEQ": 55,
    "LBTESTCD": "AST",
    "LBTEST": "Aspartate Aminotransferase",
    "LBCAT": "CHEMISTRY",
    "LBORRES": 18.65,
    "LBORRESU": "U/L",
    "LBSTRESN": 18.65,
    "LBSTRESU": "U/L",
    "LBSTNRLO": 10,
    "LBSTNRHI": 40,
    "LBNRIND": "NORMAL",
    "LBBLFL": "",
    "VISITNUM": 7,
    "VISIT": "WEEK 16",
    "VISITDY": 113,
    "LBDTC": "2013-04-25",
    "LBDY": 113
  },
  {
    "STUDYID": "CDISCPILOT01",
    "DOMAIN": "LB",
    "USUBJID": "01-701-003",
    "LBSEQ": 56,
    "LBTESTCD": "ALP",
    "LBTEST": "Alkaline Phosphatase",
    "LBCAT": "CHEMISTRY",
    "LBORRES": 71.5,
    "LBORRESU": "U/L",
    "LBSTRESN": 71.5,
    "LBSTRESU": "U/L",
    "LBSTNRLO": 44,
    "LBSTNRHI": 147,
    "LBNRIND": "NORMAL",
    "LBBLFL": "",
    "VISITNUM": 7,
    "VISIT": "WEEK 16",
    "VISITDY": 113,
    "LBDTC": "2013-04-23",
    "LBDY": 113
  },
  {
    "STUDYID": "CDISCPILOT01",
    "DOMAIN": "LB",
    "USUBJID": "01-701-003",
    "LBSEQ": 57,
    "LBTESTCD": "BILI",
    "LBTEST": "Bilirubin",
    "LBCAT": "CHEMISTRY",
    "LBORRES": 0.46,
    "LBORRESU": "mg/dL",
    "LBSTRESN": 0.46,
    "LBSTRESU": "mg/dL",
    "LBSTNRLO": 0.1,
    "LBSTNRHI": 1.2,
    "LBNRIND": "NORMAL",
    "LBBLFL": "",
    "VISITNUM": 7,
    "VISIT": "WEEK 16",
    "VISITDY": 113,
    "LBDTC": "2013-04-23",
    "LBDY": 113
  },
  {
    "STUDYID": "CDISCPILOT01",
    "DOMAIN": "LB",
    "USUBJID": "01-701-003",
    "LBSEQ": 58,
    "LBTESTCD": "ALB",
    "LBTEST": "Albumin",
    "LBCAT": "CHEMISTRY",
    "LBORRES": 4.18,
    "LBORRESU": "g/dL",
    "LBSTRESN": 4.18,
    "LBSTRESU": "g/dL",
    "LBSTNRLO": 3.5,
    "LBSTNRHI": 5,
    "LBNRIND": "NORMAL",
    "LBBLFL": "",
    "VISITNUM": 7,
    "VISIT": "WEEK 16",
    "VISITDY": 113,
    "LBDTC": "2013-04-24",
    "LBDY": 113
  },
  {
    "STUDYID": "CDISCPILOT01",
    "DOMAIN": "LB",
    "USUBJID": "01-701-003",
    "LBSEQ": 59,
    "LBTESTCD": "CREAT",
    "LBTEST": "Creatinine",
    "LBCAT": "CHEMISTRY",
    "LBORRES": 0.77,
    "LBORRESU": "mg/dL",
    "LBSTRESN": 0.77,
    "LBSTRESU": "mg/dL",
    "LBSTNRLO": 0.7,
    "LBSTNRHI": 1.3,
    "LBNRIND": "NORMAL",
    "LBBLFL": "",
    "VISITNUM": 7,
    "VISIT": "WEEK 16",
    "VISITDY": 113,
    "LBDTC": "2013-04-24",
    "LBDY": 113
  },
  {
    "STUDYID": "CDISCPILOT01",
    "DOMAIN": "LB",
    "USUBJID": "01-701-003",
    "LBSEQ": 60,
    "LBTESTCD": "BUN",
    "LBTEST": "Blood Urea Nitrogen",
    "LBCAT": "CHEMISTRY",
    "LBORRES": 21.03,
    "LBORRESU": "mg/dL",
    "LBSTRESN": 21.03,
    "LBSTRESU": "mg/dL",
    "LBSTNRLO": 8,
    "LBSTNRHI": 23,
    "LBNRIND": "NORMAL",
    "LBBLFL": "",
    "VISITNUM": 7,
    "VISIT": "WEEK 16",
    "VISITDY": 113,
    "LBDTC": "2013-04-23",
    "LBDY": 113
  },
  {
    "STUDYID": "CDISCPILOT01",
    "DOMAIN": "LB",
    "USUBJID": "01-701-003",
    "LBSEQ": 61,
    "LBTESTCD": "SODIUM",
    "LBTEST": "Sodium",
    "LBCAT": "CHEMISTRY",
    "LBORRES": 143.18,
    "LBORRESU": "mmol/L",
    "LBSTRESN": 143.18,
    "LBSTRESU": "mmol/L",
    "LBSTNRLO": 136,
    "LBSTNRHI": 145,
    "LBNRIND": "NORMAL",
    "LBBLFL": "",
    "VISITNUM": 7,
    "VISIT": "WEEK 16",
    "VISITDY": 113,
    "LBDTC": "2013-04-25",
    "LBDY": 113
  },
  {
    "STUDYID": "CDISCPILOT01",
    "DOMAIN": "LB",
    "USUBJID": "01-701-003",
    "LBSEQ": 62,
    "LBTESTCD": "POTASSIUM",
    "LBTEST": "Potassium",
    "LBCAT": "CHEMISTRY",
    "LBORRES": 4.23,
    "LBORRESU": "mmol/L",
    "LBSTRESN": 4.23,
    "LBSTRESU": "mmol/L",
    "LBSTNRLO": 3.5,
    "LBSTNRHI": 5,
    "LBNRIND": "NORMAL",
    "LBBLFL": "",
    "VISITNUM": 7,
    "VISIT": "WEEK 16",
    "VISITDY": 113,
    "LBDTC": "2013-04-23",
    "LBDY": 113
  },
  {
    "STUDYID": "CDISCPILOT01",
    "DOMAIN": "LB",
    "USUBJID": "01-701-003",
    "LBSEQ": 63,
    "LBTESTCD": "CHLORIDE",
    "LBTEST": "Chloride",
    "LBCAT": "CHEMISTRY",
    "LBORRES": 103.11,
    "LBORRESU": "mmol/L",
    "LBSTRESN": 103.11,
    "LBSTRESU": "mmol/L",
    "LBSTNRLO": 98,
    "LBSTNRHI": 106,
    "LBNRIND": "NORMAL",
    "LBBLFL": "",
    "VISITNUM": 7,
    "VISIT": "WEEK 16",
    "VISITDY": 113,
    "LBDTC": "2013-04-24",
    "LBDY": 113
  },
  {
    "STUDYID": "CDISCPILOT01",
    "DOMAIN": "LB",
    "USUBJID": "01-701-003",
    "LBSEQ": 64,
    "LBTESTCD": "GLUC",
    "LBTEST": "Glucose",
    "LBCAT": "CHEMISTRY",
    "LBORRES": 102.86,
    "LBORRESU": "mg/dL",
    "LBSTRESN": 102.86,
    "LBSTRESU": "mg/dL",
    "LBSTNRLO": 70,
    "LBSTNRHI": 110,
    "LBNRIND": "NORMAL",
    "LBBLFL": "",
    "VISITNUM": 7,
    "VISIT": "WEEK 16",
    "VISITDY": 113,
    "LBDTC": "2013-04-23",
    "LBDY": 113
  },
  {
    "STUDYID": "CDISCPILOT01",
    "DOMAIN": "LB",
    "USUBJID": "01-701-003",
    "LBSEQ": 65,
    "LBTESTCD": "HGB",
    "LBTEST": "Hemoglobin",
    "LBCAT": "HEMATOLOGY",
    "LBORRES": 10.62,
    "LBORRESU": "g/dL",
    "LBSTRESN": 10.62,
    "LBSTRESU": "g/dL",
    "LBSTNRLO": 12,
    "LBSTNRHI": 15.5,
    "LBNRIND": "LOW",
    "LBBLFL": "",
    "VISITNUM": 9,
    "VISIT": "WEEK 24",
    "VISITDY": 169,
    "LBDTC": "2013-06-19",
    "LBDY": 169
  },
  {
    "STUDYID": "CDISCPILOT01",
    "DOMAIN": "LB",
    "USUBJID": "01-701-003",
    "LBSEQ": 66,
    "LBTESTCD": "WBC",
    "LBTEST": "White Blood Cells",
    "LBCAT": "HEMATOLOGY",
    "LBORRES": 7.16,
    "LBORRESU": "10^9/L",
    "LBSTRESN": 7.16,
    "LBSTRESU": "10^9/L",
    "LBSTNRLO": 4,
    "LBSTNRHI": 11,
    "LBNRIND": "NORMAL",
    "LBBLFL": "",
    "VISITNUM": 9,
    "VISIT": "WEEK 24",
    "VISITDY": 169,
    "LBDTC": "2013-06-19",
    "LBDY": 169
  },
  {
    "STUDYID": "CDISCPILOT01",
    "DOMAIN": "LB",
    "USUBJID": "01-701-003",
    "LBSEQ": 67,
    "LBTESTCD": "RBC",
    "LBTEST": "Red Blood Cells",
    "LBCAT": "HEMATOLOGY",
    "LBORRES": 4.12,
    "LBORRESU": "10^12/L",
    "LBSTRESN": 4.12,
    "LBSTRESU": "10^12/L",
    "LBSTNRLO": 4,
    "LBSTNRHI": 5,
    "LBNRIND": "NORMAL",
    "LBBLFL": "",
    "VISITNUM": 9,
    "VISIT": "WEEK 24",
    "VISITDY": 169,
    "LBDTC": "2013-06-20",
    "LBDY": 169
  },
  {
    "STUDYID": "CDISCPILOT01",
    "DOMAIN": "LB",
    "USUBJID": "01-701-003",
    "LBSEQ": 68,
    "LBTESTCD": "PLT",
    "LBTEST": "Platelets",
    "LBCAT": "HEMATOLOGY",
    "LBORRES": 181.65,
    "LBORRESU": "10^9/L",
    "LBSTRESN": 181.65,
    "LBSTRESU": "10^9/L",
    "LBSTNRLO": 150,
    "LBSTNRHI": 400,
    "LBNRIND": "NORMAL",
    "LBBLFL": "",
    "VISITNUM": 9,
    "VISIT": "WEEK 24",
    "VISITDY": 169,
    "LBDTC": "2013-06-20",
    "LBDY": 169
  },
  {
    "STUDYID": "CDISCPILOT01",
    "DOMAIN": "LB",
    "USUBJID": "01-701-003",
    "LBSEQ": 69,
    "LBTESTCD": "HCT",
    "LBTEST": "Hematocrit",
    "LBCAT": "HEMATOLOGY",
    "LBORRES": 38.52,
    "LBORRESU": "%",
    "LBSTRESN": 38.52,
    "LBSTRESU": "%",
    "LBSTNRLO": 36,
    "LBSTNRHI": 44,
    "LBNRIND": "NORMAL",
    "LBBLFL": "",
    "VISITNUM": 9,
    "VISIT": "WEEK 24",
    "VISITDY": 169,
    "LBDTC": "2013-06-20",
    "LBDY": 169
  },
  {
    "STUDYID": "CDISCPILOT01",
    "DOMAIN": "LB",
    "USUBJID": "01-701-003",
    "LBSEQ": 70,
    "LBTESTCD": "ALT",
    "LBTEST": "Alanine Aminotransferase",
    "LBCAT": "CHEMISTRY",
    "LBORRES": 13.25,
    "LBORRESU": "U/L",
    "LBSTRESN": 13.25,
    "LBSTRESU": "U/L",
    "LBSTNRLO": 7,
    "LBSTNRHI": 56,
    "LBNRIND": "NORMAL",
    "LBBLFL": "",
    "VISITNUM": 9,
    "VISIT": "WEEK 24",
    "VISITDY": 169,
    "LBDTC": "2013-06-20",
    "LBDY": 169
  },
  {
    "STUDYID": "CDISCPILOT01",
    "DOMAIN": "LB",
    "USUBJID": "01-701-003",
    "LBSEQ": 71,
    "LBTESTCD": "AST",
    "LBTEST": "Aspartate Aminotransferase",
    "LBCAT": "CHEMISTRY",
    "LBORRES": 18.94,
    "LBORRESU": "U/L",
    "LBSTRESN": 18.94,
    "LBSTRESU": "U/L",
    "LBSTNRLO": 10,
    "LBSTNRHI": 40,
    "LBNRIND": "NORMAL",
    "LBBLFL": "",
    "VISITNUM": 9,
    "VISIT": "WEEK 24",
    "VISITDY": 169,
    "LBDTC": "2013-06-18",
    "LBDY": 169
  },
  {
    "STUDYID": "CDISCPILOT01",
    "DOMAIN": "LB",
    "USUBJID": "01-701-003",
    "LBSEQ": 72,
    "LBTESTCD": "ALP",
    "LBTEST": "Alkaline Phosphatase",
    "LBCAT": "CHEMISTRY",
    "LBORRES": 71.9,
    "LBORRESU": "U/L",
    "LBSTRESN": 71.9,
    "LBSTRESU": "U/L",
    "LBSTNRLO": 44,
    "LBSTNRHI": 147,
    "LBNRIND": "NORMAL",
    "LBBLFL": "",
    "VISITNUM": 9,
    "VISIT": "WEEK 24",
    "VISITDY": 169,
    "LBDTC": "2013-06-20",
    "LBDY": 169
  },
  {
    "STUDYID": "CDISCPILOT01",
    "DOMAIN": "LB",
    "USUBJID": "01-701-003",
    "LBSEQ": 73,
    "LBTESTCD": "BILI",
    "LBTEST": "Bilirubin",
    "LBCAT": "CHEMISTRY",
    "LBORRES": 0.43,
    "LBORRESU": "mg/dL",
    "LBSTRESN": 0.43,
    "LBSTRESU": "mg/dL",
    "LBSTNRLO": 0.1,
    "LBSTNRHI": 1.2,
    "LBNRIND": "NORMAL",
    "LBBLFL": "",
    "VISITNUM": 9,
    "VISIT": "WEEK 24",
    "VISITDY": 169,
    "LBDTC": "2013-06-19",
    "LBDY": 169
  },
  {
    "STUDYID": "CDISCPILOT01",
    "DOMAIN": "LB",
    "USUBJID": "01-701-003",
    "LBSEQ": 74,
    "LBTESTCD": "ALB",
    "LBTEST": "Albumin",
    "LBCAT": "CHEMISTRY",
    "LBORRES": 4.14,
    "LBORRESU": "g/dL",
    "LBSTRESN": 4.14,
    "LBSTRESU": "g/dL",
    "LBSTNRLO": 3.5,
    "LBSTNRHI": 5,
    "LBNRIND": "NORMAL",
    "LBBLFL": "",
    "VISITNUM": 9,
    "VISIT": "WEEK 24",
    "VISITDY": 169,
    "LBDTC": "2013-06-19",
    "LBDY": 169
  },
  {
    "STUDYID": "CDISCPILOT01",
    "DOMAIN": "LB",
    "USUBJID": "01-701-003",
    "LBSEQ": 75,
    "LBTESTCD": "CREAT",
    "LBTEST": "Creatinine",
    "LBCAT": "CHEMISTRY",
    "LBORRES": 0.71,
    "LBORRESU": "mg/dL",
    "LBSTRESN": 0.71,
    "LBSTRESU": "mg/dL",
    "LBSTNRLO": 0.7,
    "LBSTNRHI": 1.3,
    "LBNRIND": "NORMAL",
    "LBBLFL": "",
    "VISITNUM": 9,
    "VISIT": "WEEK 24",
    "VISITDY": 169,
    "LBDTC": "2013-06-19",
    "LBDY": 169
  },
  {
    "STUDYID": "CDISCPILOT01",
    "DOMAIN": "LB",
    "USUBJID": "01-701-003",
    "LBSEQ": 76,
    "LBTESTCD": "BUN",
    "LBTEST": "Blood Urea Nitrogen",
    "LBCAT": "CHEMISTRY",
    "LBORRES": 20.87,
    "LBORRESU": "mg/dL",
    "LBSTRESN": 20.87,
    "LBSTRESU": "mg/dL",
    "LBSTNRLO": 8,
    "LBSTNRHI": 23,
    "LBNRIND": "NORMAL",
    "LBBLFL": "",
    "VISITNUM": 9,
    "VISIT": "WEEK 24",
    "VISITDY": 169,
    "LBDTC": "2013-06-18",
    "LBDY": 169
  },
  {
    "STUDYID": "CDISCPILOT01",
    "DOMAIN": "LB",
    "USUBJID": "01-701-003",
    "LBSEQ": 77,
    "LBTESTCD": "SODIUM",
    "LBTEST": "Sodium",
    "LBCAT": "CHEMISTRY",
    "LBORRES": 142.34,
    "LBORRESU": "mmol/L",
    "LBSTRESN": 142.34,
    "LBSTRESU": "mmol/L",
    "LBSTNRLO": 136,
    "LBSTNRHI": 145,
    "LBNRIND": "NORMAL",
    "LBBLFL": "",
    "VISITNUM": 9,
    "VISIT": "WEEK 24",
    "VISITDY": 169,
    "LBDTC": "2013-06-20",
    "LBDY": 169
  },
  {
    "STUDYID": "CDISCPILOT01",
    "DOMAIN": "LB",
    "USUBJID": "01-701-003",
    "LBSEQ": 78,
    "LBTESTCD": "POTASSIUM",
    "LBTEST": "Potassium",
    "LBCAT": "CHEMISTRY",
    "LBORRES": 4.17,
    "LBORRESU": "mmol/L",
    "LBSTRESN": 4.17,
    "LBSTRESU": "mmol/L",
    "LBSTNRLO": 3.5,
    "LBSTNRHI": 5,
    "LBNRIND": "NORMAL",
    "LBBLFL": "",
    "VISITNUM": 9,
    "VISIT": "WEEK 24",
    "VISITDY": 169,
    "LBDTC": "2013-06-18",
    "LBDY": 169
  },
  {
    "STUDYID": "CDISCPILOT01",
    "DOMAIN": "LB",
    "USUBJID": "01-701-003",
    "LBSEQ": 79,
    "LBTESTCD": "CHLORIDE",
    "LBTEST": "Chloride",
    "LBCAT": "CHEMISTRY",
    "LBORRES": 103.34,
    "LBORRESU": "mmol/L",
    "LBSTRESN": 103.34,
    "LBSTRESU": "mmol/L",
    "LBSTNRLO": 98,
    "LBSTNRHI": 106,
    "LBNRIND": "NORMAL",
    "LBBLFL": "",
    "VISITNUM": 9,
    "VISIT": "WEEK 24",
    "VISITDY": 169,
    "LBDTC": "2013-06-18",
    "LBDY": 169
  },
  {
    "STUDYID": "CDISCPILOT01",
    "DOMAIN": "LB",
    "USUBJID": "01-701-003",
    "LBSEQ": 80,
    "LBTESTCD": "GLUC",
    "LBTEST": "Glucose",
    "LBCAT": "CHEMISTRY",
    "LBORRES": 106.25,
    "LBORRESU": "mg/dL",
    "LBSTRESN": 106.25,
    "LBSTRESU": "mg/dL",
    "LBSTNRLO": 70,
    "LBSTNRHI": 110,
    "LBNRIND": "NORMAL",
    "LBBLFL": "",
    "VISITNUM": 9,
    "VISIT": "WEEK 24",
    "VISITDY": 169,
    "LBDTC": "2013-06-19",
    "LBDY": 169
  },
  {
    "STUDYID": "CDISCPILOT01",
    "DOMAIN": "LB",
    "USUBJID": "01-701-004",
    "LBSEQ": 1,
    "LBTESTCD": "HGB",
    "LBTEST": "Hemoglobin",
    "LBCAT": "HEMATOLOGY",
    "LBORRES": 13.64,
    "LBORRESU": "g/dL",
    "LBSTRESN": 13.64,
    "LBSTRESU": "g/dL",
    "LBSTNRLO": 12,
    "LBSTNRHI": 15.5,
    "LBNRIND": "NORMAL",
    "LBBLFL": "Y",
    "VISITNUM": 1,
    "VISIT": "SCREENING",
    "VISITDY": -7,
    "LBDTC": "2013-08-16",
    "LBDY": -7
  },
  {
    "STUDYID": "CDISCPILOT01",
    "DOMAIN": "LB",
    "USUBJID": "01-701-004",
    "LBSEQ": 2,
    "LBTESTCD": "WBC",
    "LBTEST": "White Blood Cells",
    "LBCAT": "HEMATOLOGY",
    "LBORRES": 4.73,
    "LBORRESU": "10^9/L",
    "LBSTRESN": 4.73,
    "LBSTRESU": "10^9/L",
    "LBSTNRLO": 4,
    "LBSTNRHI": 11,
    "LBNRIND": "NORMAL",
    "LBBLFL": "Y",
    "VISITNUM": 1,
    "VISIT": "SCREENING",
    "VISITDY": -7,
    "LBDTC": "2013-08-17",
    "LBDY": -7
  },
  {
    "STUDYID": "CDISCPILOT01",
    "DOMAIN": "LB",
    "USUBJID": "01-701-004",
    "LBSEQ": 3,
    "LBTESTCD": "RBC",
    "LBTEST": "Red Blood Cells",
    "LBCAT": "HEMATOLOGY",
    "LBORRES": 4.23,
    "LBORRESU": "10^12/L",
    "LBSTRESN": 4.23,
    "LBSTRESU": "10^12/L",
    "LBSTNRLO": 4,
    "LBSTNRHI": 5,
    "LBNRIND": "NORMAL",
    "LBBLFL": "Y",
    "VISITNUM": 1,
    "VISIT": "SCREENING",
    "VISITDY": -7,
    "LBDTC": "2013-08-17",
    "LBDY": -7
  },
  {
    "STUDYID": "CDISCPILOT01",
    "DOMAIN": "LB",
    "USUBJID": "01-701-004",
    "LBSEQ": 4,
    "LBTESTCD": "PLT",
    "LBTEST": "Platelets",
    "LBCAT": "HEMATOLOGY",
    "LBORRES": 196.58,
    "LBORRESU": "10^9/L",
    "LBSTRESN": 196.58,
    "LBSTRESU": "10^9/L",
    "LBSTNRLO": 150,
    "LBSTNRHI": 400,
    "LBNRIND": "NORMAL",
    "LBBLFL": "Y",
    "VISITNUM": 1,
    "VISIT": "SCREENING",
    "VISITDY": -7,
    "LBDTC": "2013-08-18",
    "LBDY": -7
  },
  {
    "STUDYID": "CDISCPILOT01",
    "DOMAIN": "LB",
    "USUBJID": "01-701-004",
    "LBSEQ": 5,
    "LBTESTCD": "HCT",
    "LBTEST": "Hematocrit",
    "LBCAT": "HEMATOLOGY",
    "LBORRES": 37.26,
    "LBORRESU": "%",
    "LBSTRESN": 37.26,
    "LBSTRESU": "%",
    "LBSTNRLO": 36,
    "LBSTNRHI": 44,
    "LBNRIND": "NORMAL",
    "LBBLFL": "Y",
    "VISITNUM": 1,
    "VISIT": "SCREENING",
    "VISITDY": -7,
    "LBDTC": "2013-08-17",
    "LBDY": -7
  },
  {
    "STUDYID": "CDISCPILOT01",
    "DOMAIN": "LB",
    "USUBJID": "01-701-004",
    "LBSEQ": 6,
    "LBTESTCD": "ALT",
    "LBTEST": "Alanine Aminotransferase",
    "LBCAT": "CHEMISTRY",
    "LBORRES": 17.99,
    "LBORRESU": "U/L",
    "LBSTRESN": 17.99,
    "LBSTRESU": "U/L",
    "LBSTNRLO": 7,
    "LBSTNRHI": 56,
    "LBNRIND": "NORMAL",
    "LBBLFL": "Y",
    "VISITNUM": 1,
    "VISIT": "SCREENING",
    "VISITDY": -7,
    "LBDTC": "2013-08-18",
    "LBDY": -7
  },
  {
    "STUDYID": "CDISCPILOT01",
    "DOMAIN": "LB",
    "USUBJID": "01-701-004",
    "LBSEQ": 7,
    "LBTESTCD": "AST",
    "LBTEST": "Aspartate Aminotransferase",
    "LBCAT": "CHEMISTRY",
    "LBORRES": 5.93,
    "LBORRESU": "U/L",
    "LBSTRESN": 5.93,
    "LBSTRESU": "U/L",
    "LBSTNRLO": 10,
    "LBSTNRHI": 40,
    "LBNRIND": "LOW",
    "LBBLFL": "Y",
    "VISITNUM": 1,
    "VISIT": "SCREENING",
    "VISITDY": -7,
    "LBDTC": "2013-08-17",
    "LBDY": -7
  },
  {
    "STUDYID": "CDISCPILOT01",
    "DOMAIN": "LB",
    "USUBJID": "01-701-004",
    "LBSEQ": 8,
    "LBTESTCD": "ALP",
    "LBTEST": "Alkaline Phosphatase",
    "LBCAT": "CHEMISTRY",
    "LBORRES": 76.75,
    "LBORRESU": "U/L",
    "LBSTRESN": 76.75,
    "LBSTRESU": "U/L",
    "LBSTNRLO": 44,
    "LBSTNRHI": 147,
    "LBNRIND": "NORMAL",
    "LBBLFL": "Y",
    "VISITNUM": 1,
    "VISIT": "SCREENING",
    "VISITDY": -7,
    "LBDTC": "2013-08-17",
    "LBDY": -7
  },
  {
    "STUDYID": "CDISCPILOT01",
    "DOMAIN": "LB",
    "USUBJID": "01-701-004",
    "LBSEQ": 9,
    "LBTESTCD": "BILI",
    "LBTEST": "Bilirubin",
    "LBCAT": "CHEMISTRY",
    "LBORRES": 0.41,
    "LBORRESU": "mg/dL",
    "LBSTRESN": 0.41,
    "LBSTRESU": "mg/dL",
    "LBSTNRLO": 0.1,
    "LBSTNRHI": 1.2,
    "LBNRIND": "NORMAL",
    "LBBLFL": "Y",
    "VISITNUM": 1,
    "VISIT": "SCREENING",
    "VISITDY": -7,
    "LBDTC": "2013-08-16",
    "LBDY": -7
  },
  {
    "STUDYID": "CDISCPILOT01",
    "DOMAIN": "LB",
    "USUBJID": "01-701-004",
    "LBSEQ": 10,
    "LBTESTCD": "ALB",
    "LBTEST": "Albumin",
    "LBCAT": "CHEMISTRY",
    "LBORRES": 3.73,
    "LBORRESU": "g/dL",
    "LBSTRESN": 3.73,
    "LBSTRESU": "g/dL",
    "LBSTNRLO": 3.5,
    "LBSTNRHI": 5,
    "LBNRIND": "NORMAL",
    "LBBLFL": "Y",
    "VISITNUM": 1,
    "VISIT": "SCREENING",
    "VISITDY": -7,
    "LBDTC": "2013-08-17",
    "LBDY": -7
  },
  {
    "STUDYID": "CDISCPILOT01",
    "DOMAIN": "LB",
    "USUBJID": "01-701-004",
    "LBSEQ": 11,
    "LBTESTCD": "CREAT",
    "LBTEST": "Creatinine",
    "LBCAT": "CHEMISTRY",
    "LBORRES": 0.88,
    "LBORRESU": "mg/dL",
    "LBSTRESN": 0.88,
    "LBSTRESU": "mg/dL",
    "LBSTNRLO": 0.7,
    "LBSTNRHI": 1.3,
    "LBNRIND": "NORMAL",
    "LBBLFL": "Y",
    "VISITNUM": 1,
    "VISIT": "SCREENING",
    "VISITDY": -7,
    "LBDTC": "2013-08-16",
    "LBDY": -7
  },
  {
    "STUDYID": "CDISCPILOT01",
    "DOMAIN": "LB",
    "USUBJID": "01-701-004",
    "LBSEQ": 12,
    "LBTESTCD": "BUN",
    "LBTEST": "Blood Urea Nitrogen",
    "LBCAT": "CHEMISTRY",
    "LBORRES": 28.23,
    "LBORRESU": "mg/dL",
    "LBSTRESN": 28.23,
    "LBSTRESU": "mg/dL",
    "LBSTNRLO": 8,
    "LBSTNRHI": 23,
    "LBNRIND": "HIGH",
    "LBBLFL": "Y",
    "VISITNUM": 1,
    "VISIT": "SCREENING",
    "VISITDY": -7,
    "LBDTC": "2013-08-18",
    "LBDY": -7
  },
  {
    "STUDYID": "CDISCPILOT01",
    "DOMAIN": "LB",
    "USUBJID": "01-701-004",
    "LBSEQ": 13,
    "LBTESTCD": "SODIUM",
    "LBTEST": "Sodium",
    "LBCAT": "CHEMISTRY",
    "LBORRES": 143.93,
    "LBORRESU": "mmol/L",
    "LBSTRESN": 143.93,
    "LBSTRESU": "mmol/L",
    "LBSTNRLO": 136,
    "LBSTNRHI": 145,
    "LBNRIND": "NORMAL",
    "LBBLFL": "Y",
    "VISITNUM": 1,
    "VISIT": "SCREENING",
    "VISITDY": -7,
    "LBDTC": "2013-08-17",
    "LBDY": -7
  },
  {
    "STUDYID": "CDISCPILOT01",
    "DOMAIN": "LB",
    "USUBJID": "01-701-004",
    "LBSEQ": 14,
    "LBTESTCD": "POTASSIUM",
    "LBTEST": "Potassium",
    "LBCAT": "CHEMISTRY",
    "LBORRES": 4.21,
    "LBORRESU": "mmol/L",
    "LBSTRESN": 4.21,
    "LBSTRESU": "mmol/L",
    "LBSTNRLO": 3.5,
    "LBSTNRHI": 5,
    "LBNRIND": "NORMAL",
    "LBBLFL": "Y",
    "VISITNUM": 1,
    "VISIT": "SCREENING",
    "VISITDY": -7,
    "LBDTC": "2013-08-18",
    "LBDY": -7
  },
  {
    "STUDYID": "CDISCPILOT01",
    "DOMAIN": "LB",
    "USUBJID": "01-701-004",
    "LBSEQ": 15,
    "LBTESTCD": "CHLORIDE",
    "LBTEST": "Chloride",
    "LBCAT": "CHEMISTRY",
    "LBORRES": 104.95,
    "LBORRESU": "mmol/L",
    "LBSTRESN": 104.95,
    "LBSTRESU": "mmol/L",
    "LBSTNRLO": 98,
    "LBSTNRHI": 106,
    "LBNRIND": "NORMAL",
    "LBBLFL": "Y",
    "VISITNUM": 1,
    "VISIT": "SCREENING",
    "VISITDY": -7,
    "LBDTC": "2013-08-18",
    "LBDY": -7
  },
  {
    "STUDYID": "CDISCPILOT01",
    "DOMAIN": "LB",
    "USUBJID": "01-701-004",
    "LBSEQ": 16,
    "LBTESTCD": "GLUC",
    "LBTEST": "Glucose",
    "LBCAT": "CHEMISTRY",
    "LBORRES": 113.5,
    "LBORRESU": "mg/dL",
    "LBSTRESN": 113.5,
    "LBSTRESU": "mg/dL",
    "LBSTNRLO": 70,
    "LBSTNRHI": 110,
    "LBNRIND": "HIGH",
    "LBBLFL": "Y",
    "VISITNUM": 1,
    "VISIT": "SCREENING",
    "VISITDY": -7,
    "LBDTC": "2013-08-18",
    "LBDY": -7
  },
  {
    "STUDYID": "CDISCPILOT01",
    "DOMAIN": "LB",
    "USUBJID": "01-701-004",
    "LBSEQ": 17,
    "LBTESTCD": "HGB",
    "LBTEST": "Hemoglobin",
    "LBCAT": "HEMATOLOGY",
    "LBORRES": 13.74,
    "LBORRESU": "g/dL",
    "LBSTRESN": 13.74,
    "LBSTRESU": "g/dL",
    "LBSTNRLO": 12,
    "LBSTNRHI": 15.5,
    "LBNRIND": "NORMAL",
    "LBBLFL": "",
    "VISITNUM": 2,
    "VISIT": "BASELINE",
    "VISITDY": 1,
    "LBDTC": "2013-08-26",
    "LBDY": 1
  },
  {
    "STUDYID": "CDISCPILOT01",
    "DOMAIN": "LB",
    "USUBJID": "01-701-004",
    "LBSEQ": 18,
    "LBTESTCD": "WBC",
    "LBTEST": "White Blood Cells",
    "LBCAT": "HEMATOLOGY",
    "LBORRES": 4.89,
    "LBORRESU": "10^9/L",
    "LBSTRESN": 4.89,
    "LBSTRESU": "10^9/L",
    "LBSTNRLO": 4,
    "LBSTNRHI": 11,
    "LBNRIND": "NORMAL",
    "LBBLFL": "",
    "VISITNUM": 2,
    "VISIT": "BASELINE",
    "VISITDY": 1,
    "LBDTC": "2013-08-26",
    "LBDY": 1
  },
  {
    "STUDYID": "CDISCPILOT01",
    "DOMAIN": "LB",
    "USUBJID": "01-701-004",
    "LBSEQ": 19,
    "LBTESTCD": "RBC",
    "LBTEST": "Red Blood Cells",
    "LBCAT": "HEMATOLOGY",
    "LBORRES": 4.16,
    "LBORRESU": "10^12/L",
    "LBSTRESN": 4.16,
    "LBSTRESU": "10^12/L",
    "LBSTNRLO": 4,
    "LBSTNRHI": 5,
    "LBNRIND": "NORMAL",
    "LBBLFL": "",
    "VISITNUM": 2,
    "VISIT": "BASELINE",
    "VISITDY": 1,
    "LBDTC": "2013-08-25",
    "LBDY": 1
  },
  {
    "STUDYID": "CDISCPILOT01",
    "DOMAIN": "LB",
    "USUBJID": "01-701-004",
    "LBSEQ": 20,
    "LBTESTCD": "PLT",
    "LBTEST": "Platelets",
    "LBCAT": "HEMATOLOGY",
    "LBORRES": 197.35,
    "LBORRESU": "10^9/L",
    "LBSTRESN": 197.35,
    "LBSTRESU": "10^9/L",
    "LBSTNRLO": 150,
    "LBSTNRHI": 400,
    "LBNRIND": "NORMAL",
    "LBBLFL": "",
    "VISITNUM": 2,
    "VISIT": "BASELINE",
    "VISITDY": 1,
    "LBDTC": "2013-08-25",
    "LBDY": 1
  },
  {
    "STUDYID": "CDISCPILOT01",
    "DOMAIN": "LB",
    "USUBJID": "01-701-004",
    "LBSEQ": 21,
    "LBTESTCD": "HCT",
    "LBTEST": "Hematocrit",
    "LBCAT": "HEMATOLOGY",
    "LBORRES": 37.8,
    "LBORRESU": "%",
    "LBSTRESN": 37.8,
    "LBSTRESU": "%",
    "LBSTNRLO": 36,
    "LBSTNRHI": 44,
    "LBNRIND": "NORMAL",
    "LBBLFL": "",
    "VISITNUM": 2,
    "VISIT": "BASELINE",
    "VISITDY": 1,
    "LBDTC": "2013-08-24",
    "LBDY": 1
  },
  {
    "STUDYID": "CDISCPILOT01",
    "DOMAIN": "LB",
    "USUBJID": "01-701-004",
    "LBSEQ": 22,
    "LBTESTCD": "ALT",
    "LBTEST": "Alanine Aminotransferase",
    "LBCAT": "CHEMISTRY",
    "LBORRES": 19.88,
    "LBORRESU": "U/L",
    "LBSTRESN": 19.88,
    "LBSTRESU": "U/L",
    "LBSTNRLO": 7,
    "LBSTNRHI": 56,
    "LBNRIND": "NORMAL",
    "LBBLFL": "",
    "VISITNUM": 2,
    "VISIT": "BASELINE",
    "VISITDY": 1,
    "LBDTC": "2013-08-24",
    "LBDY": 1
  },
  {
    "STUDYID": "CDISCPILOT01",
    "DOMAIN": "LB",
    "USUBJID": "01-701-004",
    "LBSEQ": 23,
    "LBTESTCD": "AST",
    "LBTEST": "Aspartate Aminotransferase",
    "LBCAT": "CHEMISTRY",
    "LBORRES": 6,
    "LBORRESU": "U/L",
    "LBSTRESN": 6,
    "LBSTRESU": "U/L",
    "LBSTNRLO": 10,
    "LBSTNRHI": 40,
    "LBNRIND": "LOW",
    "LBBLFL": "",
    "VISITNUM": 2,
    "VISIT": "BASELINE",
    "VISITDY": 1,
    "LBDTC": "2013-08-24",
    "LBDY": 1
  },
  {
    "STUDYID": "CDISCPILOT01",
    "DOMAIN": "LB",
    "USUBJID": "01-701-004",
    "LBSEQ": 24,
    "LBTESTCD": "ALP",
    "LBTEST": "Alkaline Phosphatase",
    "LBCAT": "CHEMISTRY",
    "LBORRES": 79.49,
    "LBORRESU": "U/L",
    "LBSTRESN": 79.49,
    "LBSTRESU": "U/L",
    "LBSTNRLO": 44,
    "LBSTNRHI": 147,
    "LBNRIND": "NORMAL",
    "LBBLFL": "",
    "VISITNUM": 2,
    "VISIT": "BASELINE",
    "VISITDY": 1,
    "LBDTC": "2013-08-24",
    "LBDY": 1
  },
  {
    "STUDYID": "CDISCPILOT01",
    "DOMAIN": "LB",
    "USUBJID": "01-701-004",
    "LBSEQ": 25,
    "LBTESTCD": "BILI",
    "LBTEST": "Bilirubin",
    "LBCAT": "CHEMISTRY",
    "LBORRES": 0.42,
    "LBORRESU": "mg/dL",
    "LBSTRESN": 0.42,
    "LBSTRESU": "mg/dL",
    "LBSTNRLO": 0.1,
    "LBSTNRHI": 1.2,
    "LBNRIND": "NORMAL",
    "LBBLFL": "",
    "VISITNUM": 2,
    "VISIT": "BASELINE",
    "VISITDY": 1,
    "LBDTC": "2013-08-25",
    "LBDY": 1
  },
  {
    "STUDYID": "CDISCPILOT01",
    "DOMAIN": "LB",
    "USUBJID": "01-701-004",
    "LBSEQ": 26,
    "LBTESTCD": "ALB",
    "LBTEST": "Albumin",
    "LBCAT": "CHEMISTRY",
    "LBORRES": 3.74,
    "LBORRESU": "g/dL",
    "LBSTRESN": 3.74,
    "LBSTRESU": "g/dL",
    "LBSTNRLO": 3.5,
    "LBSTNRHI": 5,
    "LBNRIND": "NORMAL",
    "LBBLFL": "",
    "VISITNUM": 2,
    "VISIT": "BASELINE",
    "VISITDY": 1,
    "LBDTC": "2013-08-24",
    "LBDY": 1
  },
  {
    "STUDYID": "CDISCPILOT01",
    "DOMAIN": "LB",
    "USUBJID": "01-701-004",
    "LBSEQ": 27,
    "LBTESTCD": "CREAT",
    "LBTEST": "Creatinine",
    "LBCAT": "CHEMISTRY",
    "LBORRES": 0.86,
    "LBORRESU": "mg/dL",
    "LBSTRESN": 0.86,
    "LBSTRESU": "mg/dL",
    "LBSTNRLO": 0.7,
    "LBSTNRHI": 1.3,
    "LBNRIND": "NORMAL",
    "LBBLFL": "",
    "VISITNUM": 2,
    "VISIT": "BASELINE",
    "VISITDY": 1,
    "LBDTC": "2013-08-26",
    "LBDY": 1
  },
  {
    "STUDYID": "CDISCPILOT01",
    "DOMAIN": "LB",
    "USUBJID": "01-701-004",
    "LBSEQ": 28,
    "LBTESTCD": "BUN",
    "LBTEST": "Blood Urea Nitrogen",
    "LBCAT": "CHEMISTRY",
    "LBORRES": 29.23,
    "LBORRESU": "mg/dL",
    "LBSTRESN": 29.23,
    "LBSTRESU": "mg/dL",
    "LBSTNRLO": 8,
    "LBSTNRHI": 23,
    "LBNRIND": "HIGH",
    "LBBLFL": "",
    "VISITNUM": 2,
    "VISIT": "BASELINE",
    "VISITDY": 1,
    "LBDTC": "2013-08-24",
    "LBDY": 1
  },
  {
    "STUDYID": "CDISCPILOT01",
    "DOMAIN": "LB",
    "USUBJID": "01-701-004",
    "LBSEQ": 29,
    "LBTESTCD": "SODIUM",
    "LBTEST": "Sodium",
    "LBCAT": "CHEMISTRY",
    "LBORRES": 143.87,
    "LBORRESU": "mmol/L",
    "LBSTRESN": 143.87,
    "LBSTRESU": "mmol/L",
    "LBSTNRLO": 136,
    "LBSTNRHI": 145,
    "LBNRIND": "NORMAL",
    "LBBLFL": "",
    "VISITNUM": 2,
    "VISIT": "BASELINE",
    "VISITDY": 1,
    "LBDTC": "2013-08-26",
    "LBDY": 1
  },
  {
    "STUDYID": "CDISCPILOT01",
    "DOMAIN": "LB",
    "USUBJID": "01-701-004",
    "LBSEQ": 30,
    "LBTESTCD": "POTASSIUM",
    "LBTEST": "Potassium",
    "LBCAT": "CHEMISTRY",
    "LBORRES": 4.23,
    "LBORRESU": "mmol/L",
    "LBSTRESN": 4.23,
    "LBSTRESU": "mmol/L",
    "LBSTNRLO": 3.5,
    "LBSTNRHI": 5,
    "LBNRIND": "NORMAL",
    "LBBLFL": "",
    "VISITNUM": 2,
    "VISIT": "BASELINE",
    "VISITDY": 1,
    "LBDTC": "2013-08-25",
    "LBDY": 1
  },
  {
    "STUDYID": "CDISCPILOT01",
    "DOMAIN": "LB",
    "USUBJID": "01-701-004",
    "LBSEQ": 31,
    "LBTESTCD": "CHLORIDE",
    "LBTEST": "Chloride",
    "LBCAT": "CHEMISTRY",
    "LBORRES": 105.06,
    "LBORRESU": "mmol/L",
    "LBSTRESN": 105.06,
    "LBSTRESU": "mmol/L",
    "LBSTNRLO": 98,
    "LBSTNRHI": 106,
    "LBNRIND": "NORMAL",
    "LBBLFL": "",
    "VISITNUM": 2,
    "VISIT": "BASELINE",
    "VISITDY": 1,
    "LBDTC": "2013-08-25",
    "LBDY": 1
  },
  {
    "STUDYID": "CDISCPILOT01",
    "DOMAIN": "LB",
    "USUBJID": "01-701-004",
    "LBSEQ": 32,
    "LBTESTCD": "GLUC",
    "LBTEST": "Glucose",
    "LBCAT": "CHEMISTRY",
    "LBORRES": 111.26,
    "LBORRESU": "mg/dL",
    "LBSTRESN": 111.26,
    "LBSTRESU": "mg/dL",
    "LBSTNRLO": 70,
    "LBSTNRHI": 110,
    "LBNRIND": "HIGH",
    "LBBLFL": "",
    "VISITNUM": 2,
    "VISIT": "BASELINE",
    "VISITDY": 1,
    "LBDTC": "2013-08-26",
    "LBDY": 1
  },
  {
    "STUDYID": "CDISCPILOT01",
    "DOMAIN": "LB",
    "USUBJID": "01-701-004",
    "LBSEQ": 33,
    "LBTESTCD": "HGB",
    "LBTEST": "Hemoglobin",
    "LBCAT": "HEMATOLOGY",
    "LBORRES": 13.42,
    "LBORRESU": "g/dL",
    "LBSTRESN": 13.42,
    "LBSTRESU": "g/dL",
    "LBSTNRLO": 12,
    "LBSTNRHI": 15.5,
    "LBNRIND": "NORMAL",
    "LBBLFL": "",
    "VISITNUM": 5,
    "VISIT": "WEEK 8",
    "VISITDY": 57,
    "LBDTC": "2013-10-19",
    "LBDY": 57
  },
  {
    "STUDYID": "CDISCPILOT01",
    "DOMAIN": "LB",
    "USUBJID": "01-701-004",
    "LBSEQ": 34,
    "LBTESTCD": "WBC",
    "LBTEST": "White Blood Cells",
    "LBCAT": "HEMATOLOGY",
    "LBORRES": 4.94,
    "LBORRESU": "10^9/L",
    "LBSTRESN": 4.94,
    "LBSTRESU": "10^9/L",
    "LBSTNRLO": 4,
    "LBSTNRHI": 11,
    "LBNRIND": "NORMAL",
    "LBBLFL": "",
    "VISITNUM": 5,
    "VISIT": "WEEK 8",
    "VISITDY": 57,
    "LBDTC": "2013-10-20",
    "LBDY": 57
  },
  {
    "STUDYID": "CDISCPILOT01",
    "DOMAIN": "LB",
    "USUBJID": "01-701-004",
    "LBSEQ": 35,
    "LBTESTCD": "RBC",
    "LBTEST": "Red Blood Cells",
    "LBCAT": "HEMATOLOGY",
    "LBORRES": 4.17,
    "LBORRESU": "10^12/L",
    "LBSTRESN": 4.17,
    "LBSTRESU": "10^12/L",
    "LBSTNRLO": 4,
    "LBSTNRHI": 5,
    "LBNRIND": "NORMAL",
    "LBBLFL": "",
    "VISITNUM": 5,
    "VISIT": "WEEK 8",
    "VISITDY": 57,
    "LBDTC": "2013-10-20",
    "LBDY": 57
  },
  {
    "STUDYID": "CDISCPILOT01",
    "DOMAIN": "LB",
    "USUBJID": "01-701-004",
    "LBSEQ": 36,
    "LBTESTCD": "PLT",
    "LBTEST": "Platelets",
    "LBCAT": "HEMATOLOGY",
    "LBORRES": 201.39,
    "LBORRESU": "10^9/L",
    "LBSTRESN": 201.39,
    "LBSTRESU": "10^9/L",
    "LBSTNRLO": 150,
    "LBSTNRHI": 400,
    "LBNRIND": "NORMAL",
    "LBBLFL": "",
    "VISITNUM": 5,
    "VISIT": "WEEK 8",
    "VISITDY": 57,
    "LBDTC": "2013-10-19",
    "LBDY": 57
  },
  {
    "STUDYID": "CDISCPILOT01",
    "DOMAIN": "LB",
    "USUBJID": "01-701-004",
    "LBSEQ": 37,
    "LBTESTCD": "HCT",
    "LBTEST": "Hematocrit",
    "LBCAT": "HEMATOLOGY",
    "LBORRES": 37.35,
    "LBORRESU": "%",
    "LBSTRESN": 37.35,
    "LBSTRESU": "%",
    "LBSTNRLO": 36,
    "LBSTNRHI": 44,
    "LBNRIND": "NORMAL",
    "LBBLFL": "",
    "VISITNUM": 5,
    "VISIT": "WEEK 8",
    "VISITDY": 57,
    "LBDTC": "2013-10-20",
    "LBDY": 57
  },
  {
    "STUDYID": "CDISCPILOT01",
    "DOMAIN": "LB",
    "USUBJID": "01-701-004",
    "LBSEQ": 38,
    "LBTESTCD": "ALT",
    "LBTEST": "Alanine Aminotransferase",
    "LBCAT": "CHEMISTRY",
    "LBORRES": 15.58,
    "LBORRESU": "U/L",
    "LBSTRESN": 15.58,
    "LBSTRESU": "U/L",
    "LBSTNRLO": 7,
    "LBSTNRHI": 56,
    "LBNRIND": "NORMAL",
    "LBBLFL": "",
    "VISITNUM": 5,
    "VISIT": "WEEK 8",
    "VISITDY": 57,
    "LBDTC": "2013-10-19",
    "LBDY": 57
  },
  {
    "STUDYID": "CDISCPILOT01",
    "DOMAIN": "LB",
    "USUBJID": "01-701-004",
    "LBSEQ": 39,
    "LBTESTCD": "AST",
    "LBTEST": "Aspartate Aminotransferase",
    "LBCAT": "CHEMISTRY",
    "LBORRES": 2.75,
    "LBORRESU": "U/L",
    "LBSTRESN": 2.75,
    "LBSTRESU": "U/L",
    "LBSTNRLO": 10,
    "LBSTNRHI": 40,
    "LBNRIND": "LOW",
    "LBBLFL": "",
    "VISITNUM": 5,
    "VISIT": "WEEK 8",
    "VISITDY": 57,
    "LBDTC": "2013-10-20",
    "LBDY": 57
  },
  {
    "STUDYID": "CDISCPILOT01",
    "DOMAIN": "LB",
    "USUBJID": "01-701-004",
    "LBSEQ": 40,
    "LBTESTCD": "ALP",
    "LBTEST": "Alkaline Phosphatase",
    "LBCAT": "CHEMISTRY",
    "LBORRES": 73.96,
    "LBORRESU": "U/L",
    "LBSTRESN": 73.96,
    "LBSTRESU": "U/L",
    "LBSTNRLO": 44,
    "LBSTNRHI": 147,
    "LBNRIND": "NORMAL",
    "LBBLFL": "",
    "VISITNUM": 5,
    "VISIT": "WEEK 8",
    "VISITDY": 57,
    "LBDTC": "2013-10-19",
    "LBDY": 57
  },
  {
    "STUDYID": "CDISCPILOT01",
    "DOMAIN": "LB",
    "USUBJID": "01-701-004",
    "LBSEQ": 41,
    "LBTESTCD": "BILI",
    "LBTEST": "Bilirubin",
    "LBCAT": "CHEMISTRY",
    "LBORRES": 0.44,
    "LBORRESU": "mg/dL",
    "LBSTRESN": 0.44,
    "LBSTRESU": "mg/dL",
    "LBSTNRLO": 0.1,
    "LBSTNRHI": 1.2,
    "LBNRIND": "NORMAL",
    "LBBLFL": "",
    "VISITNUM": 5,
    "VISIT": "WEEK 8",
    "VISITDY": 57,
    "LBDTC": "2013-10-20",
    "LBDY": 57
  },
  {
    "STUDYID": "CDISCPILOT01",
    "DOMAIN": "LB",
    "USUBJID": "01-701-004",
    "LBSEQ": 42,
    "LBTESTCD": "ALB",
    "LBTEST": "Albumin",
    "LBCAT": "CHEMISTRY",
    "LBORRES": 3.75,
    "LBORRESU": "g/dL",
    "LBSTRESN": 3.75,
    "LBSTRESU": "g/dL",
    "LBSTNRLO": 3.5,
    "LBSTNRHI": 5,
    "LBNRIND": "NORMAL",
    "LBBLFL": "",
    "VISITNUM": 5,
    "VISIT": "WEEK 8",
    "VISITDY": 57,
    "LBDTC": "2013-10-21",
    "LBDY": 57
  },
  {
    "STUDYID": "CDISCPILOT01",
    "DOMAIN": "LB",
    "USUBJID": "01-701-004",
    "LBSEQ": 43,
    "LBTESTCD": "CREAT",
    "LBTEST": "Creatinine",
    "LBCAT": "CHEMISTRY",
    "LBORRES": 0.87,
    "LBORRESU": "mg/dL",
    "LBSTRESN": 0.87,
    "LBSTRESU": "mg/dL",
    "LBSTNRLO": 0.7,
    "LBSTNRHI": 1.3,
    "LBNRIND": "NORMAL",
    "LBBLFL": "",
    "VISITNUM": 5,
    "VISIT": "WEEK 8",
    "VISITDY": 57,
    "LBDTC": "2013-10-19",
    "LBDY": 57
  },
  {
    "STUDYID": "CDISCPILOT01",
    "DOMAIN": "LB",
    "USUBJID": "01-701-004",
    "LBSEQ": 44,
    "LBTESTCD": "BUN",
    "LBTEST": "Blood Urea Nitrogen",
    "LBCAT": "CHEMISTRY",
    "LBORRES": 28.15,
    "LBORRESU": "mg/dL",
    "LBSTRESN": 28.15,
    "LBSTRESU": "mg/dL",
    "LBSTNRLO": 8,
    "LBSTNRHI": 23,
    "LBNRIND": "HIGH",
    "LBBLFL": "",
    "VISITNUM": 5,
    "VISIT": "WEEK 8",
    "VISITDY": 57,
    "LBDTC": "2013-10-19",
    "LBDY": 57
  },
  {
    "STUDYID": "CDISCPILOT01",
    "DOMAIN": "LB",
    "USUBJID": "01-701-004",
    "LBSEQ": 45,
    "LBTESTCD": "SODIUM",
    "LBTEST": "Sodium",
    "LBCAT": "CHEMISTRY",
    "LBORRES": 144.08,
    "LBORRESU": "mmol/L",
    "LBSTRESN": 144.08,
    "LBSTRESU": "mmol/L",
    "LBSTNRLO": 136,
    "LBSTNRHI": 145,
    "LBNRIND": "NORMAL",
    "LBBLFL": "",
    "VISITNUM": 5,
    "VISIT": "WEEK 8",
    "VISITDY": 57,
    "LBDTC": "2013-10-21",
    "LBDY": 57
  },
  {
    "STUDYID": "CDISCPILOT01",
    "DOMAIN": "LB",
    "USUBJID": "01-701-004",
    "LBSEQ": 46,
    "LBTESTCD": "POTASSIUM",
    "LBTEST": "Potassium",
    "LBCAT": "CHEMISTRY",
    "LBORRES": 4.13,
    "LBORRESU": "mmol/L",
    "LBSTRESN": 4.13,
    "LBSTRESU": "mmol/L",
    "LBSTNRLO": 3.5,
    "LBSTNRHI": 5,
    "LBNRIND": "NORMAL",
    "LBBLFL": "",
    "VISITNUM": 5,
    "VISIT": "WEEK 8",
    "VISITDY": 57,
    "LBDTC": "2013-10-19",
    "LBDY": 57
  },
  {
    "STUDYID": "CDISCPILOT01",
    "DOMAIN": "LB",
    "USUBJID": "01-701-004",
    "LBSEQ": 47,
    "LBTESTCD": "CHLORIDE",
    "LBTEST": "Chloride",
    "LBCAT": "CHEMISTRY",
    "LBORRES": 104.26,
    "LBORRESU": "mmol/L",
    "LBSTRESN": 104.26,
    "LBSTRESU": "mmol/L",
    "LBSTNRLO": 98,
    "LBSTNRHI": 106,
    "LBNRIND": "NORMAL",
    "LBBLFL": "",
    "VISITNUM": 5,
    "VISIT": "WEEK 8",
    "VISITDY": 57,
    "LBDTC": "2013-10-20",
    "LBDY": 57
  },
  {
    "STUDYID": "CDISCPILOT01",
    "DOMAIN": "LB",
    "USUBJID": "01-701-004",
    "LBSEQ": 48,
    "LBTESTCD": "GLUC",
    "LBTEST": "Glucose",
    "LBCAT": "CHEMISTRY",
    "LBORRES": 115.32,
    "LBORRESU": "mg/dL",
    "LBSTRESN": 115.32,
    "LBSTRESU": "mg/dL",
    "LBSTNRLO": 70,
    "LBSTNRHI": 110,
    "LBNRIND": "HIGH",
    "LBBLFL": "",
    "VISITNUM": 5,
    "VISIT": "WEEK 8",
    "VISITDY": 57,
    "LBDTC": "2013-10-21",
    "LBDY": 57
  },
  {
    "STUDYID": "CDISCPILOT01",
    "DOMAIN": "LB",
    "USUBJID": "01-701-005",
    "LBSEQ": 1,
    "LBTESTCD": "HGB",
    "LBTEST": "Hemoglobin",
    "LBCAT": "HEMATOLOGY",
    "LBORRES": 12,
    "LBORRESU": "g/dL",
    "LBSTRESN": 12,
    "LBSTRESU": "g/dL",
    "LBSTNRLO": 12,
    "LBSTNRHI": 15.5,
    "LBNRIND": "NORMAL",
    "LBBLFL": "Y",
    "VISITNUM": 1,
    "VISIT": "SCREENING",
    "VISITDY": -7,
    "LBDTC": "2013-01-30",
    "LBDY": -7
  },
  {
    "STUDYID": "CDISCPILOT01",
    "DOMAIN": "LB",
    "USUBJID": "01-701-005",
    "LBSEQ": 2,
    "LBTESTCD": "WBC",
    "LBTEST": "White Blood Cells",
    "LBCAT": "HEMATOLOGY",
    "LBORRES": 7.53,
    "LBORRESU": "10^9/L",
    "LBSTRESN": 7.53,
    "LBSTRESU": "10^9/L",
    "LBSTNRLO": 4,
    "LBSTNRHI": 11,
    "LBNRIND": "NORMAL",
    "LBBLFL": "Y",
    "VISITNUM": 1,
    "VISIT": "SCREENING",
    "VISITDY": -7,
    "LBDTC": "2013-01-30",
    "LBDY": -7
  },
  {
    "STUDYID": "CDISCPILOT01",
    "DOMAIN": "LB",
    "USUBJID": "01-701-005",
    "LBSEQ": 3,
    "LBTESTCD": "RBC",
    "LBTEST": "Red Blood Cells",
    "LBCAT": "HEMATOLOGY",
    "LBORRES": 3.9,
    "LBORRESU": "10^12/L",
    "LBSTRESN": 3.9,
    "LBSTRESU": "10^12/L",
    "LBSTNRLO": 4,
    "LBSTNRHI": 5,
    "LBNRIND": "LOW",
    "LBBLFL": "Y",
    "VISITNUM": 1,
    "VISIT": "SCREENING",
    "VISITDY": -7,
    "LBDTC": "2013-02-01",
    "LBDY": -7
  },
  {
    "STUDYID": "CDISCPILOT01",
    "DOMAIN": "LB",
    "USUBJID": "01-701-005",
    "LBSEQ": 4,
    "LBTESTCD": "PLT",
    "LBTEST": "Platelets",
    "LBCAT": "HEMATOLOGY",
    "LBORRES": 176.41,
    "LBORRESU": "10^9/L",
    "LBSTRESN": 176.41,
    "LBSTRESU": "10^9/L",
    "LBSTNRLO": 150,
    "LBSTNRHI": 400,
    "LBNRIND": "NORMAL",
    "LBBLFL": "Y",
    "VISITNUM": 1,
    "VISIT": "SCREENING",
    "VISITDY": -7,
    "LBDTC": "2013-01-31",
    "LBDY": -7
  },
  {
    "STUDYID": "CDISCPILOT01",
    "DOMAIN": "LB",
    "USUBJID": "01-701-005",
    "LBSEQ": 5,
    "LBTESTCD": "HCT",
    "LBTEST": "Hematocrit",
    "LBCAT": "HEMATOLOGY",
    "LBORRES": 40.4,
    "LBORRESU": "%",
    "LBSTRESN": 40.4,
    "LBSTRESU": "%",
    "LBSTNRLO": 36,
    "LBSTNRHI": 44,
    "LBNRIND": "NORMAL",
    "LBBLFL": "Y",
    "VISITNUM": 1,
    "VISIT": "SCREENING",
    "VISITDY": -7,
    "LBDTC": "2013-02-01",
    "LBDY": -7
  },
  {
    "STUDYID": "CDISCPILOT01",
    "DOMAIN": "LB",
    "USUBJID": "01-701-005",
    "LBSEQ": 6,
    "LBTESTCD": "ALT",
    "LBTEST": "Alanine Aminotransferase",
    "LBCAT": "CHEMISTRY",
    "LBORRES": 27.2,
    "LBORRESU": "U/L",
    "LBSTRESN": 27.2,
    "LBSTRESU": "U/L",
    "LBSTNRLO": 7,
    "LBSTNRHI": 56,
    "LBNRIND": "NORMAL",
    "LBBLFL": "Y",
    "VISITNUM": 1,
    "VISIT": "SCREENING",
    "VISITDY": -7,
    "LBDTC": "2013-02-01",
    "LBDY": -7
  },
  {
    "STUDYID": "CDISCPILOT01",
    "DOMAIN": "LB",
    "USUBJID": "01-701-005",
    "LBSEQ": 7,
    "LBTESTCD": "AST",
    "LBTEST": "Aspartate Aminotransferase",
    "LBCAT": "CHEMISTRY",
    "LBORRES": 22.27,
    "LBORRESU": "U/L",
    "LBSTRESN": 22.27,
    "LBSTRESU": "U/L",
    "LBSTNRLO": 10,
    "LBSTNRHI": 40,
    "LBNRIND": "NORMAL",
    "LBBLFL": "Y",
    "VISITNUM": 1,
    "VISIT": "SCREENING",
    "VISITDY": -7,
    "LBDTC": "2013-01-30",
    "LBDY": -7
  },
  {
    "STUDYID": "CDISCPILOT01",
    "DOMAIN": "LB",
    "USUBJID": "01-701-005",
    "LBSEQ": 8,
    "LBTESTCD": "ALP",
    "LBTEST": "Alkaline Phosphatase",
    "LBCAT": "CHEMISTRY",
    "LBORRES": 57.88,
    "LBORRESU": "U/L",
    "LBSTRESN": 57.88,
    "LBSTRESU": "U/L",
    "LBSTNRLO": 44,
    "LBSTNRHI": 147,
    "LBNRIND": "NORMAL",
    "LBBLFL": "Y",
    "VISITNUM": 1,
    "VISIT": "SCREENING",
    "VISITDY": -7,
    "LBDTC": "2013-01-31",
    "LBDY": -7
  },
  {
    "STUDYID": "CDISCPILOT01",
    "DOMAIN": "LB",
    "USUBJID": "01-701-005",
    "LBSEQ": 9,
    "LBTESTCD": "BILI",
    "LBTEST": "Bilirubin",
    "LBCAT": "CHEMISTRY",
    "LBORRES": 0.44,
    "LBORRESU": "mg/dL",
    "LBSTRESN": 0.44,
    "LBSTRESU": "mg/dL",
    "LBSTNRLO": 0.1,
    "LBSTNRHI": 1.2,
    "LBNRIND": "NORMAL",
    "LBBLFL": "Y",
    "VISITNUM": 1,
    "VISIT": "SCREENING",
    "VISITDY": -7,
    "LBDTC": "2013-02-01",
    "LBDY": -7
  },
  {
    "STUDYID": "CDISCPILOT01",
    "DOMAIN": "LB",
    "USUBJID": "01-701-005",
    "LBSEQ": 10,
    "LBTESTCD": "ALB",
    "LBTEST": "Albumin",
    "LBCAT": "CHEMISTRY",
    "LBORRES": 3.67,
    "LBORRESU": "g/dL",
    "LBSTRESN": 3.67,
    "LBSTRESU": "g/dL",
    "LBSTNRLO": 3.5,
    "LBSTNRHI": 5,
    "LBNRIND": "NORMAL",
    "LBBLFL": "Y",
    "VISITNUM": 1,
    "VISIT": "SCREENING",
    "VISITDY": -7,
    "LBDTC": "2013-02-01",
    "LBDY": -7
  },
  {
    "STUDYID": "CDISCPILOT01",
    "DOMAIN": "LB",
    "USUBJID": "01-701-005",
    "LBSEQ": 11,
    "LBTESTCD": "CREAT",
    "LBTEST": "Creatinine",
    "LBCAT": "CHEMISTRY",
    "LBORRES": 0.84,
    "LBORRESU": "mg/dL",
    "LBSTRESN": 0.84,
    "LBSTRESU": "mg/dL",
    "LBSTNRLO": 0.7,
    "LBSTNRHI": 1.3,
    "LBNRIND": "NORMAL",
    "LBBLFL": "Y",
    "VISITNUM": 1,
    "VISIT": "SCREENING",
    "VISITDY": -7,
    "LBDTC": "2013-01-31",
    "LBDY": -7
  },
  {
    "STUDYID": "CDISCPILOT01",
    "DOMAIN": "LB",
    "USUBJID": "01-701-005",
    "LBSEQ": 12,
    "LBTESTCD": "BUN",
    "LBTEST": "Blood Urea Nitrogen",
    "LBCAT": "CHEMISTRY",
    "LBORRES": 24.49,
    "LBORRESU": "mg/dL",
    "LBSTRESN": 24.49,
    "LBSTRESU": "mg/dL",
    "LBSTNRLO": 8,
    "LBSTNRHI": 23,
    "LBNRIND": "HIGH",
    "LBBLFL": "Y",
    "VISITNUM": 1,
    "VISIT": "SCREENING",
    "VISITDY": -7,
    "LBDTC": "2013-02-01",
    "LBDY": -7
  },
  {
    "STUDYID": "CDISCPILOT01",
    "DOMAIN": "LB",
    "USUBJID": "01-701-005",
    "LBSEQ": 13,
    "LBTESTCD": "SODIUM",
    "LBTEST": "Sodium",
    "LBCAT": "CHEMISTRY",
    "LBORRES": 141.06,
    "LBORRESU": "mmol/L",
    "LBSTRESN": 141.06,
    "LBSTRESU": "mmol/L",
    "LBSTNRLO": 136,
    "LBSTNRHI": 145,
    "LBNRIND": "NORMAL",
    "LBBLFL": "Y",
    "VISITNUM": 1,
    "VISIT": "SCREENING",
    "VISITDY": -7,
    "LBDTC": "2013-02-01",
    "LBDY": -7
  },
  {
    "STUDYID": "CDISCPILOT01",
    "DOMAIN": "LB",
    "USUBJID": "01-701-005",
    "LBSEQ": 14,
    "LBTESTCD": "POTASSIUM",
    "LBTEST": "Potassium",
    "LBCAT": "CHEMISTRY",
    "LBORRES": 3.98,
    "LBORRESU": "mmol/L",
    "LBSTRESN": 3.98,
    "LBSTRESU": "mmol/L",
    "LBSTNRLO": 3.5,
    "LBSTNRHI": 5,
    "LBNRIND": "NORMAL",
    "LBBLFL": "Y",
    "VISITNUM": 1,
    "VISIT": "SCREENING",
    "VISITDY": -7,
    "LBDTC": "2013-01-31",
    "LBDY": -7
  },
  {
    "STUDYID": "CDISCPILOT01",
    "DOMAIN": "LB",
    "USUBJID": "01-701-005",
    "LBSEQ": 15,
    "LBTESTCD": "CHLORIDE",
    "LBTEST": "Chloride",
    "LBCAT": "CHEMISTRY",
    "LBORRES": 99.78,
    "LBORRESU": "mmol/L",
    "LBSTRESN": 99.78,
    "LBSTRESU": "mmol/L",
    "LBSTNRLO": 98,
    "LBSTNRHI": 106,
    "LBNRIND": "NORMAL",
    "LBBLFL": "Y",
    "VISITNUM": 1,
    "VISIT": "SCREENING",
    "VISITDY": -7,
    "LBDTC": "2013-01-30",
    "LBDY": -7
  },
  {
    "STUDYID": "CDISCPILOT01",
    "DOMAIN": "LB",
    "USUBJID": "01-701-005",
    "LBSEQ": 16,
    "LBTESTCD": "GLUC",
    "LBTEST": "Glucose",
    "LBCAT": "CHEMISTRY",
    "LBORRES": 104.63,
    "LBORRESU": "mg/dL",
    "LBSTRESN": 104.63,
    "LBSTRESU": "mg/dL",
    "LBSTNRLO": 70,
    "LBSTNRHI": 110,
    "LBNRIND": "NORMAL",
    "LBBLFL": "Y",
    "VISITNUM": 1,
    "VISIT": "SCREENING",
    "VISITDY": -7,
    "LBDTC": "2013-01-31",
    "LBDY": -7
  },
  {
    "STUDYID": "CDISCPILOT01",
    "DOMAIN": "LB",
    "USUBJID": "01-701-005",
    "LBSEQ": 17,
    "LBTESTCD": "HGB",
    "LBTEST": "Hemoglobin",
    "LBCAT": "HEMATOLOGY",
    "LBORRES": 12.05,
    "LBORRESU": "g/dL",
    "LBSTRESN": 12.05,
    "LBSTRESU": "g/dL",
    "LBSTNRLO": 12,
    "LBSTNRHI": 15.5,
    "LBNRIND": "NORMAL",
    "LBBLFL": "",
    "VISITNUM": 2,
    "VISIT": "BASELINE",
    "VISITDY": 1,
    "LBDTC": "2013-02-08",
    "LBDY": 1
  },
  {
    "STUDYID": "CDISCPILOT01",
    "DOMAIN": "LB",
    "USUBJID": "01-701-005",
    "LBSEQ": 18,
    "LBTESTCD": "WBC",
    "LBTEST": "White Blood Cells",
    "LBCAT": "HEMATOLOGY",
    "LBORRES": 7.26,
    "LBORRESU": "10^9/L",
    "LBSTRESN": 7.26,
    "LBSTRESU": "10^9/L",
    "LBSTNRLO": 4,
    "LBSTNRHI": 11,
    "LBNRIND": "NORMAL",
    "LBBLFL": "",
    "VISITNUM": 2,
    "VISIT": "BASELINE",
    "VISITDY": 1,
    "LBDTC": "2013-02-08",
    "LBDY": 1
  },
  {
    "STUDYID": "CDISCPILOT01",
    "DOMAIN": "LB",
    "USUBJID": "01-701-005",
    "LBSEQ": 19,
    "LBTESTCD": "RBC",
    "LBTEST": "Red Blood Cells",
    "LBCAT": "HEMATOLOGY",
    "LBORRES": 3.78,
    "LBORRESU": "10^12/L",
    "LBSTRESN": 3.78,
    "LBSTRESU": "10^12/L",
    "LBSTNRLO": 4,
    "LBSTNRHI": 5,
    "LBNRIND": "LOW",
    "LBBLFL": "",
    "VISITNUM": 2,
    "VISIT": "BASELINE",
    "VISITDY": 1,
    "LBDTC": "2013-02-08",
    "LBDY": 1
  },
  {
    "STUDYID": "CDISCPILOT01",
    "DOMAIN": "LB",
    "USUBJID": "01-701-005",
    "LBSEQ": 20,
    "LBTESTCD": "PLT",
    "LBTEST": "Platelets",
    "LBCAT": "HEMATOLOGY",
    "LBORRES": 181.39,
    "LBORRESU": "10^9/L",
    "LBSTRESN": 181.39,
    "LBSTRESU": "10^9/L",
    "LBSTNRLO": 150,
    "LBSTNRHI": 400,
    "LBNRIND": "NORMAL",
    "LBBLFL": "",
    "VISITNUM": 2,
    "VISIT": "BASELINE",
    "VISITDY": 1,
    "LBDTC": "2013-02-07",
    "LBDY": 1
  },
  {
    "STUDYID": "CDISCPILOT01",
    "DOMAIN": "LB",
    "USUBJID": "01-701-005",
    "LBSEQ": 21,
    "LBTESTCD": "HCT",
    "LBTEST": "Hematocrit",
    "LBCAT": "HEMATOLOGY",
    "LBORRES": 40.48,
    "LBORRESU": "%",
    "LBSTRESN": 40.48,
    "LBSTRESU": "%",
    "LBSTNRLO": 36,
    "LBSTNRHI": 44,
    "LBNRIND": "NORMAL",
    "LBBLFL": "",
    "VISITNUM": 2,
    "VISIT": "BASELINE",
    "VISITDY": 1,
    "LBDTC": "2013-02-07",
    "LBDY": 1
  },
  {
    "STUDYID": "CDISCPILOT01",
    "DOMAIN": "LB",
    "USUBJID": "01-701-005",
    "LBSEQ": 22,
    "LBTESTCD": "ALT",
    "LBTEST": "Alanine Aminotransferase",
    "LBCAT": "CHEMISTRY",
    "LBORRES": 28.95,
    "LBORRESU": "U/L",
    "LBSTRESN": 28.95,
    "LBSTRESU": "U/L",
    "LBSTNRLO": 7,
    "LBSTNRHI": 56,
    "LBNRIND": "NORMAL",
    "LBBLFL": "",
    "VISITNUM": 2,
    "VISIT": "BASELINE",
    "VISITDY": 1,
    "LBDTC": "2013-02-08",
    "LBDY": 1
  },
  {
    "STUDYID": "CDISCPILOT01",
    "DOMAIN": "LB",
    "USUBJID": "01-701-005",
    "LBSEQ": 23,
    "LBTESTCD": "AST",
    "LBTEST": "Aspartate Aminotransferase",
    "LBCAT": "CHEMISTRY",
    "LBORRES": 22.21,
    "LBORRESU": "U/L",
    "LBSTRESN": 22.21,
    "LBSTRESU": "U/L",
    "LBSTNRLO": 10,
    "LBSTNRHI": 40,
    "LBNRIND": "NORMAL",
    "LBBLFL": "",
    "VISITNUM": 2,
    "VISIT": "BASELINE",
    "VISITDY": 1,
    "LBDTC": "2013-02-07",
    "LBDY": 1
  },
  {
    "STUDYID": "CDISCPILOT01",
    "DOMAIN": "LB",
    "USUBJID": "01-701-005",
    "LBSEQ": 24,
    "LBTESTCD": "ALP",
    "LBTEST": "Alkaline Phosphatase",
    "LBCAT": "CHEMISTRY",
    "LBORRES": 54.48,
    "LBORRESU": "U/L",
    "LBSTRESN": 54.48,
    "LBSTRESU": "U/L",
    "LBSTNRLO": 44,
    "LBSTNRHI": 147,
    "LBNRIND": "NORMAL",
    "LBBLFL": "",
    "VISITNUM": 2,
    "VISIT": "BASELINE",
    "VISITDY": 1,
    "LBDTC": "2013-02-08",
    "LBDY": 1
  },
  {
    "STUDYID": "CDISCPILOT01",
    "DOMAIN": "LB",
    "USUBJID": "01-701-005",
    "LBSEQ": 25,
    "LBTESTCD": "BILI",
    "LBTEST": "Bilirubin",
    "LBCAT": "CHEMISTRY",
    "LBORRES": 0.41,
    "LBORRESU": "mg/dL",
    "LBSTRESN": 0.41,
    "LBSTRESU": "mg/dL",
    "LBSTNRLO": 0.1,
    "LBSTNRHI": 1.2,
    "LBNRIND": "NORMAL",
    "LBBLFL": "",
    "VISITNUM": 2,
    "VISIT": "BASELINE",
    "VISITDY": 1,
    "LBDTC": "2013-02-08",
    "LBDY": 1
  },
  {
    "STUDYID": "CDISCPILOT01",
    "DOMAIN": "LB",
    "USUBJID": "01-701-005",
    "LBSEQ": 26,
    "LBTESTCD": "ALB",
    "LBTEST": "Albumin",
    "LBCAT": "CHEMISTRY",
    "LBORRES": 3.75,
    "LBORRESU": "g/dL",
    "LBSTRESN": 3.75,
    "LBSTRESU": "g/dL",
    "LBSTNRLO": 3.5,
    "LBSTNRHI": 5,
    "LBNRIND": "NORMAL",
    "LBBLFL": "",
    "VISITNUM": 2,
    "VISIT": "BASELINE",
    "VISITDY": 1,
    "LBDTC": "2013-02-07",
    "LBDY": 1
  },
  {
    "STUDYID": "CDISCPILOT01",
    "DOMAIN": "LB",
    "USUBJID": "01-701-005",
    "LBSEQ": 27,
    "LBTESTCD": "CREAT",
    "LBTEST": "Creatinine",
    "LBCAT": "CHEMISTRY",
    "LBORRES": 0.87,
    "LBORRESU": "mg/dL",
    "LBSTRESN": 0.87,
    "LBSTRESU": "mg/dL",
    "LBSTNRLO": 0.7,
    "LBSTNRHI": 1.3,
    "LBNRIND": "NORMAL",
    "LBBLFL": "",
    "VISITNUM": 2,
    "VISIT": "BASELINE",
    "VISITDY": 1,
    "LBDTC": "2013-02-08",
    "LBDY": 1
  },
  {
    "STUDYID": "CDISCPILOT01",
    "DOMAIN": "LB",
    "USUBJID": "01-701-005",
    "LBSEQ": 28,
    "LBTESTCD": "BUN",
    "LBTEST": "Blood Urea Nitrogen",
    "LBCAT": "CHEMISTRY",
    "LBORRES": 23.39,
    "LBORRESU": "mg/dL",
    "LBSTRESN": 23.39,
    "LBSTRESU": "mg/dL",
    "LBSTNRLO": 8,
    "LBSTNRHI": 23,
    "LBNRIND": "HIGH",
    "LBBLFL": "",
    "VISITNUM": 2,
    "VISIT": "BASELINE",
    "VISITDY": 1,
    "LBDTC": "2013-02-07",
    "LBDY": 1
  },
  {
    "STUDYID": "CDISCPILOT01",
    "DOMAIN": "LB",
    "USUBJID": "01-701-005",
    "LBSEQ": 29,
    "LBTESTCD": "SODIUM",
    "LBTEST": "Sodium",
    "LBCAT": "CHEMISTRY",
    "LBORRES": 141.5,
    "LBORRESU": "mmol/L",
    "LBSTRESN": 141.5,
    "LBSTRESU": "mmol/L",
    "LBSTNRLO": 136,
    "LBSTNRHI": 145,
    "LBNRIND": "NORMAL",
    "LBBLFL": "",
    "VISITNUM": 2,
    "VISIT": "BASELINE",
    "VISITDY": 1,
    "LBDTC": "2013-02-09",
    "LBDY": 1
  },
  {
    "STUDYID": "CDISCPILOT01",
    "DOMAIN": "LB",
    "USUBJID": "01-701-005",
    "LBSEQ": 30,
    "LBTESTCD": "POTASSIUM",
    "LBTEST": "Potassium",
    "LBCAT": "CHEMISTRY",
    "LBORRES": 3.97,
    "LBORRESU": "mmol/L",
    "LBSTRESN": 3.97,
    "LBSTRESU": "mmol/L",
    "LBSTNRLO": 3.5,
    "LBSTNRHI": 5,
    "LBNRIND": "NORMAL",
    "LBBLFL": "",
    "VISITNUM": 2,
    "VISIT": "BASELINE",
    "VISITDY": 1,
    "LBDTC": "2013-02-09",
    "LBDY": 1
  },
  {
    "STUDYID": "CDISCPILOT01",
    "DOMAIN": "LB",
    "USUBJID": "01-701-005",
    "LBSEQ": 31,
    "LBTESTCD": "CHLORIDE",
    "LBTEST": "Chloride",
    "LBCAT": "CHEMISTRY",
    "LBORRES": 99.99,
    "LBORRESU": "mmol/L",
    "LBSTRESN": 99.99,
    "LBSTRESU": "mmol/L",
    "LBSTNRLO": 98,
    "LBSTNRHI": 106,
    "LBNRIND": "NORMAL",
    "LBBLFL": "",
    "VISITNUM": 2,
    "VISIT": "BASELINE",
    "VISITDY": 1,
    "LBDTC": "2013-02-09",
    "LBDY": 1
  },
  {
    "STUDYID": "CDISCPILOT01",
    "DOMAIN": "LB",
    "USUBJID": "01-701-005",
    "LBSEQ": 32,
    "LBTESTCD": "GLUC",
    "LBTEST": "Glucose",
    "LBCAT": "CHEMISTRY",
    "LBORRES": 104.8,
    "LBORRESU": "mg/dL",
    "LBSTRESN": 104.8,
    "LBSTRESU": "mg/dL",
    "LBSTNRLO": 70,
    "LBSTNRHI": 110,
    "LBNRIND": "NORMAL",
    "LBBLFL": "",
    "VISITNUM": 2,
    "VISIT": "BASELINE",
    "VISITDY": 1,
    "LBDTC": "2013-02-09",
    "LBDY": 1
  },
  {
    "STUDYID": "CDISCPILOT01",
    "DOMAIN": "LB",
    "USUBJID": "01-701-005",
    "LBSEQ": 33,
    "LBTESTCD": "HGB",
    "LBTEST": "Hemoglobin",
    "LBCAT": "HEMATOLOGY",
    "LBORRES": 12.1,
    "LBORRESU": "g/dL",
    "LBSTRESN": 12.1,
    "LBSTRESU": "g/dL",
    "LBSTNRLO": 12,
    "LBSTNRHI": 15.5,
    "LBNRIND": "NORMAL",
    "LBBLFL": "",
    "VISITNUM": 5,
    "VISIT": "WEEK 8",
    "VISITDY": 57,
    "LBDTC": "2013-04-04",
    "LBDY": 57
  },
  {
    "STUDYID": "CDISCPILOT01",
    "DOMAIN": "LB",
    "USUBJID": "01-701-005",
    "LBSEQ": 34,
    "LBTESTCD": "WBC",
    "LBTEST": "White Blood Cells",
    "LBCAT": "HEMATOLOGY",
    "LBORRES": 7.69,
    "LBORRESU": "10^9/L",
    "LBSTRESN": 7.69,
    "LBSTRESU": "10^9/L",
    "LBSTNRLO": 4,
    "LBSTNRHI": 11,
    "LBNRIND": "NORMAL",
    "LBBLFL": "",
    "VISITNUM": 5,
    "VISIT": "WEEK 8",
    "VISITDY": 57,
    "LBDTC": "2013-04-05",
    "LBDY": 57
  },
  {
    "STUDYID": "CDISCPILOT01",
    "DOMAIN": "LB",
    "USUBJID": "01-701-005",
    "LBSEQ": 35,
    "LBTESTCD": "RBC",
    "LBTEST": "Red Blood Cells",
    "LBCAT": "HEMATOLOGY",
    "LBORRES": 3.83,
    "LBORRESU": "10^12/L",
    "LBSTRESN": 3.83,
    "LBSTRESU": "10^12/L",
    "LBSTNRLO": 4,
    "LBSTNRHI": 5,
    "LBNRIND": "LOW",
    "LBBLFL": "",
    "VISITNUM": 5,
    "VISIT": "WEEK 8",
    "VISITDY": 57,
    "LBDTC": "2013-04-04",
    "LBDY": 57
  },
  {
    "STUDYID": "CDISCPILOT01",
    "DOMAIN": "LB",
    "USUBJID": "01-701-005",
    "LBSEQ": 36,
    "LBTESTCD": "PLT",
    "LBTEST": "Platelets",
    "LBCAT": "HEMATOLOGY",
    "LBORRES": 176.88,
    "LBORRESU": "10^9/L",
    "LBSTRESN": 176.88,
    "LBSTRESU": "10^9/L",
    "LBSTNRLO": 150,
    "LBSTNRHI": 400,
    "LBNRIND": "NORMAL",
    "LBBLFL": "",
    "VISITNUM": 5,
    "VISIT": "WEEK 8",
    "VISITDY": 57,
    "LBDTC": "2013-04-04",
    "LBDY": 57
  },
  {
    "STUDYID": "CDISCPILOT01",
    "DOMAIN": "LB",
    "USUBJID": "01-701-005",
    "LBSEQ": 37,
    "LBTESTCD": "HCT",
    "LBTEST": "Hematocrit",
    "LBCAT": "HEMATOLOGY",
    "LBORRES": 39.84,
    "LBORRESU": "%",
    "LBSTRESN": 39.84,
    "LBSTRESU": "%",
    "LBSTNRLO": 36,
    "LBSTNRHI": 44,
    "LBNRIND": "NORMAL",
    "LBBLFL": "",
    "VISITNUM": 5,
    "VISIT": "WEEK 8",
    "VISITDY": 57,
    "LBDTC": "2013-04-04",
    "LBDY": 57
  },
  {
    "STUDYID": "CDISCPILOT01",
    "DOMAIN": "LB",
    "USUBJID": "01-701-005",
    "LBSEQ": 38,
    "LBTESTCD": "ALT",
    "LBTEST": "Alanine Aminotransferase",
    "LBCAT": "CHEMISTRY",
    "LBORRES": 30.98,
    "LBORRESU": "U/L",
    "LBSTRESN": 30.98,
    "LBSTRESU": "U/L",
    "LBSTNRLO": 7,
    "LBSTNRHI": 56,
    "LBNRIND": "NORMAL",
    "LBBLFL": "",
    "VISITNUM": 5,
    "VISIT": "WEEK 8",
    "VISITDY": 57,
    "LBDTC": "2013-04-06",
    "LBDY": 57
  },
  {
    "STUDYID": "CDISCPILOT01",
    "DOMAIN": "LB",
    "USUBJID": "01-701-005",
    "LBSEQ": 39,
    "LBTESTCD": "AST",
    "LBTEST": "Aspartate Aminotransferase",
    "LBCAT": "CHEMISTRY",
    "LBORRES": 21.69,
    "LBORRESU": "U/L",
    "LBSTRESN": 21.69,
    "LBSTRESU": "U/L",
    "LBSTNRLO": 10,
    "LBSTNRHI": 40,
    "LBNRIND": "NORMAL",
    "LBBLFL": "",
    "VISITNUM": 5,
    "VISIT": "WEEK 8",
    "VISITDY": 57,
    "LBDTC": "2013-04-06",
    "LBDY": 57
  },
  {
    "STUDYID": "CDISCPILOT01",
    "DOMAIN": "LB",
    "USUBJID": "01-701-005",
    "LBSEQ": 40,
    "LBTESTCD": "ALP",
    "LBTEST": "Alkaline Phosphatase",
    "LBCAT": "CHEMISTRY",
    "LBORRES": 60.89,
    "LBORRESU": "U/L",
    "LBSTRESN": 60.89,
    "LBSTRESU": "U/L",
    "LBSTNRLO": 44,
    "LBSTNRHI": 147,
    "LBNRIND": "NORMAL",
    "LBBLFL": "",
    "VISITNUM": 5,
    "VISIT": "WEEK 8",
    "VISITDY": 57,
    "LBDTC": "2013-04-06",
    "LBDY": 57
  },
  {
    "STUDYID": "CDISCPILOT01",
    "DOMAIN": "LB",
    "USUBJID": "01-701-005",
    "LBSEQ": 41,
    "LBTESTCD": "BILI",
    "LBTEST": "Bilirubin",
    "LBCAT": "CHEMISTRY",
    "LBORRES": 0.45,
    "LBORRESU": "mg/dL",
    "LBSTRESN": 0.45,
    "LBSTRESU": "mg/dL",
    "LBSTNRLO": 0.1,
    "LBSTNRHI": 1.2,
    "LBNRIND": "NORMAL",
    "LBBLFL": "",
    "VISITNUM": 5,
    "VISIT": "WEEK 8",
    "VISITDY": 57,
    "LBDTC": "2013-04-05",
    "LBDY": 57
  },
  {
    "STUDYID": "CDISCPILOT01",
    "DOMAIN": "LB",
    "USUBJID": "01-701-005",
    "LBSEQ": 42,
    "LBTESTCD": "ALB",
    "LBTEST": "Albumin",
    "LBCAT": "CHEMISTRY",
    "LBORRES": 3.74,
    "LBORRESU": "g/dL",
    "LBSTRESN": 3.74,
    "LBSTRESU": "g/dL",
    "LBSTNRLO": 3.5,
    "LBSTNRHI": 5,
    "LBNRIND": "NORMAL",
    "LBBLFL": "",
    "VISITNUM": 5,
    "VISIT": "WEEK 8",
    "VISITDY": 57,
    "LBDTC": "2013-04-04",
    "LBDY": 57
  },
  {
    "STUDYID": "CDISCPILOT01",
    "DOMAIN": "LB",
    "USUBJID": "01-701-005",
    "LBSEQ": 43,
    "LBTESTCD": "CREAT",
    "LBTEST": "Creatinine",
    "LBCAT": "CHEMISTRY",
    "LBORRES": 0.91,
    "LBORRESU": "mg/dL",
    "LBSTRESN": 0.91,
    "LBSTRESU": "mg/dL",
    "LBSTNRLO": 0.7,
    "LBSTNRHI": 1.3,
    "LBNRIND": "NORMAL",
    "LBBLFL": "",
    "VISITNUM": 5,
    "VISIT": "WEEK 8",
    "VISITDY": 57,
    "LBDTC": "2013-04-04",
    "LBDY": 57
  },
  {
    "STUDYID": "CDISCPILOT01",
    "DOMAIN": "LB",
    "USUBJID": "01-701-005",
    "LBSEQ": 44,
    "LBTESTCD": "BUN",
    "LBTEST": "Blood Urea Nitrogen",
    "LBCAT": "CHEMISTRY",
    "LBORRES": 24.3,
    "LBORRESU": "mg/dL",
    "LBSTRESN": 24.3,
    "LBSTRESU": "mg/dL",
    "LBSTNRLO": 8,
    "LBSTNRHI": 23,
    "LBNRIND": "HIGH",
    "LBBLFL": "",
    "VISITNUM": 5,
    "VISIT": "WEEK 8",
    "VISITDY": 57,
    "LBDTC": "2013-04-05",
    "LBDY": 57
  },
  {
    "STUDYID": "CDISCPILOT01",
    "DOMAIN": "LB",
    "USUBJID": "01-701-005",
    "LBSEQ": 45,
    "LBTESTCD": "SODIUM",
    "LBTEST": "Sodium",
    "LBCAT": "CHEMISTRY",
    "LBORRES": 140.3,
    "LBORRESU": "mmol/L",
    "LBSTRESN": 140.3,
    "LBSTRESU": "mmol/L",
    "LBSTNRLO": 136,
    "LBSTNRHI": 145,
    "LBNRIND": "NORMAL",
    "LBBLFL": "",
    "VISITNUM": 5,
    "VISIT": "WEEK 8",
    "VISITDY": 57,
    "LBDTC": "2013-04-06",
    "LBDY": 57
  },
  {
    "STUDYID": "CDISCPILOT01",
    "DOMAIN": "LB",
    "USUBJID": "01-701-005",
    "LBSEQ": 46,
    "LBTESTCD": "POTASSIUM",
    "LBTEST": "Potassium",
    "LBCAT": "CHEMISTRY",
    "LBORRES": 4.01,
    "LBORRESU": "mmol/L",
    "LBSTRESN": 4.01,
    "LBSTRESU": "mmol/L",
    "LBSTNRLO": 3.5,
    "LBSTNRHI": 5,
    "LBNRIND": "NORMAL",
    "LBBLFL": "",
    "VISITNUM": 5,
    "VISIT": "WEEK 8",
    "VISITDY": 57,
    "LBDTC": "2013-04-04",
    "LBDY": 57
  },
  {
    "STUDYID": "CDISCPILOT01",
    "DOMAIN": "LB",
    "USUBJID": "01-701-005",
    "LBSEQ": 47,
    "LBTESTCD": "CHLORIDE",
    "LBTEST": "Chloride",
    "LBCAT": "CHEMISTRY",
    "LBORRES": 100.01,
    "LBORRESU": "mmol/L",
    "LBSTRESN": 100.01,
    "LBSTRESU": "mmol/L",
    "LBSTNRLO": 98,
    "LBSTNRHI": 106,
    "LBNRIND": "NORMAL",
    "LBBLFL": "",
    "VISITNUM": 5,
    "VISIT": "WEEK 8",
    "VISITDY": 57,
    "LBDTC": "2013-04-05",
    "LBDY": 57
  },
  {
    "STUDYID": "CDISCPILOT01",
    "DOMAIN": "LB",
    "USUBJID": "01-701-005",
    "LBSEQ": 48,
    "LBTESTCD": "GLUC",
    "LBTEST": "Glucose",
    "LBCAT": "CHEMISTRY",
    "LBORRES": 104.82,
    "LBORRESU": "mg/dL",
    "LBSTRESN": 104.82,
    "LBSTRESU": "mg/dL",
    "LBSTNRLO": 70,
    "LBSTNRHI": 110,
    "LBNRIND": "NORMAL",
    "LBBLFL": "",
    "VISITNUM": 5,
    "VISIT": "WEEK 8",
    "VISITDY": 57,
    "LBDTC": "2013-04-05",
    "LBDY": 57
  },
  {
    "STUDYID": "CDISCPILOT01",
    "DOMAIN": "LB",
    "USUBJID": "01-701-005",
    "LBSEQ": 49,
    "LBTESTCD": "HGB",
    "LBTEST": "Hemoglobin",
    "LBCAT": "HEMATOLOGY",
    "LBORRES": 11.74,
    "LBORRESU": "g/dL",
    "LBSTRESN": 11.74,
    "LBSTRESU": "g/dL",
    "LBSTNRLO": 12,
    "LBSTNRHI": 15.5,
    "LBNRIND": "LOW",
    "LBBLFL": "",
    "VISITNUM": 7,
    "VISIT": "WEEK 16",
    "VISITDY": 113,
    "LBDTC": "2013-05-30",
    "LBDY": 113
  },
  {
    "STUDYID": "CDISCPILOT01",
    "DOMAIN": "LB",
    "USUBJID": "01-701-005",
    "LBSEQ": 50,
    "LBTESTCD": "WBC",
    "LBTEST": "White Blood Cells",
    "LBCAT": "HEMATOLOGY",
    "LBORRES": 7.52,
    "LBORRESU": "10^9/L",
    "LBSTRESN": 7.52,
    "LBSTRESU": "10^9/L",
    "LBSTNRLO": 4,
    "LBSTNRHI": 11,
    "LBNRIND": "NORMAL",
    "LBBLFL": "",
    "VISITNUM": 7,
    "VISIT": "WEEK 16",
    "VISITDY": 113,
    "LBDTC": "2013-05-30",
    "LBDY": 113
  },
  {
    "STUDYID": "CDISCPILOT01",
    "DOMAIN": "LB",
    "USUBJID": "01-701-005",
    "LBSEQ": 51,
    "LBTESTCD": "RBC",
    "LBTEST": "Red Blood Cells",
    "LBCAT": "HEMATOLOGY",
    "LBORRES": 4.07,
    "LBORRESU": "10^12/L",
    "LBSTRESN": 4.07,
    "LBSTRESU": "10^12/L",
    "LBSTNRLO": 4,
    "LBSTNRHI": 5,
    "LBNRIND": "NORMAL",
    "LBBLFL": "",
    "VISITNUM": 7,
    "VISIT": "WEEK 16",
    "VISITDY": 113,
    "LBDTC": "2013-05-31",
    "LBDY": 113
  },
  {
    "STUDYID": "CDISCPILOT01",
    "DOMAIN": "LB",
    "USUBJID": "01-701-005",
    "LBSEQ": 52,
    "LBTESTCD": "PLT",
    "LBTEST": "Platelets",
    "LBCAT": "HEMATOLOGY",
    "LBORRES": 185.2,
    "LBORRESU": "10^9/L",
    "LBSTRESN": 185.2,
    "LBSTRESU": "10^9/L",
    "LBSTNRLO": 150,
    "LBSTNRHI": 400,
    "LBNRIND": "NORMAL",
    "LBBLFL": "",
    "VISITNUM": 7,
    "VISIT": "WEEK 16",
    "VISITDY": 113,
    "LBDTC": "2013-06-01",
    "LBDY": 113
  },
  {
    "STUDYID": "CDISCPILOT01",
    "DOMAIN": "LB",
    "USUBJID": "01-701-005",
    "LBSEQ": 53,
    "LBTESTCD": "HCT",
    "LBTEST": "Hematocrit",
    "LBCAT": "HEMATOLOGY",
    "LBORRES": 40.54,
    "LBORRESU": "%",
    "LBSTRESN": 40.54,
    "LBSTRESU": "%",
    "LBSTNRLO": 36,
    "LBSTNRHI": 44,
    "LBNRIND": "NORMAL",
    "LBBLFL": "",
    "VISITNUM": 7,
    "VISIT": "WEEK 16",
    "VISITDY": 113,
    "LBDTC": "2013-05-30",
    "LBDY": 113
  },
  {
    "STUDYID": "CDISCPILOT01",
    "DOMAIN": "LB",
    "USUBJID": "01-701-005",
    "LBSEQ": 54,
    "LBTESTCD": "ALT",
    "LBTEST": "Alanine Aminotransferase",
    "LBCAT": "CHEMISTRY",
    "LBORRES": 26.5,
    "LBORRESU": "U/L",
    "LBSTRESN": 26.5,
    "LBSTRESU": "U/L",
    "LBSTNRLO": 7,
    "LBSTNRHI": 56,
    "LBNRIND": "NORMAL",
    "LBBLFL": "",
    "VISITNUM": 7,
    "VISIT": "WEEK 16",
    "VISITDY": 113,
    "LBDTC": "2013-06-01",
    "LBDY": 113
  },
  {
    "STUDYID": "CDISCPILOT01",
    "DOMAIN": "LB",
    "USUBJID": "01-701-005",
    "LBSEQ": 55,
    "LBTESTCD": "AST",
    "LBTEST": "Aspartate Aminotransferase",
    "LBCAT": "CHEMISTRY",
    "LBORRES": 22.46,
    "LBORRESU": "U/L",
    "LBSTRESN": 22.46,
    "LBSTRESU": "U/L",
    "LBSTNRLO": 10,
    "LBSTNRHI": 40,
    "LBNRIND": "NORMAL",
    "LBBLFL": "",
    "VISITNUM": 7,
    "VISIT": "WEEK 16",
    "VISITDY": 113,
    "LBDTC": "2013-06-01",
    "LBDY": 113
  },
  {
    "STUDYID": "CDISCPILOT01",
    "DOMAIN": "LB",
    "USUBJID": "01-701-005",
    "LBSEQ": 56,
    "LBTESTCD": "ALP",
    "LBTEST": "Alkaline Phosphatase",
    "LBCAT": "CHEMISTRY",
    "LBORRES": 56.58,
    "LBORRESU": "U/L",
    "LBSTRESN": 56.58,
    "LBSTRESU": "U/L",
    "LBSTNRLO": 44,
    "LBSTNRHI": 147,
    "LBNRIND": "NORMAL",
    "LBBLFL": "",
    "VISITNUM": 7,
    "VISIT": "WEEK 16",
    "VISITDY": 113,
    "LBDTC": "2013-05-31",
    "LBDY": 113
  },
  {
    "STUDYID": "CDISCPILOT01",
    "DOMAIN": "LB",
    "USUBJID": "01-701-005",
    "LBSEQ": 57,
    "LBTESTCD": "BILI",
    "LBTEST": "Bilirubin",
    "LBCAT": "CHEMISTRY",
    "LBORRES": 0.41,
    "LBORRESU": "mg/dL",
    "LBSTRESN": 0.41,
    "LBSTRESU": "mg/dL",
    "LBSTNRLO": 0.1,
    "LBSTNRHI": 1.2,
    "LBNRIND": "NORMAL",
    "LBBLFL": "",
    "VISITNUM": 7,
    "VISIT": "WEEK 16",
    "VISITDY": 113,
    "LBDTC": "2013-06-01",
    "LBDY": 113
  },
  {
    "STUDYID": "CDISCPILOT01",
    "DOMAIN": "LB",
    "USUBJID": "01-701-005",
    "LBSEQ": 58,
    "LBTESTCD": "ALB",
    "LBTEST": "Albumin",
    "LBCAT": "CHEMISTRY",
    "LBORRES": 3.65,
    "LBORRESU": "g/dL",
    "LBSTRESN": 3.65,
    "LBSTRESU": "g/dL",
    "LBSTNRLO": 3.5,
    "LBSTNRHI": 5,
    "LBNRIND": "NORMAL",
    "LBBLFL": "",
    "VISITNUM": 7,
    "VISIT": "WEEK 16",
    "VISITDY": 113,
    "LBDTC": "2013-05-31",
    "LBDY": 113
  },
  {
    "STUDYID": "CDISCPILOT01",
    "DOMAIN": "LB",
    "USUBJID": "01-701-005",
    "LBSEQ": 59,
    "LBTESTCD": "CREAT",
    "LBTEST": "Creatinine",
    "LBCAT": "CHEMISTRY",
    "LBORRES": 0.88,
    "LBORRESU": "mg/dL",
    "LBSTRESN": 0.88,
    "LBSTRESU": "mg/dL",
    "LBSTNRLO": 0.7,
    "LBSTNRHI": 1.3,
    "LBNRIND": "NORMAL",
    "LBBLFL": "",
    "VISITNUM": 7,
    "VISIT": "WEEK 16",
    "VISITDY": 113,
    "LBDTC": "2013-05-30",
    "LBDY": 113
  },
  {
    "STUDYID": "CDISCPILOT01",
    "DOMAIN": "LB",
    "USUBJID": "01-701-005",
    "LBSEQ": 60,
    "LBTESTCD": "BUN",
    "LBTEST": "Blood Urea Nitrogen",
    "LBCAT": "CHEMISTRY",
    "LBORRES": 24.73,
    "LBORRESU": "mg/dL",
    "LBSTRESN": 24.73,
    "LBSTRESU": "mg/dL",
    "LBSTNRLO": 8,
    "LBSTNRHI": 23,
    "LBNRIND": "HIGH",
    "LBBLFL": "",
    "VISITNUM": 7,
    "VISIT": "WEEK 16",
    "VISITDY": 113,
    "LBDTC": "2013-05-30",
    "LBDY": 113
  },
  {
    "STUDYID": "CDISCPILOT01",
    "DOMAIN": "LB",
    "USUBJID": "01-701-005",
    "LBSEQ": 61,
    "LBTESTCD": "SODIUM",
    "LBTEST": "Sodium",
    "LBCAT": "CHEMISTRY",
    "LBORRES": 141.27,
    "LBORRESU": "mmol/L",
    "LBSTRESN": 141.27,
    "LBSTRESU": "mmol/L",
    "LBSTNRLO": 136,
    "LBSTNRHI": 145,
    "LBNRIND": "NORMAL",
    "LBBLFL": "",
    "VISITNUM": 7,
    "VISIT": "WEEK 16",
    "VISITDY": 113,
    "LBDTC": "2013-05-31",
    "LBDY": 113
  },
  {
    "STUDYID": "CDISCPILOT01",
    "DOMAIN": "LB",
    "USUBJID": "01-701-005",
    "LBSEQ": 62,
    "LBTESTCD": "POTASSIUM",
    "LBTEST": "Potassium",
    "LBCAT": "CHEMISTRY",
    "LBORRES": 4.06,
    "LBORRESU": "mmol/L",
    "LBSTRESN": 4.06,
    "LBSTRESU": "mmol/L",
    "LBSTNRLO": 3.5,
    "LBSTNRHI": 5,
    "LBNRIND": "NORMAL",
    "LBBLFL": "",
    "VISITNUM": 7,
    "VISIT": "WEEK 16",
    "VISITDY": 113,
    "LBDTC": "2013-05-31",
    "LBDY": 113
  },
  {
    "STUDYID": "CDISCPILOT01",
    "DOMAIN": "LB",
    "USUBJID": "01-701-005",
    "LBSEQ": 63,
    "LBTESTCD": "CHLORIDE",
    "LBTEST": "Chloride",
    "LBCAT": "CHEMISTRY",
    "LBORRES": 99.71,
    "LBORRESU": "mmol/L",
    "LBSTRESN": 99.71,
    "LBSTRESU": "mmol/L",
    "LBSTNRLO": 98,
    "LBSTNRHI": 106,
    "LBNRIND": "NORMAL",
    "LBBLFL": "",
    "VISITNUM": 7,
    "VISIT": "WEEK 16",
    "VISITDY": 113,
    "LBDTC": "2013-05-30",
    "LBDY": 113
  },
  {
    "STUDYID": "CDISCPILOT01",
    "DOMAIN": "LB",
    "USUBJID": "01-701-005",
    "LBSEQ": 64,
    "LBTESTCD": "GLUC",
    "LBTEST": "Glucose",
    "LBCAT": "CHEMISTRY",
    "LBORRES": 100.57,
    "LBORRESU": "mg/dL",
    "LBSTRESN": 100.57,
    "LBSTRESU": "mg/dL",
    "LBSTNRLO": 70,
    "LBSTNRHI": 110,
    "LBNRIND": "NORMAL",
    "LBBLFL": "",
    "VISITNUM": 7,
    "VISIT": "WEEK 16",
    "VISITDY": 113,
    "LBDTC": "2013-05-31",
    "LBDY": 113
  },
  {
    "STUDYID": "CDISCPILOT01",
    "DOMAIN": "LB",
    "USUBJID": "01-701-005",
    "LBSEQ": 65,
    "LBTESTCD": "HGB",
    "LBTEST": "Hemoglobin",
    "LBCAT": "HEMATOLOGY",
    "LBORRES": 12.03,
    "LBORRESU": "g/dL",
    "LBSTRESN": 12.03,
    "LBSTRESU": "g/dL",
    "LBSTNRLO": 12,
    "LBSTNRHI": 15.5,
    "LBNRIND": "NORMAL",
    "LBBLFL": "",
    "VISITNUM": 9,
    "VISIT": "WEEK 24",
    "VISITDY": 169,
    "LBDTC": "2013-07-25",
    "LBDY": 169
  },
  {
    "STUDYID": "CDISCPILOT01",
    "DOMAIN": "LB",
    "USUBJID": "01-701-005",
    "LBSEQ": 66,
    "LBTESTCD": "WBC",
    "LBTEST": "White Blood Cells",
    "LBCAT": "HEMATOLOGY",
    "LBORRES": 7.15,
    "LBORRESU": "10^9/L",
    "LBSTRESN": 7.15,
    "LBSTRESU": "10^9/L",
    "LBSTNRLO": 4,
    "LBSTNRHI": 11,
    "LBNRIND": "NORMAL",
    "LBBLFL": "",
    "VISITNUM": 9,
    "VISIT": "WEEK 24",
    "VISITDY": 169,
    "LBDTC": "2013-07-26",
    "LBDY": 169
  },
  {
    "STUDYID": "CDISCPILOT01",
    "DOMAIN": "LB",
    "USUBJID": "01-701-005",
    "LBSEQ": 67,
    "LBTESTCD": "RBC",
    "LBTEST": "Red Blood Cells",
    "LBCAT": "HEMATOLOGY",
    "LBORRES": 3.85,
    "LBORRESU": "10^12/L",
    "LBSTRESN": 3.85,
    "LBSTRESU": "10^12/L",
    "LBSTNRLO": 4,
    "LBSTNRHI": 5,
    "LBNRIND": "LOW",
    "LBBLFL": "",
    "VISITNUM": 9,
    "VISIT": "WEEK 24",
    "VISITDY": 169,
    "LBDTC": "2013-07-27",
    "LBDY": 169
  },
  {
    "STUDYID": "CDISCPILOT01",
    "DOMAIN": "LB",
    "USUBJID": "01-701-005",
    "LBSEQ": 68,
    "LBTESTCD": "PLT",
    "LBTEST": "Platelets",
    "LBCAT": "HEMATOLOGY",
    "LBORRES": 176.12,
    "LBORRESU": "10^9/L",
    "LBSTRESN": 176.12,
    "LBSTRESU": "10^9/L",
    "LBSTNRLO": 150,
    "LBSTNRHI": 400,
    "LBNRIND": "NORMAL",
    "LBBLFL": "",
    "VISITNUM": 9,
    "VISIT": "WEEK 24",
    "VISITDY": 169,
    "LBDTC": "2013-07-26",
    "LBDY": 169
  },
  {
    "STUDYID": "CDISCPILOT01",
    "DOMAIN": "LB",
    "USUBJID": "01-701-005",
    "LBSEQ": 69,
    "LBTESTCD": "HCT",
    "LBTEST": "Hematocrit",
    "LBCAT": "HEMATOLOGY",
    "LBORRES": 40.1,
    "LBORRESU": "%",
    "LBSTRESN": 40.1,
    "LBSTRESU": "%",
    "LBSTNRLO": 36,
    "LBSTNRHI": 44,
    "LBNRIND": "NORMAL",
    "LBBLFL": "",
    "VISITNUM": 9,
    "VISIT": "WEEK 24",
    "VISITDY": 169,
    "LBDTC": "2013-07-25",
    "LBDY": 169
  },
  {
    "STUDYID": "CDISCPILOT01",
    "DOMAIN": "LB",
    "USUBJID": "01-701-005",
    "LBSEQ": 70,
    "LBTESTCD": "ALT",
    "LBTEST": "Alanine Aminotransferase",
    "LBCAT": "CHEMISTRY",
    "LBORRES": 29.88,
    "LBORRESU": "U/L",
    "LBSTRESN": 29.88,
    "LBSTRESU": "U/L",
    "LBSTNRLO": 7,
    "LBSTNRHI": 56,
    "LBNRIND": "NORMAL",
    "LBBLFL": "",
    "VISITNUM": 9,
    "VISIT": "WEEK 24",
    "VISITDY": 169,
    "LBDTC": "2013-07-27",
    "LBDY": 169
  },
  {
    "STUDYID": "CDISCPILOT01",
    "DOMAIN": "LB",
    "USUBJID": "01-701-005",
    "LBSEQ": 71,
    "LBTESTCD": "AST",
    "LBTEST": "Aspartate Aminotransferase",
    "LBCAT": "CHEMISTRY",
    "LBORRES": 21.18,
    "LBORRESU": "U/L",
    "LBSTRESN": 21.18,
    "LBSTRESU": "U/L",
    "LBSTNRLO": 10,
    "LBSTNRHI": 40,
    "LBNRIND": "NORMAL",
    "LBBLFL": "",
    "VISITNUM": 9,
    "VISIT": "WEEK 24",
    "VISITDY": 169,
    "LBDTC": "2013-07-25",
    "LBDY": 169
  },
  {
    "STUDYID": "CDISCPILOT01",
    "DOMAIN": "LB",
    "USUBJID": "01-701-005",
    "LBSEQ": 72,
    "LBTESTCD": "ALP",
    "LBTEST": "Alkaline Phosphatase",
    "LBCAT": "CHEMISTRY",
    "LBORRES": 58.57,
    "LBORRESU": "U/L",
    "LBSTRESN": 58.57,
    "LBSTRESU": "U/L",
    "LBSTNRLO": 44,
    "LBSTNRHI": 147,
    "LBNRIND": "NORMAL",
    "LBBLFL": "",
    "VISITNUM": 9,
    "VISIT": "WEEK 24",
    "VISITDY": 169,
    "LBDTC": "2013-07-27",
    "LBDY": 169
  },
  {
    "STUDYID": "CDISCPILOT01",
    "DOMAIN": "LB",
    "USUBJID": "01-701-005",
    "LBSEQ": 73,
    "LBTESTCD": "BILI",
    "LBTEST": "Bilirubin",
    "LBCAT": "CHEMISTRY",
    "LBORRES": 0.43,
    "LBORRESU": "mg/dL",
    "LBSTRESN": 0.43,
    "LBSTRESU": "mg/dL",
    "LBSTNRLO": 0.1,
    "LBSTNRHI": 1.2,
    "LBNRIND": "NORMAL",
    "LBBLFL": "",
    "VISITNUM": 9,
    "VISIT": "WEEK 24",
    "VISITDY": 169,
    "LBDTC": "2013-07-26",
    "LBDY": 169
  },
  {
    "STUDYID": "CDISCPILOT01",
    "DOMAIN": "LB",
    "USUBJID": "01-701-005",
    "LBSEQ": 74,
    "LBTESTCD": "ALB",
    "LBTEST": "Albumin",
    "LBCAT": "CHEMISTRY",
    "LBORRES": 3.72,
    "LBORRESU": "g/dL",
    "LBSTRESN": 3.72,
    "LBSTRESU": "g/dL",
    "LBSTNRLO": 3.5,
    "LBSTNRHI": 5,
    "LBNRIND": "NORMAL",
    "LBBLFL": "",
    "VISITNUM": 9,
    "VISIT": "WEEK 24",
    "VISITDY": 169,
    "LBDTC": "2013-07-26",
    "LBDY": 169
  },
  {
    "STUDYID": "CDISCPILOT01",
    "DOMAIN": "LB",
    "USUBJID": "01-701-005",
    "LBSEQ": 75,
    "LBTESTCD": "CREAT",
    "LBTEST": "Creatinine",
    "LBCAT": "CHEMISTRY",
    "LBORRES": 0.81,
    "LBORRESU": "mg/dL",
    "LBSTRESN": 0.81,
    "LBSTRESU": "mg/dL",
    "LBSTNRLO": 0.7,
    "LBSTNRHI": 1.3,
    "LBNRIND": "NORMAL",
    "LBBLFL": "",
    "VISITNUM": 9,
    "VISIT": "WEEK 24",
    "VISITDY": 169,
    "LBDTC": "2013-07-25",
    "LBDY": 169
  },
  {
    "STUDYID": "CDISCPILOT01",
    "DOMAIN": "LB",
    "USUBJID": "01-701-005",
    "LBSEQ": 76,
    "LBTESTCD": "BUN",
    "LBTEST": "Blood Urea Nitrogen",
    "LBCAT": "CHEMISTRY",
    "LBORRES": 26.68,
    "LBORRESU": "mg/dL",
    "LBSTRESN": 26.68,
    "LBSTRESU": "mg/dL",
    "LBSTNRLO": 8,
    "LBSTNRHI": 23,
    "LBNRIND": "HIGH",
    "LBBLFL": "",
    "VISITNUM": 9,
    "VISIT": "WEEK 24",
    "VISITDY": 169,
    "LBDTC": "2013-07-25",
    "LBDY": 169
  },
  {
    "STUDYID": "CDISCPILOT01",
    "DOMAIN": "LB",
    "USUBJID": "01-701-005",
    "LBSEQ": 77,
    "LBTESTCD": "SODIUM",
    "LBTEST": "Sodium",
    "LBCAT": "CHEMISTRY",
    "LBORRES": 141.19,
    "LBORRESU": "mmol/L",
    "LBSTRESN": 141.19,
    "LBSTRESU": "mmol/L",
    "LBSTNRLO": 136,
    "LBSTNRHI": 145,
    "LBNRIND": "NORMAL",
    "LBBLFL": "",
    "VISITNUM": 9,
    "VISIT": "WEEK 24",
    "VISITDY": 169,
    "LBDTC": "2013-07-26",
    "LBDY": 169
  },
  {
    "STUDYID": "CDISCPILOT01",
    "DOMAIN": "LB",
    "USUBJID": "01-701-005",
    "LBSEQ": 78,
    "LBTESTCD": "POTASSIUM",
    "LBTEST": "Potassium",
    "LBCAT": "CHEMISTRY",
    "LBORRES": 4.02,
    "LBORRESU": "mmol/L",
    "LBSTRESN": 4.02,
    "LBSTRESU": "mmol/L",
    "LBSTNRLO": 3.5,
    "LBSTNRHI": 5,
    "LBNRIND": "NORMAL",
    "LBBLFL": "",
    "VISITNUM": 9,
    "VISIT": "WEEK 24",
    "VISITDY": 169,
    "LBDTC": "2013-07-25",
    "LBDY": 169
  },
  {
    "STUDYID": "CDISCPILOT01",
    "DOMAIN": "LB",
    "USUBJID": "01-701-005",
    "LBSEQ": 79,
    "LBTESTCD": "CHLORIDE",
    "LBTEST": "Chloride",
    "LBCAT": "CHEMISTRY",
    "LBORRES": 100.04,
    "LBORRESU": "mmol/L",
    "LBSTRESN": 100.04,
    "LBSTRESU": "mmol/L",
    "LBSTNRLO": 98,
    "LBSTNRHI": 106,
    "LBNRIND": "NORMAL",
    "LBBLFL": "",
    "VISITNUM": 9,
    "VISIT": "WEEK 24",
    "VISITDY": 169,
    "LBDTC": "2013-07-26",
    "LBDY": 169
  },
  {
    "STUDYID": "CDISCPILOT01",
    "DOMAIN": "LB",
    "USUBJID": "01-701-005",
    "LBSEQ": 80,
    "LBTESTCD": "GLUC",
    "LBTEST": "Glucose",
    "LBCAT": "CHEMISTRY",
    "LBORRES": 103.31,
    "LBORRESU": "mg/dL",
    "LBSTRESN": 103.31,
    "LBSTRESU": "mg/dL",
    "LBSTNRLO": 70,
    "LBSTNRHI": 110,
    "LBNRIND": "NORMAL",
    "LBBLFL": "",
    "VISITNUM": 9,
    "VISIT": "WEEK 24",
    "VISITDY": 169,
    "LBDTC": "2013-07-25",
    "LBDY": 169
  },
  {
    "STUDYID": "CDISCPILOT01",
    "DOMAIN": "LB",
    "USUBJID": "01-701-006",
    "LBSEQ": 1,
    "LBTESTCD": "HGB",
    "LBTEST": "Hemoglobin",
    "LBCAT": "HEMATOLOGY",
    "LBORRES": 12.7,
    "LBORRESU": "g/dL",
    "LBSTRESN": 12.7,
    "LBSTRESU": "g/dL",
    "LBSTNRLO": 12,
    "LBSTNRHI": 15.5,
    "LBNRIND": "NORMAL",
    "LBBLFL": "Y",
    "VISITNUM": 1,
    "VISIT": "SCREENING",
    "VISITDY": -7,
    "LBDTC": "2013-06-19",
    "LBDY": -7
  },
  {
    "STUDYID": "CDISCPILOT01",
    "DOMAIN": "LB",
    "USUBJID": "01-701-006",
    "LBSEQ": 2,
    "LBTESTCD": "WBC",
    "LBTEST": "White Blood Cells",
    "LBCAT": "HEMATOLOGY",
    "LBORRES": 9.08,
    "LBORRESU": "10^9/L",
    "LBSTRESN": 9.08,
    "LBSTRESU": "10^9/L",
    "LBSTNRLO": 4,
    "LBSTNRHI": 11,
    "LBNRIND": "NORMAL",
    "LBBLFL": "Y",
    "VISITNUM": 1,
    "VISIT": "SCREENING",
    "VISITDY": -7,
    "LBDTC": "2013-06-19",
    "LBDY": -7
  },
  {
    "STUDYID": "CDISCPILOT01",
    "DOMAIN": "LB",
    "USUBJID": "01-701-006",
    "LBSEQ": 3,
    "LBTESTCD": "RBC",
    "LBTEST": "Red Blood Cells",
    "LBCAT": "HEMATOLOGY",
    "LBORRES": 4.47,
    "LBORRESU": "10^12/L",
    "LBSTRESN": 4.47,
    "LBSTRESU": "10^12/L",
    "LBSTNRLO": 4,
    "LBSTNRHI": 5,
    "LBNRIND": "NORMAL",
    "LBBLFL": "Y",
    "VISITNUM": 1,
    "VISIT": "SCREENING",
    "VISITDY": -7,
    "LBDTC": "2013-06-18",
    "LBDY": -7
  },
  {
    "STUDYID": "CDISCPILOT01",
    "DOMAIN": "LB",
    "USUBJID": "01-701-006",
    "LBSEQ": 4,
    "LBTESTCD": "PLT",
    "LBTEST": "Platelets",
    "LBCAT": "HEMATOLOGY",
    "LBORRES": 243.04,
    "LBORRESU": "10^9/L",
    "LBSTRESN": 243.04,
    "LBSTRESU": "10^9/L",
    "LBSTNRLO": 150,
    "LBSTNRHI": 400,
    "LBNRIND": "NORMAL",
    "LBBLFL": "Y",
    "VISITNUM": 1,
    "VISIT": "SCREENING",
    "VISITDY": -7,
    "LBDTC": "2013-06-19",
    "LBDY": -7
  },
  {
    "STUDYID": "CDISCPILOT01",
    "DOMAIN": "LB",
    "USUBJID": "01-701-006",
    "LBSEQ": 5,
    "LBTESTCD": "HCT",
    "LBTEST": "Hematocrit",
    "LBCAT": "HEMATOLOGY",
    "LBORRES": 43.14,
    "LBORRESU": "%",
    "LBSTRESN": 43.14,
    "LBSTRESU": "%",
    "LBSTNRLO": 36,
    "LBSTNRHI": 44,
    "LBNRIND": "NORMAL",
    "LBBLFL": "Y",
    "VISITNUM": 1,
    "VISIT": "SCREENING",
    "VISITDY": -7,
    "LBDTC": "2013-06-18",
    "LBDY": -7
  },
  {
    "STUDYID": "CDISCPILOT01",
    "DOMAIN": "LB",
    "USUBJID": "01-701-006",
    "LBSEQ": 6,
    "LBTESTCD": "ALT",
    "LBTEST": "Alanine Aminotransferase",
    "LBCAT": "CHEMISTRY",
    "LBORRES": 14.4,
    "LBORRESU": "U/L",
    "LBSTRESN": 14.4,
    "LBSTRESU": "U/L",
    "LBSTNRLO": 7,
    "LBSTNRHI": 56,
    "LBNRIND": "NORMAL",
    "LBBLFL": "Y",
    "VISITNUM": 1,
    "VISIT": "SCREENING",
    "VISITDY": -7,
    "LBDTC": "2013-06-18",
    "LBDY": -7
  },
  {
    "STUDYID": "CDISCPILOT01",
    "DOMAIN": "LB",
    "USUBJID": "01-701-006",
    "LBSEQ": 7,
    "LBTESTCD": "AST",
    "LBTEST": "Aspartate Aminotransferase",
    "LBCAT": "CHEMISTRY",
    "LBORRES": 26.05,
    "LBORRESU": "U/L",
    "LBSTRESN": 26.05,
    "LBSTRESU": "U/L",
    "LBSTNRLO": 10,
    "LBSTNRHI": 40,
    "LBNRIND": "NORMAL",
    "LBBLFL": "Y",
    "VISITNUM": 1,
    "VISIT": "SCREENING",
    "VISITDY": -7,
    "LBDTC": "2013-06-18",
    "LBDY": -7
  },
  {
    "STUDYID": "CDISCPILOT01",
    "DOMAIN": "LB",
    "USUBJID": "01-701-006",
    "LBSEQ": 8,
    "LBTESTCD": "ALP",
    "LBTEST": "Alkaline Phosphatase",
    "LBCAT": "CHEMISTRY",
    "LBORRES": 82.57,
    "LBORRESU": "U/L",
    "LBSTRESN": 82.57,
    "LBSTRESU": "U/L",
    "LBSTNRLO": 44,
    "LBSTNRHI": 147,
    "LBNRIND": "NORMAL",
    "LBBLFL": "Y",
    "VISITNUM": 1,
    "VISIT": "SCREENING",
    "VISITDY": -7,
    "LBDTC": "2013-06-18",
    "LBDY": -7
  },
  {
    "STUDYID": "CDISCPILOT01",
    "DOMAIN": "LB",
    "USUBJID": "01-701-006",
    "LBSEQ": 9,
    "LBTESTCD": "BILI",
    "LBTEST": "Bilirubin",
    "LBCAT": "CHEMISTRY",
    "LBORRES": 0.35,
    "LBORRESU": "mg/dL",
    "LBSTRESN": 0.35,
    "LBSTRESU": "mg/dL",
    "LBSTNRLO": 0.1,
    "LBSTNRHI": 1.2,
    "LBNRIND": "NORMAL",
    "LBBLFL": "Y",
    "VISITNUM": 1,
    "VISIT": "SCREENING",
    "VISITDY": -7,
    "LBDTC": "2013-06-20",
    "LBDY": -7
  },
  {
    "STUDYID": "CDISCPILOT01",
    "DOMAIN": "LB",
    "USUBJID": "01-701-006",
    "LBSEQ": 10,
    "LBTESTCD": "ALB",
    "LBTEST": "Albumin",
    "LBCAT": "CHEMISTRY",
    "LBORRES": 4.03,
    "LBORRESU": "g/dL",
    "LBSTRESN": 4.03,
    "LBSTRESU": "g/dL",
    "LBSTNRLO": 3.5,
    "LBSTNRHI": 5,
    "LBNRIND": "NORMAL",
    "LBBLFL": "Y",
    "VISITNUM": 1,
    "VISIT": "SCREENING",
    "VISITDY": -7,
    "LBDTC": "2013-06-20",
    "LBDY": -7
  },
  {
    "STUDYID": "CDISCPILOT01",
    "DOMAIN": "LB",
    "USUBJID": "01-701-006",
    "LBSEQ": 11,
    "LBTESTCD": "CREAT",
    "LBTEST": "Creatinine",
    "LBCAT": "CHEMISTRY",
    "LBORRES": 0.38,
    "LBORRESU": "mg/dL",
    "LBSTRESN": 0.38,
    "LBSTRESU": "mg/dL",
    "LBSTNRLO": 0.7,
    "LBSTNRHI": 1.3,
    "LBNRIND": "LOW",
    "LBBLFL": "Y",
    "VISITNUM": 1,
    "VISIT": "SCREENING",
    "VISITDY": -7,
    "LBDTC": "2013-06-18",
    "LBDY": -7
  },
  {
    "STUDYID": "CDISCPILOT01",
    "DOMAIN": "LB",
    "USUBJID": "01-701-006",
    "LBSEQ": 12,
    "LBTESTCD": "BUN",
    "LBTEST": "Blood Urea Nitrogen",
    "LBCAT": "CHEMISTRY",
    "LBORRES": 15.67,
    "LBORRESU": "mg/dL",
    "LBSTRESN": 15.67,
    "LBSTRESU": "mg/dL",
    "LBSTNRLO": 8,
    "LBSTNRHI": 23,
    "LBNRIND": "NORMAL",
    "LBBLFL": "Y",
    "VISITNUM": 1,
    "VISIT": "SCREENING",
    "VISITDY": -7,
    "LBDTC": "2013-06-19",
    "LBDY": -7
  },
  {
    "STUDYID": "CDISCPILOT01",
    "DOMAIN": "LB",
    "USUBJID": "01-701-006",
    "LBSEQ": 13,
    "LBTESTCD": "SODIUM",
    "LBTEST": "Sodium",
    "LBCAT": "CHEMISTRY",
    "LBORRES": 135.84,
    "LBORRESU": "mmol/L",
    "LBSTRESN": 135.84,
    "LBSTRESU": "mmol/L",
    "LBSTNRLO": 136,
    "LBSTNRHI": 145,
    "LBNRIND": "LOW",
    "LBBLFL": "Y",
    "VISITNUM": 1,
    "VISIT": "SCREENING",
    "VISITDY": -7,
    "LBDTC": "2013-06-18",
    "LBDY": -7
  },
  {
    "STUDYID": "CDISCPILOT01",
    "DOMAIN": "LB",
    "USUBJID": "01-701-006",
    "LBSEQ": 14,
    "LBTESTCD": "POTASSIUM",
    "LBTEST": "Potassium",
    "LBCAT": "CHEMISTRY",
    "LBORRES": 3.96,
    "LBORRESU": "mmol/L",
    "LBSTRESN": 3.96,
    "LBSTRESU": "mmol/L",
    "LBSTNRLO": 3.5,
    "LBSTNRHI": 5,
    "LBNRIND": "NORMAL",
    "LBBLFL": "Y",
    "VISITNUM": 1,
    "VISIT": "SCREENING",
    "VISITDY": -7,
    "LBDTC": "2013-06-18",
    "LBDY": -7
  },
  {
    "STUDYID": "CDISCPILOT01",
    "DOMAIN": "LB",
    "USUBJID": "01-701-006",
    "LBSEQ": 15,
    "LBTESTCD": "CHLORIDE",
    "LBTEST": "Chloride",
    "LBCAT": "CHEMISTRY",
    "LBORRES": 102.11,
    "LBORRESU": "mmol/L",
    "LBSTRESN": 102.11,
    "LBSTRESU": "mmol/L",
    "LBSTNRLO": 98,
    "LBSTNRHI": 106,
    "LBNRIND": "NORMAL",
    "LBBLFL": "Y",
    "VISITNUM": 1,
    "VISIT": "SCREENING",
    "VISITDY": -7,
    "LBDTC": "2013-06-20",
    "LBDY": -7
  },
  {
    "STUDYID": "CDISCPILOT01",
    "DOMAIN": "LB",
    "USUBJID": "01-701-006",
    "LBSEQ": 16,
    "LBTESTCD": "GLUC",
    "LBTEST": "Glucose",
    "LBCAT": "CHEMISTRY",
    "LBORRES": 114.1,
    "LBORRESU": "mg/dL",
    "LBSTRESN": 114.1,
    "LBSTRESU": "mg/dL",
    "LBSTNRLO": 70,
    "LBSTNRHI": 110,
    "LBNRIND": "HIGH",
    "LBBLFL": "Y",
    "VISITNUM": 1,
    "VISIT": "SCREENING",
    "VISITDY": -7,
    "LBDTC": "2013-06-19",
    "LBDY": -7
  },
  {
    "STUDYID": "CDISCPILOT01",
    "DOMAIN": "LB",
    "USUBJID": "01-701-006",
    "LBSEQ": 17,
    "LBTESTCD": "HGB",
    "LBTEST": "Hemoglobin",
    "LBCAT": "HEMATOLOGY",
    "LBORRES": 12.68,
    "LBORRESU": "g/dL",
    "LBSTRESN": 12.68,
    "LBSTRESU": "g/dL",
    "LBSTNRLO": 12,
    "LBSTNRHI": 15.5,
    "LBNRIND": "NORMAL",
    "LBBLFL": "",
    "VISITNUM": 2,
    "VISIT": "BASELINE",
    "VISITDY": 1,
    "LBDTC": "2013-06-28",
    "LBDY": 1
  },
  {
    "STUDYID": "CDISCPILOT01",
    "DOMAIN": "LB",
    "USUBJID": "01-701-006",
    "LBSEQ": 18,
    "LBTESTCD": "WBC",
    "LBTEST": "White Blood Cells",
    "LBCAT": "HEMATOLOGY",
    "LBORRES": 8.71,
    "LBORRESU": "10^9/L",
    "LBSTRESN": 8.71,
    "LBSTRESU": "10^9/L",
    "LBSTNRLO": 4,
    "LBSTNRHI": 11,
    "LBNRIND": "NORMAL",
    "LBBLFL": "",
    "VISITNUM": 2,
    "VISIT": "BASELINE",
    "VISITDY": 1,
    "LBDTC": "2013-06-28",
    "LBDY": 1
  },
  {
    "STUDYID": "CDISCPILOT01",
    "DOMAIN": "LB",
    "USUBJID": "01-701-006",
    "LBSEQ": 19,
    "LBTESTCD": "RBC",
    "LBTEST": "Red Blood Cells",
    "LBCAT": "HEMATOLOGY",
    "LBORRES": 4.51,
    "LBORRESU": "10^12/L",
    "LBSTRESN": 4.51,
    "LBSTRESU": "10^12/L",
    "LBSTNRLO": 4,
    "LBSTNRHI": 5,
    "LBNRIND": "NORMAL",
    "LBBLFL": "",
    "VISITNUM": 2,
    "VISIT": "BASELINE",
    "VISITDY": 1,
    "LBDTC": "2013-06-28",
    "LBDY": 1
  },
  {
    "STUDYID": "CDISCPILOT01",
    "DOMAIN": "LB",
    "USUBJID": "01-701-006",
    "LBSEQ": 20,
    "LBTESTCD": "PLT",
    "LBTEST": "Platelets",
    "LBCAT": "HEMATOLOGY",
    "LBORRES": 240.68,
    "LBORRESU": "10^9/L",
    "LBSTRESN": 240.68,
    "LBSTRESU": "10^9/L",
    "LBSTNRLO": 150,
    "LBSTNRHI": 400,
    "LBNRIND": "NORMAL",
    "LBBLFL": "",
    "VISITNUM": 2,
    "VISIT": "BASELINE",
    "VISITDY": 1,
    "LBDTC": "2013-06-28",
    "LBDY": 1
  },
  {
    "STUDYID": "CDISCPILOT01",
    "DOMAIN": "LB",
    "USUBJID": "01-701-006",
    "LBSEQ": 21,
    "LBTESTCD": "HCT",
    "LBTEST": "Hematocrit",
    "LBCAT": "HEMATOLOGY",
    "LBORRES": 42.84,
    "LBORRESU": "%",
    "LBSTRESN": 42.84,
    "LBSTRESU": "%",
    "LBSTNRLO": 36,
    "LBSTNRHI": 44,
    "LBNRIND": "NORMAL",
    "LBBLFL": "",
    "VISITNUM": 2,
    "VISIT": "BASELINE",
    "VISITDY": 1,
    "LBDTC": "2013-06-27",
    "LBDY": 1
  },
  {
    "STUDYID": "CDISCPILOT01",
    "DOMAIN": "LB",
    "USUBJID": "01-701-006",
    "LBSEQ": 22,
    "LBTESTCD": "ALT",
    "LBTEST": "Alanine Aminotransferase",
    "LBCAT": "CHEMISTRY",
    "LBORRES": 15.26,
    "LBORRESU": "U/L",
    "LBSTRESN": 15.26,
    "LBSTRESU": "U/L",
    "LBSTNRLO": 7,
    "LBSTNRHI": 56,
    "LBNRIND": "NORMAL",
    "LBBLFL": "",
    "VISITNUM": 2,
    "VISIT": "BASELINE",
    "VISITDY": 1,
    "LBDTC": "2013-06-27",
    "LBDY": 1
  },
  {
    "STUDYID": "CDISCPILOT01",
    "DOMAIN": "LB",
    "USUBJID": "01-701-006",
    "LBSEQ": 23,
    "LBTESTCD": "AST",
    "LBTEST": "Aspartate Aminotransferase",
    "LBCAT": "CHEMISTRY",
    "LBORRES": 26.65,
    "LBORRESU": "U/L",
    "LBSTRESN": 26.65,
    "LBSTRESU": "U/L",
    "LBSTNRLO": 10,
    "LBSTNRHI": 40,
    "LBNRIND": "NORMAL",
    "LBBLFL": "",
    "VISITNUM": 2,
    "VISIT": "BASELINE",
    "VISITDY": 1,
    "LBDTC": "2013-06-26",
    "LBDY": 1
  },
  {
    "STUDYID": "CDISCPILOT01",
    "DOMAIN": "LB",
    "USUBJID": "01-701-006",
    "LBSEQ": 24,
    "LBTESTCD": "ALP",
    "LBTEST": "Alkaline Phosphatase",
    "LBCAT": "CHEMISTRY",
    "LBORRES": 78.62,
    "LBORRESU": "U/L",
    "LBSTRESN": 78.62,
    "LBSTRESU": "U/L",
    "LBSTNRLO": 44,
    "LBSTNRHI": 147,
    "LBNRIND": "NORMAL",
    "LBBLFL": "",
    "VISITNUM": 2,
    "VISIT": "BASELINE",
    "VISITDY": 1,
    "LBDTC": "2013-06-26",
    "LBDY": 1
  },
  {
    "STUDYID": "CDISCPILOT01",
    "DOMAIN": "LB",
    "USUBJID": "01-701-006",
    "LBSEQ": 25,
    "LBTESTCD": "BILI",
    "LBTEST": "Bilirubin",
    "LBCAT": "CHEMISTRY",
    "LBORRES": 0.35,
    "LBORRESU": "mg/dL",
    "LBSTRESN": 0.35,
    "LBSTRESU": "mg/dL",
    "LBSTNRLO": 0.1,
    "LBSTNRHI": 1.2,
    "LBNRIND": "NORMAL",
    "LBBLFL": "",
    "VISITNUM": 2,
    "VISIT": "BASELINE",
    "VISITDY": 1,
    "LBDTC": "2013-06-27",
    "LBDY": 1
  },
  {
    "STUDYID": "CDISCPILOT01",
    "DOMAIN": "LB",
    "USUBJID": "01-701-006",
    "LBSEQ": 26,
    "LBTESTCD": "ALB",
    "LBTEST": "Albumin",
    "LBCAT": "CHEMISTRY",
    "LBORRES": 4.01,
    "LBORRESU": "g/dL",
    "LBSTRESN": 4.01,
    "LBSTRESU": "g/dL",
    "LBSTNRLO": 3.5,
    "LBSTNRHI": 5,
    "LBNRIND": "NORMAL",
    "LBBLFL": "",
    "VISITNUM": 2,
    "VISIT": "BASELINE",
    "VISITDY": 1,
    "LBDTC": "2013-06-27",
    "LBDY": 1
  },
  {
    "STUDYID": "CDISCPILOT01",
    "DOMAIN": "LB",
    "USUBJID": "01-701-006",
    "LBSEQ": 27,
    "LBTESTCD": "CREAT",
    "LBTEST": "Creatinine",
    "LBCAT": "CHEMISTRY",
    "LBORRES": 0.42,
    "LBORRESU": "mg/dL",
    "LBSTRESN": 0.42,
    "LBSTRESU": "mg/dL",
    "LBSTNRLO": 0.7,
    "LBSTNRHI": 1.3,
    "LBNRIND": "LOW",
    "LBBLFL": "",
    "VISITNUM": 2,
    "VISIT": "BASELINE",
    "VISITDY": 1,
    "LBDTC": "2013-06-28",
    "LBDY": 1
  },
  {
    "STUDYID": "CDISCPILOT01",
    "DOMAIN": "LB",
    "USUBJID": "01-701-006",
    "LBSEQ": 28,
    "LBTESTCD": "BUN",
    "LBTEST": "Blood Urea Nitrogen",
    "LBCAT": "CHEMISTRY",
    "LBORRES": 16.92,
    "LBORRESU": "mg/dL",
    "LBSTRESN": 16.92,
    "LBSTRESU": "mg/dL",
    "LBSTNRLO": 8,
    "LBSTNRHI": 23,
    "LBNRIND": "NORMAL",
    "LBBLFL": "",
    "VISITNUM": 2,
    "VISIT": "BASELINE",
    "VISITDY": 1,
    "LBDTC": "2013-06-27",
    "LBDY": 1
  },
  {
    "STUDYID": "CDISCPILOT01",
    "DOMAIN": "LB",
    "USUBJID": "01-701-006",
    "LBSEQ": 29,
    "LBTESTCD": "SODIUM",
    "LBTEST": "Sodium",
    "LBCAT": "CHEMISTRY",
    "LBORRES": 136.13,
    "LBORRESU": "mmol/L",
    "LBSTRESN": 136.13,
    "LBSTRESU": "mmol/L",
    "LBSTNRLO": 136,
    "LBSTNRHI": 145,
    "LBNRIND": "NORMAL",
    "LBBLFL": "",
    "VISITNUM": 2,
    "VISIT": "BASELINE",
    "VISITDY": 1,
    "LBDTC": "2013-06-28",
    "LBDY": 1
  },
  {
    "STUDYID": "CDISCPILOT01",
    "DOMAIN": "LB",
    "USUBJID": "01-701-006",
    "LBSEQ": 30,
    "LBTESTCD": "POTASSIUM",
    "LBTEST": "Potassium",
    "LBCAT": "CHEMISTRY",
    "LBORRES": 3.89,
    "LBORRESU": "mmol/L",
    "LBSTRESN": 3.89,
    "LBSTRESU": "mmol/L",
    "LBSTNRLO": 3.5,
    "LBSTNRHI": 5,
    "LBNRIND": "NORMAL",
    "LBBLFL": "",
    "VISITNUM": 2,
    "VISIT": "BASELINE",
    "VISITDY": 1,
    "LBDTC": "2013-06-28",
    "LBDY": 1
  },
  {
    "STUDYID": "CDISCPILOT01",
    "DOMAIN": "LB",
    "USUBJID": "01-701-006",
    "LBSEQ": 31,
    "LBTESTCD": "CHLORIDE",
    "LBTEST": "Chloride",
    "LBCAT": "CHEMISTRY",
    "LBORRES": 101.7,
    "LBORRESU": "mmol/L",
    "LBSTRESN": 101.7,
    "LBSTRESU": "mmol/L",
    "LBSTNRLO": 98,
    "LBSTNRHI": 106,
    "LBNRIND": "NORMAL",
    "LBBLFL": "",
    "VISITNUM": 2,
    "VISIT": "BASELINE",
    "VISITDY": 1,
    "LBDTC": "2013-06-27",
    "LBDY": 1
  },
  {
    "STUDYID": "CDISCPILOT01",
    "DOMAIN": "LB",
    "USUBJID": "01-701-006",
    "LBSEQ": 32,
    "LBTESTCD": "GLUC",
    "LBTEST": "Glucose",
    "LBCAT": "CHEMISTRY",
    "LBORRES": 109.82,
    "LBORRESU": "mg/dL",
    "LBSTRESN": 109.82,
    "LBSTRESU": "mg/dL",
    "LBSTNRLO": 70,
    "LBSTNRHI": 110,
    "LBNRIND": "NORMAL",
    "LBBLFL": "",
    "VISITNUM": 2,
    "VISIT": "BASELINE",
    "VISITDY": 1,
    "LBDTC": "2013-06-27",
    "LBDY": 1
  },
  {
    "STUDYID": "CDISCPILOT01",
    "DOMAIN": "LB",
    "USUBJID": "01-701-006",
    "LBSEQ": 33,
    "LBTESTCD": "HGB",
    "LBTEST": "Hemoglobin",
    "LBCAT": "HEMATOLOGY",
    "LBORRES": 12.76,
    "LBORRESU": "g/dL",
    "LBSTRESN": 12.76,
    "LBSTRESU": "g/dL",
    "LBSTNRLO": 12,
    "LBSTNRHI": 15.5,
    "LBNRIND": "NORMAL",
    "LBBLFL": "",
    "VISITNUM": 5,
    "VISIT": "WEEK 8",
    "VISITDY": 57,
    "LBDTC": "2013-08-21",
    "LBDY": 57
  },
  {
    "STUDYID": "CDISCPILOT01",
    "DOMAIN": "LB",
    "USUBJID": "01-701-006",
    "LBSEQ": 34,
    "LBTESTCD": "WBC",
    "LBTEST": "White Blood Cells",
    "LBCAT": "HEMATOLOGY",
    "LBORRES": 8.86,
    "LBORRESU": "10^9/L",
    "LBSTRESN": 8.86,
    "LBSTRESU": "10^9/L",
    "LBSTNRLO": 4,
    "LBSTNRHI": 11,
    "LBNRIND": "NORMAL",
    "LBBLFL": "",
    "VISITNUM": 5,
    "VISIT": "WEEK 8",
    "VISITDY": 57,
    "LBDTC": "2013-08-22",
    "LBDY": 57
  },
  {
    "STUDYID": "CDISCPILOT01",
    "DOMAIN": "LB",
    "USUBJID": "01-701-006",
    "LBSEQ": 35,
    "LBTESTCD": "RBC",
    "LBTEST": "Red Blood Cells",
    "LBCAT": "HEMATOLOGY",
    "LBORRES": 4.53,
    "LBORRESU": "10^12/L",
    "LBSTRESN": 4.53,
    "LBSTRESU": "10^12/L",
    "LBSTNRLO": 4,
    "LBSTNRHI": 5,
    "LBNRIND": "NORMAL",
    "LBBLFL": "",
    "VISITNUM": 5,
    "VISIT": "WEEK 8",
    "VISITDY": 57,
    "LBDTC": "2013-08-21",
    "LBDY": 57
  },
  {
    "STUDYID": "CDISCPILOT01",
    "DOMAIN": "LB",
    "USUBJID": "01-701-006",
    "LBSEQ": 36,
    "LBTESTCD": "PLT",
    "LBTEST": "Platelets",
    "LBCAT": "HEMATOLOGY",
    "LBORRES": 246.84,
    "LBORRESU": "10^9/L",
    "LBSTRESN": 246.84,
    "LBSTRESU": "10^9/L",
    "LBSTNRLO": 150,
    "LBSTNRHI": 400,
    "LBNRIND": "NORMAL",
    "LBBLFL": "",
    "VISITNUM": 5,
    "VISIT": "WEEK 8",
    "VISITDY": 57,
    "LBDTC": "2013-08-23",
    "LBDY": 57
  },
  {
    "STUDYID": "CDISCPILOT01",
    "DOMAIN": "LB",
    "USUBJID": "01-701-006",
    "LBSEQ": 37,
    "LBTESTCD": "HCT",
    "LBTEST": "Hematocrit",
    "LBCAT": "HEMATOLOGY",
    "LBORRES": 42.9,
    "LBORRESU": "%",
    "LBSTRESN": 42.9,
    "LBSTRESU": "%",
    "LBSTNRLO": 36,
    "LBSTNRHI": 44,
    "LBNRIND": "NORMAL",
    "LBBLFL": "",
    "VISITNUM": 5,
    "VISIT": "WEEK 8",
    "VISITDY": 57,
    "LBDTC": "2013-08-23",
    "LBDY": 57
  },
  {
    "STUDYID": "CDISCPILOT01",
    "DOMAIN": "LB",
    "USUBJID": "01-701-006",
    "LBSEQ": 38,
    "LBTESTCD": "ALT",
    "LBTEST": "Alanine Aminotransferase",
    "LBCAT": "CHEMISTRY",
    "LBORRES": 14.55,
    "LBORRESU": "U/L",
    "LBSTRESN": 14.55,
    "LBSTRESU": "U/L",
    "LBSTNRLO": 7,
    "LBSTNRHI": 56,
    "LBNRIND": "NORMAL",
    "LBBLFL": "",
    "VISITNUM": 5,
    "VISIT": "WEEK 8",
    "VISITDY": 57,
    "LBDTC": "2013-08-23",
    "LBDY": 57
  },
  {
    "STUDYID": "CDISCPILOT01",
    "DOMAIN": "LB",
    "USUBJID": "01-701-006",
    "LBSEQ": 39,
    "LBTESTCD": "AST",
    "LBTEST": "Aspartate Aminotransferase",
    "LBCAT": "CHEMISTRY",
    "LBORRES": 26.72,
    "LBORRESU": "U/L",
    "LBSTRESN": 26.72,
    "LBSTRESU": "U/L",
    "LBSTNRLO": 10,
    "LBSTNRHI": 40,
    "LBNRIND": "NORMAL",
    "LBBLFL": "",
    "VISITNUM": 5,
    "VISIT": "WEEK 8",
    "VISITDY": 57,
    "LBDTC": "2013-08-23",
    "LBDY": 57
  },
  {
    "STUDYID": "CDISCPILOT01",
    "DOMAIN": "LB",
    "USUBJID": "01-701-006",
    "LBSEQ": 40,
    "LBTESTCD": "ALP",
    "LBTEST": "Alkaline Phosphatase",
    "LBCAT": "CHEMISTRY",
    "LBORRES": 82.04,
    "LBORRESU": "U/L",
    "LBSTRESN": 82.04,
    "LBSTRESU": "U/L",
    "LBSTNRLO": 44,
    "LBSTNRHI": 147,
    "LBNRIND": "NORMAL",
    "LBBLFL": "",
    "VISITNUM": 5,
    "VISIT": "WEEK 8",
    "VISITDY": 57,
    "LBDTC": "2013-08-22",
    "LBDY": 57
  },
  {
    "STUDYID": "CDISCPILOT01",
    "DOMAIN": "LB",
    "USUBJID": "01-701-006",
    "LBSEQ": 41,
    "LBTESTCD": "BILI",
    "LBTEST": "Bilirubin",
    "LBCAT": "CHEMISTRY",
    "LBORRES": 0.41,
    "LBORRESU": "mg/dL",
    "LBSTRESN": 0.41,
    "LBSTRESU": "mg/dL",
    "LBSTNRLO": 0.1,
    "LBSTNRHI": 1.2,
    "LBNRIND": "NORMAL",
    "LBBLFL": "",
    "VISITNUM": 5,
    "VISIT": "WEEK 8",
    "VISITDY": 57,
    "LBDTC": "2013-08-21",
    "LBDY": 57
  },
  {
    "STUDYID": "CDISCPILOT01",
    "DOMAIN": "LB",
    "USUBJID": "01-701-006",
    "LBSEQ": 42,
    "LBTESTCD": "ALB",
    "LBTEST": "Albumin",
    "LBCAT": "CHEMISTRY",
    "LBORRES": 4,
    "LBORRESU": "g/dL",
    "LBSTRESN": 4,
    "LBSTRESU": "g/dL",
    "LBSTNRLO": 3.5,
    "LBSTNRHI": 5,
    "LBNRIND": "NORMAL",
    "LBBLFL": "",
    "VISITNUM": 5,
    "VISIT": "WEEK 8",
    "VISITDY": 57,
    "LBDTC": "2013-08-23",
    "LBDY": 57
  },
  {
    "STUDYID": "CDISCPILOT01",
    "DOMAIN": "LB",
    "USUBJID": "01-701-006",
    "LBSEQ": 43,
    "LBTESTCD": "CREAT",
    "LBTEST": "Creatinine",
    "LBCAT": "CHEMISTRY",
    "LBORRES": 0.38,
    "LBORRESU": "mg/dL",
    "LBSTRESN": 0.38,
    "LBSTRESU": "mg/dL",
    "LBSTNRLO": 0.7,
    "LBSTNRHI": 1.3,
    "LBNRIND": "LOW",
    "LBBLFL": "",
    "VISITNUM": 5,
    "VISIT": "WEEK 8",
    "VISITDY": 57,
    "LBDTC": "2013-08-23",
    "LBDY": 57
  },
  {
    "STUDYID": "CDISCPILOT01",
    "DOMAIN": "LB",
    "USUBJID": "01-701-006",
    "LBSEQ": 44,
    "LBTESTCD": "BUN",
    "LBTEST": "Blood Urea Nitrogen",
    "LBCAT": "CHEMISTRY",
    "LBORRES": 16.22,
    "LBORRESU": "mg/dL",
    "LBSTRESN": 16.22,
    "LBSTRESU": "mg/dL",
    "LBSTNRLO": 8,
    "LBSTNRHI": 23,
    "LBNRIND": "NORMAL",
    "LBBLFL": "",
    "VISITNUM": 5,
    "VISIT": "WEEK 8",
    "VISITDY": 57,
    "LBDTC": "2013-08-22",
    "LBDY": 57
  },
  {
    "STUDYID": "CDISCPILOT01",
    "DOMAIN": "LB",
    "USUBJID": "01-701-006",
    "LBSEQ": 45,
    "LBTESTCD": "SODIUM",
    "LBTEST": "Sodium",
    "LBCAT": "CHEMISTRY",
    "LBORRES": 135.59,
    "LBORRESU": "mmol/L",
    "LBSTRESN": 135.59,
    "LBSTRESU": "mmol/L",
    "LBSTNRLO": 136,
    "LBSTNRHI": 145,
    "LBNRIND": "LOW",
    "LBBLFL": "",
    "VISITNUM": 5,
    "VISIT": "WEEK 8",
    "VISITDY": 57,
    "LBDTC": "2013-08-23",
    "LBDY": 57
  },
  {
    "STUDYID": "CDISCPILOT01",
    "DOMAIN": "LB",
    "USUBJID": "01-701-006",
    "LBSEQ": 46,
    "LBTESTCD": "POTASSIUM",
    "LBTEST": "Potassium",
    "LBCAT": "CHEMISTRY",
    "LBORRES": 3.91,
    "LBORRESU": "mmol/L",
    "LBSTRESN": 3.91,
    "LBSTRESU": "mmol/L",
    "LBSTNRLO": 3.5,
    "LBSTNRHI": 5,
    "LBNRIND": "NORMAL",
    "LBBLFL": "",
    "VISITNUM": 5,
    "VISIT": "WEEK 8",
    "VISITDY": 57,
    "LBDTC": "2013-08-22",
    "LBDY": 57
  },
  {
    "STUDYID": "CDISCPILOT01",
    "DOMAIN": "LB",
    "USUBJID": "01-701-006",
    "LBSEQ": 47,
    "LBTESTCD": "CHLORIDE",
    "LBTEST": "Chloride",
    "LBCAT": "CHEMISTRY",
    "LBORRES": 101.97,
    "LBORRESU": "mmol/L",
    "LBSTRESN": 101.97,
    "LBSTRESU": "mmol/L",
    "LBSTNRLO": 98,
    "LBSTNRHI": 106,
    "LBNRIND": "NORMAL",
    "LBBLFL": "",
    "VISITNUM": 5,
    "VISIT": "WEEK 8",
    "VISITDY": 57,
    "LBDTC": "2013-08-23",
    "LBDY": 57
  },
  {
    "STUDYID": "CDISCPILOT01",
    "DOMAIN": "LB",
    "USUBJID": "01-701-006",
    "LBSEQ": 48,
    "LBTESTCD": "GLUC",
    "LBTEST": "Glucose",
    "LBCAT": "CHEMISTRY",
    "LBORRES": 111.29,
    "LBORRESU": "mg/dL",
    "LBSTRESN": 111.29,
    "LBSTRESU": "mg/dL",
    "LBSTNRLO": 70,
    "LBSTNRHI": 110,
    "LBNRIND": "HIGH",
    "LBBLFL": "",
    "VISITNUM": 5,
    "VISIT": "WEEK 8",
    "VISITDY": 57,
    "LBDTC": "2013-08-22",
    "LBDY": 57
  },
  {
    "STUDYID": "CDISCPILOT01",
    "DOMAIN": "LB",
    "USUBJID": "01-701-006",
    "LBSEQ": 49,
    "LBTESTCD": "HGB",
    "LBTEST": "Hemoglobin",
    "LBCAT": "HEMATOLOGY",
    "LBORRES": 12.66,
    "LBORRESU": "g/dL",
    "LBSTRESN": 12.66,
    "LBSTRESU": "g/dL",
    "LBSTNRLO": 12,
    "LBSTNRHI": 15.5,
    "LBNRIND": "NORMAL",
    "LBBLFL": "",
    "VISITNUM": 7,
    "VISIT": "WEEK 16",
    "VISITDY": 113,
    "LBDTC": "2013-10-17",
    "LBDY": 113
  },
  {
    "STUDYID": "CDISCPILOT01",
    "DOMAIN": "LB",
    "USUBJID": "01-701-006",
    "LBSEQ": 50,
    "LBTESTCD": "WBC",
    "LBTEST": "White Blood Cells",
    "LBCAT": "HEMATOLOGY",
    "LBORRES": 9.11,
    "LBORRESU": "10^9/L",
    "LBSTRESN": 9.11,
    "LBSTRESU": "10^9/L",
    "LBSTNRLO": 4,
    "LBSTNRHI": 11,
    "LBNRIND": "NORMAL",
    "LBBLFL": "",
    "VISITNUM": 7,
    "VISIT": "WEEK 16",
    "VISITDY": 113,
    "LBDTC": "2013-10-18",
    "LBDY": 113
  },
  {
    "STUDYID": "CDISCPILOT01",
    "DOMAIN": "LB",
    "USUBJID": "01-701-006",
    "LBSEQ": 51,
    "LBTESTCD": "RBC",
    "LBTEST": "Red Blood Cells",
    "LBCAT": "HEMATOLOGY",
    "LBORRES": 4.39,
    "LBORRESU": "10^12/L",
    "LBSTRESN": 4.39,
    "LBSTRESU": "10^12/L",
    "LBSTNRLO": 4,
    "LBSTNRHI": 5,
    "LBNRIND": "NORMAL",
    "LBBLFL": "",
    "VISITNUM": 7,
    "VISIT": "WEEK 16",
    "VISITDY": 113,
    "LBDTC": "2013-10-18",
    "LBDY": 113
  },
  {
    "STUDYID": "CDISCPILOT01",
    "DOMAIN": "LB",
    "USUBJID": "01-701-006",
    "LBSEQ": 52,
    "LBTESTCD": "PLT",
    "LBTEST": "Platelets",
    "LBCAT": "HEMATOLOGY",
    "LBORRES": 228.82,
    "LBORRESU": "10^9/L",
    "LBSTRESN": 228.82,
    "LBSTRESU": "10^9/L",
    "LBSTNRLO": 150,
    "LBSTNRHI": 400,
    "LBNRIND": "NORMAL",
    "LBBLFL": "",
    "VISITNUM": 7,
    "VISIT": "WEEK 16",
    "VISITDY": 113,
    "LBDTC": "2013-10-18",
    "LBDY": 113
  },
  {
    "STUDYID": "CDISCPILOT01",
    "DOMAIN": "LB",
    "USUBJID": "01-701-006",
    "LBSEQ": 53,
    "LBTESTCD": "HCT",
    "LBTEST": "Hematocrit",
    "LBCAT": "HEMATOLOGY",
    "LBORRES": 44.7,
    "LBORRESU": "%",
    "LBSTRESN": 44.7,
    "LBSTRESU": "%",
    "LBSTNRLO": 36,
    "LBSTNRHI": 44,
    "LBNRIND": "HIGH",
    "LBBLFL": "",
    "VISITNUM": 7,
    "VISIT": "WEEK 16",
    "VISITDY": 113,
    "LBDTC": "2013-10-17",
    "LBDY": 113
  },
  {
    "STUDYID": "CDISCPILOT01",
    "DOMAIN": "LB",
    "USUBJID": "01-701-006",
    "LBSEQ": 54,
    "LBTESTCD": "ALT",
    "LBTEST": "Alanine Aminotransferase",
    "LBCAT": "CHEMISTRY",
    "LBORRES": 12.69,
    "LBORRESU": "U/L",
    "LBSTRESN": 12.69,
    "LBSTRESU": "U/L",
    "LBSTNRLO": 7,
    "LBSTNRHI": 56,
    "LBNRIND": "NORMAL",
    "LBBLFL": "",
    "VISITNUM": 7,
    "VISIT": "WEEK 16",
    "VISITDY": 113,
    "LBDTC": "2013-10-17",
    "LBDY": 113
  },
  {
    "STUDYID": "CDISCPILOT01",
    "DOMAIN": "LB",
    "USUBJID": "01-701-006",
    "LBSEQ": 55,
    "LBTESTCD": "AST",
    "LBTEST": "Aspartate Aminotransferase",
    "LBCAT": "CHEMISTRY",
    "LBORRES": 26.43,
    "LBORRESU": "U/L",
    "LBSTRESN": 26.43,
    "LBSTRESU": "U/L",
    "LBSTNRLO": 10,
    "LBSTNRHI": 40,
    "LBNRIND": "NORMAL",
    "LBBLFL": "",
    "VISITNUM": 7,
    "VISIT": "WEEK 16",
    "VISITDY": 113,
    "LBDTC": "2013-10-17",
    "LBDY": 113
  },
  {
    "STUDYID": "CDISCPILOT01",
    "DOMAIN": "LB",
    "USUBJID": "01-701-006",
    "LBSEQ": 56,
    "LBTESTCD": "ALP",
    "LBTEST": "Alkaline Phosphatase",
    "LBCAT": "CHEMISTRY",
    "LBORRES": 85.1,
    "LBORRESU": "U/L",
    "LBSTRESN": 85.1,
    "LBSTRESU": "U/L",
    "LBSTNRLO": 44,
    "LBSTNRHI": 147,
    "LBNRIND": "NORMAL",
    "LBBLFL": "",
    "VISITNUM": 7,
    "VISIT": "WEEK 16",
    "VISITDY": 113,
    "LBDTC": "2013-10-16",
    "LBDY": 113
  },
  {
    "STUDYID": "CDISCPILOT01",
    "DOMAIN": "LB",
    "USUBJID": "01-701-006",
    "LBSEQ": 57,
    "LBTESTCD": "BILI",
    "LBTEST": "Bilirubin",
    "LBCAT": "CHEMISTRY",
    "LBORRES": 0.34,
    "LBORRESU": "mg/dL",
    "LBSTRESN": 0.34,
    "LBSTRESU": "mg/dL",
    "LBSTNRLO": 0.1,
    "LBSTNRHI": 1.2,
    "LBNRIND": "NORMAL",
    "LBBLFL": "",
    "VISITNUM": 7,
    "VISIT": "WEEK 16",
    "VISITDY": 113,
    "LBDTC": "2013-10-17",
    "LBDY": 113
  },
  {
    "STUDYID": "CDISCPILOT01",
    "DOMAIN": "LB",
    "USUBJID": "01-701-006",
    "LBSEQ": 58,
    "LBTESTCD": "ALB",
    "LBTEST": "Albumin",
    "LBCAT": "CHEMISTRY",
    "LBORRES": 4.07,
    "LBORRESU": "g/dL",
    "LBSTRESN": 4.07,
    "LBSTRESU": "g/dL",
    "LBSTNRLO": 3.5,
    "LBSTNRHI": 5,
    "LBNRIND": "NORMAL",
    "LBBLFL": "",
    "VISITNUM": 7,
    "VISIT": "WEEK 16",
    "VISITDY": 113,
    "LBDTC": "2013-10-17",
    "LBDY": 113
  },
  {
    "STUDYID": "CDISCPILOT01",
    "DOMAIN": "LB",
    "USUBJID": "01-701-006",
    "LBSEQ": 59,
    "LBTESTCD": "CREAT",
    "LBTEST": "Creatinine",
    "LBCAT": "CHEMISTRY",
    "LBORRES": 0.3,
