[
  {
    "STUDYID": "CDISCPILOT01",
    "USUBJID": "01-701-001",
    "TRTP": "Xanomeline Low Dose",
    "TRTPN": 1,
    "PARAMCD": "ALB",
    "PARAM": "Albumin ( g/dL )",
    "AVAL": 3.79,
    "BASE": 3.81,
    "CHG": -0.02,
    "PCHG": -0.5249,
    "A1LO": 3.5,
    "A1HI": 5,
    "ANRIND": "NORMAL",
    "BNRIND": "NORMAL",
    "SHIFT1": "NORMAL -> NORMAL",
    "ADT": "2013-08-13",
    "ADY": 57,
    "AVISIT": "WEEK 8",
    "AVISITN": 5,
    "ABLFL": "",
    "ANL01FL": "Y",
    "SAFFL": "Y"
  },
  {
    "STUDYID": "CDISCPILOT01",
    "USUBJID": "01-701-001",
    "TRTP": "Xanomeline Low Dose",
    "TRTPN": 1,
    "PARAMCD": "ALB",
    "PARAM": "Albumin ( g/dL )",
    "AVAL": 3.81,
    "BASE": 3.81,
    "CHG": 0,
    "PCHG": 0,
    "A1LO": 3.5,
    "A1HI": 5,
    "ANRIND": "NORMAL",
    "BNRIND": "NORMAL",
    "SHIFT1": "NORMAL -> NORMAL",
    "ADT": "2013-06-11",
    "ADY": -7,
    "AVISIT": "SCREENING",
    "AVISITN": 1,
    "ABLFL": "Y",
    "ANL01FL": "Y",
    "SAFFL": "Y"
  },
  {
    "STUDYID": "CDISCPILOT01",
    "USUBJID": "01-701-001",
    "TRTP": "Xanomeline Low Dose",
    "TRTPN": 1,
    "PARAMCD": "ALB",
    "PARAM": "Albumin ( g/dL )",
    "AVAL": 3.77,
    "BASE": 3.81,
    "CHG": -0.04,
    "PCHG": -1.0499,
    "A1LO": 3.5,
    "A1HI": 5,
    "ANRIND": "NORMAL",
    "BNRIND": "NORMAL",
    "SHIFT1": "NORMAL -> NORMAL",
    "ADT": "2013-10-10",
    "ADY": 115,
    "AVISIT": "WEEK 16",
    "AVISITN": 7,
    "ABLFL": "",
    "ANL01FL": "Y",
    "SAFFL": "Y"
  },
  {
    "STUDYID": "CDISCPILOT01",
    "USUBJID": "01-701-001",
    "TRTP": "Xanomeline Low Dose",
    "TRTPN": 1,
    "PARAMCD": "ALB",
    "PARAM": "Albumin ( g/dL )",
    "AVAL": 3.82,
    "BASE": 3.81,
    "CHG": 0.01,
    "PCHG": 0.2625,
    "A1LO": 3.5,
    "A1HI": 5,
    "ANRIND": "NORMAL",
    "BNRIND": "NORMAL",
    "SHIFT1": "NORMAL -> NORMAL",
    "ADT": "2013-12-05",
    "ADY": 171,
    "AVISIT": "WEEK 24",
    "AVISITN": 9,
    "ABLFL": "",
    "ANL01FL": "Y",
    "SAFFL": "Y"
  },
  {
    "STUDYID": "CDISCPILOT01",
    "USUBJID": "01-701-001",
    "TRTP": "Xanomeline Low Dose",
    "TRTPN": 1,
    "PARAMCD": "ALB",
    "PARAM": "Albumin ( g/dL )",
    "AVAL": 3.82,
    "BASE": 3.81,
    "CHG": 0.01,
    "PCHG": 0.2625,
    "A1LO": 3.5,
    "A1HI": 5,
    "ANRIND": "NORMAL",
    "BNRIND": "NORMAL",
    "SHIFT1": "NORMAL -> NORMAL",
    "ADT": "2013-06-19",
    "ADY": 2,
    "AVISIT": "BASELINE",
    "AVISITN": 2,
    "ABLFL": "",
    "ANL01FL": "Y",
    "SAFFL": "Y"
  },
  {
    "STUDYID": "CDISCPILOT01",
    "USUBJID": "01-701-001",
    "TRTP": "Xanomeline Low Dose",
    "TRTPN": 1,
    "PARAMCD": "ALP",
    "PARAM": "Alkaline Phosphatase ( U/L )",
    "AVAL": 86.01,
    "BASE": 85.89,
    "CHG": 0.12,
    "PCHG": 0.1397,
    "A1LO": 44,
    "A1HI": 147,
    "ANRIND": "NORMAL",
    "BNRIND": "NORMAL",
    "SHIFT1": "NORMAL -> NORMAL",
    "ADT": "2013-10-10",
    "ADY": 115,
    "AVISIT": "WEEK 16",
    "AVISITN": 7,
    "ABLFL": "",
    "ANL01FL": "Y",
    "SAFFL": "Y"
  },
  {
    "STUDYID": "CDISCPILOT01",
    "USUBJID": "01-701-001",
    "TRTP": "Xanomeline Low Dose",
    "TRTPN": 1,
    "PARAMCD": "ALP",
    "PARAM": "Alkaline Phosphatase ( U/L )",
    "AVAL": 86.43,
    "BASE": 85.89,
    "CHG": 0.54,
    "PCHG": 0.6287,
    "A1LO": 44,
    "A1HI": 147,
    "ANRIND": "NORMAL",
    "BNRIND": "NORMAL",
    "SHIFT1": "NORMAL -> NORMAL",
    "ADT": "2013-12-05",
    "ADY": 171,
    "AVISIT": "WEEK 24",
    "AVISITN": 9,
    "ABLFL": "",
    "ANL01FL": "Y",
    "SAFFL": "Y"
  },
  {
    "STUDYID": "CDISCPILOT01",
    "USUBJID": "01-701-001",
    "TRTP": "Xanomeline Low Dose",
    "TRTPN": 1,
    "PARAMCD": "ALP",
    "PARAM": "Alkaline Phosphatase ( U/L )",
    "AVAL": 85.77,
    "BASE": 85.89,
    "CHG": -0.12,
    "PCHG": -0.1397,
    "A1LO": 44,
    "A1HI": 147,
    "ANRIND": "NORMAL",
    "BNRIND": "NORMAL",
    "SHIFT1": "NORMAL -> NORMAL",
    "ADT": "2013-06-18",
    "ADY": 1,
    "AVISIT": "BASELINE",
    "AVISITN": 2,
    "ABLFL": "",
    "ANL01FL": "Y",
    "SAFFL": "Y"
  },
  {
    "STUDYID": "CDISCPILOT01",
    "USUBJID": "01-701-001",
    "TRTP": "Xanomeline Low Dose",
    "TRTPN": 1,
    "PARAMCD": "ALP",
    "PARAM": "Alkaline Phosphatase ( U/L )",
    "AVAL": 85.89,
    "BASE": 85.89,
    "CHG": 0,
    "PCHG": 0,
    "A1LO": 44,
    "A1HI": 147,
    "ANRIND": "NORMAL",
    "BNRIND": "NORMAL",
    "SHIFT1": "NORMAL -> NORMAL",
    "ADT": "2013-06-10",
    "ADY": -8,
    "AVISIT": "SCREENING",
    "AVISITN": 1,
    "ABLFL": "Y",
    "ANL01FL": "Y",
    "SAFFL": "Y"
  },
  {
    "STUDYID": "CDISCPILOT01",
    "USUBJID": "01-701-001",
    "TRTP": "Xanomeline Low Dose",
    "TRTPN": 1,
    "PARAMCD": "ALP",
    "PARAM": "Alkaline Phosphatase ( U/L )",
    "AVAL": 87.78,
    "BASE": 85.89,
    "CHG": 1.89,
    "PCHG": 2.2005,
    "A1LO": 44,
    "A1HI": 147,
    "ANRIND": "NORMAL",
    "BNRIND": "NORMAL",
    "SHIFT1": "NORMAL -> NORMAL",
    "ADT": "2013-08-15",
    "ADY": 59,
    "AVISIT": "WEEK 8",
    "AVISITN": 5,
    "ABLFL": "",
    "ANL01FL": "Y",
    "SAFFL": "Y"
  },
  {
    "STUDYID": "CDISCPILOT01",
    "USUBJID": "01-701-001",
    "TRTP": "Xanomeline Low Dose",
    "TRTPN": 1,
    "PARAMCD": "ALT",
    "PARAM": "Alanine Aminotransferase ( U/L )",
    "AVAL": 22.59,
    "BASE": 22.59,
    "CHG": 0,
    "PCHG": 0,
    "A1LO": 7,
    "A1HI": 56,
    "ANRIND": "NORMAL",
    "BNRIND": "NORMAL",
    "SHIFT1": "NORMAL -> NORMAL",
    "ADT": "2013-06-11",
    "ADY": -7,
    "AVISIT": "SCREENING",
    "AVISITN": 1,
    "ABLFL": "Y",
    "ANL01FL": "Y",
    "SAFFL": "Y"
  },
  {
    "STUDYID": "CDISCPILOT01",
    "USUBJID": "01-701-001",
    "TRTP": "Xanomeline Low Dose",
    "TRTPN": 1,
    "PARAMCD": "ALT",
    "PARAM": "Alanine Aminotransferase ( U/L )",
    "AVAL": 24.16,
    "BASE": 22.59,
    "CHG": 1.57,
    "PCHG": 6.95,
    "A1LO": 7,
    "A1HI": 56,
    "ANRIND": "NORMAL",
    "BNRIND": "NORMAL",
    "SHIFT1": "NORMAL -> NORMAL",
    "ADT": "2013-10-09",
    "ADY": 114,
    "AVISIT": "WEEK 16",
    "AVISITN": 7,
    "ABLFL": "",
    "ANL01FL": "Y",
    "SAFFL": "Y"
  },
  {
    "STUDYID": "CDISCPILOT01",
    "USUBJID": "01-701-001",
    "TRTP": "Xanomeline Low Dose",
    "TRTPN": 1,
    "PARAMCD": "ALT",
    "PARAM": "Alanine Aminotransferase ( U/L )",
    "AVAL": 21.97,
    "BASE": 22.59,
    "CHG": -0.62,
    "PCHG": -2.7446,
    "A1LO": 7,
    "A1HI": 56,
    "ANRIND": "NORMAL",
    "BNRIND": "NORMAL",
    "SHIFT1": "NORMAL -> NORMAL",
    "ADT": "2013-12-04",
    "ADY": 170,
    "AVISIT": "WEEK 24",
    "AVISITN": 9,
    "ABLFL": "",
    "ANL01FL": "Y",
    "SAFFL": "Y"
  },
  {
    "STUDYID": "CDISCPILOT01",
    "USUBJID": "01-701-001",
    "TRTP": "Xanomeline Low Dose",
    "TRTPN": 1,
    "PARAMCD": "ALT",
    "PARAM": "Alanine Aminotransferase ( U/L )",
    "AVAL": 24.6,
    "BASE": 22.59,
    "CHG": 2.01,
    "PCHG": 8.8977,
    "A1LO": 7,
    "A1HI": 56,
    "ANRIND": "NORMAL",
    "BNRIND": "NORMAL",
    "SHIFT1": "NORMAL -> NORMAL",
    "ADT": "2013-06-18",
    "ADY": 1,
    "AVISIT": "BASELINE",
    "AVISITN": 2,
    "ABLFL": "",
    "ANL01FL": "Y",
    "SAFFL": "Y"
  },
  {
    "STUDYID": "CDISCPILOT01",
    "USUBJID": "01-701-001",
    "TRTP": "Xanomeline Low Dose",
    "TRTPN": 1,
    "PARAMCD": "ALT",
    "PARAM": "Alanine Aminotransferase ( U/L )",
    "AVAL": 22.82,
    "BASE": 22.59,
    "CHG": 0.23,
    "PCHG": 1.0181,
    "A1LO": 7,
    "A1HI": 56,
    "ANRIND": "NORMAL",
    "BNRIND": "NORMAL",
    "SHIFT1": "NORMAL -> NORMAL",
    "ADT": "2013-08-14",
    "ADY": 58,
    "AVISIT": "WEEK 8",
    "AVISITN": 5,
    "ABLFL": "",
    "ANL01FL": "Y",
    "SAFFL": "Y"
  },
  {
    "STUDYID": "CDISCPILOT01",
    "USUBJID": "01-701-001",
    "TRTP": "Xanomeline Low Dose",
    "TRTPN": 1,
    "PARAMCD": "AST",
    "PARAM": "Aspartate Aminotransferase ( U/L )",
    "AVAL": 34.21,
    "BASE": 33.78,
    "CHG": 0.43,
    "PCHG": 1.2729,
    "A1LO": 10,
    "A1HI": 40,
    "ANRIND": "NORMAL",
    "BNRIND": "NORMAL",
    "SHIFT1": "NORMAL -> NORMAL",
    "ADT": "2013-10-08",
    "ADY": 113,
    "AVISIT": "WEEK 16",
    "AVISITN": 7,
    "ABLFL": "",
    "ANL01FL": "Y",
    "SAFFL": "Y"
  },
  {
    "STUDYID": "CDISCPILOT01",
    "USUBJID": "01-701-001",
    "TRTP": "Xanomeline Low Dose",
    "TRTPN": 1,
    "PARAMCD": "AST",
    "PARAM": "Aspartate Aminotransferase ( U/L )",
    "AVAL": 33.78,
    "BASE": 33.78,
    "CHG": 0,
    "PCHG": 0,
    "A1LO": 10,
    "A1HI": 40,
    "ANRIND": "NORMAL",
    "BNRIND": "NORMAL",
    "SHIFT1": "NORMAL -> NORMAL",
    "ADT": "2013-06-12",
    "ADY": -6,
    "AVISIT": "SCREENING",
    "AVISITN": 1,
    "ABLFL": "Y",
    "ANL01FL": "Y",
    "SAFFL": "Y"
  },
  {
    "STUDYID": "CDISCPILOT01",
    "USUBJID": "01-701-001",
    "TRTP": "Xanomeline Low Dose",
    "TRTPN": 1,
    "PARAMCD": "AST",
    "PARAM": "Aspartate Aminotransferase ( U/L )",
    "AVAL": 33.23,
    "BASE": 33.78,
    "CHG": -0.55,
    "PCHG": -1.6282,
    "A1LO": 10,
    "A1HI": 40,
    "ANRIND": "NORMAL",
    "BNRIND": "NORMAL",
    "SHIFT1": "NORMAL -> NORMAL",
    "ADT": "2013-06-20",
    "ADY": 3,
    "AVISIT": "BASELINE",
    "AVISITN": 2,
    "ABLFL": "",
    "ANL01FL": "Y",
    "SAFFL": "Y"
  },
  {
    "STUDYID": "CDISCPILOT01",
    "USUBJID": "01-701-001",
    "TRTP": "Xanomeline Low Dose",
    "TRTPN": 1,
    "PARAMCD": "AST",
    "PARAM": "Aspartate Aminotransferase ( U/L )",
    "AVAL": 34.57,
    "BASE": 33.78,
    "CHG": 0.79,
    "PCHG": 2.3387,
    "A1LO": 10,
    "A1HI": 40,
    "ANRIND": "NORMAL",
    "BNRIND": "NORMAL",
    "SHIFT1": "NORMAL -> NORMAL",
    "ADT": "2013-12-04",
    "ADY": 170,
    "AVISIT": "WEEK 24",
    "AVISITN": 9,
    "ABLFL": "",
    "ANL01FL": "Y",
    "SAFFL": "Y"
  },
  {
    "STUDYID": "CDISCPILOT01",
    "USUBJID": "01-701-001",
    "TRTP": "Xanomeline Low Dose",
    "TRTPN": 1,
    "PARAMCD": "AST",
    "PARAM": "Aspartate Aminotransferase ( U/L )",
    "AVAL": 35.69,
    "BASE": 33.78,
    "CHG": 1.91,
    "PCHG": 5.6542,
    "A1LO": 10,
    "A1HI": 40,
    "ANRIND": "NORMAL",
    "BNRIND": "NORMAL",
    "SHIFT1": "NORMAL -> NORMAL",
    "ADT": "2013-08-15",
    "ADY": 59,
    "AVISIT": "WEEK 8",
    "AVISITN": 5,
    "ABLFL": "",
    "ANL01FL": "Y",
    "SAFFL": "Y"
  },
  {
    "STUDYID": "CDISCPILOT01",
    "USUBJID": "01-701-001",
    "TRTP": "Xanomeline Low Dose",
    "TRTPN": 1,
    "PARAMCD": "BILI",
    "PARAM": "Bilirubin ( mg/dL )",
    "AVAL": 0.9,
    "BASE": 0.91,
    "CHG": -0.01,
    "PCHG": -1.0989,
    "A1LO": 0.1,
    "A1HI": 1.2,
    "ANRIND": "NORMAL",
    "BNRIND": "NORMAL",
    "SHIFT1": "NORMAL -> NORMAL",
    "ADT": "2013-08-14",
    "ADY": 58,
    "AVISIT": "WEEK 8",
    "AVISITN": 5,
    "ABLFL": "",
    "ANL01FL": "Y",
    "SAFFL": "Y"
  },
  {
    "STUDYID": "CDISCPILOT01",
    "USUBJID": "01-701-001",
    "TRTP": "Xanomeline Low Dose",
    "TRTPN": 1,
    "PARAMCD": "BILI",
    "PARAM": "Bilirubin ( mg/dL )",
    "AVAL": 0.86,
    "BASE": 0.91,
    "CHG": -0.05,
    "PCHG": -5.4945,
    "A1LO": 0.1,
    "A1HI": 1.2,
    "ANRIND": "NORMAL",
    "BNRIND": "NORMAL",
    "SHIFT1": "NORMAL -> NORMAL",
    "ADT": "2013-12-04",
    "ADY": 170,
    "AVISIT": "WEEK 24",
    "AVISITN": 9,
    "ABLFL": "",
    "ANL01FL": "Y",
    "SAFFL": "Y"
  },
  {
    "STUDYID": "CDISCPILOT01",
    "USUBJID": "01-701-001",
    "TRTP": "Xanomeline Low Dose",
    "TRTPN": 1,
    "PARAMCD": "BILI",
    "PARAM": "Bilirubin ( mg/dL )",
    "AVAL": 0.88,
    "BASE": 0.91,
    "CHG": -0.03,
    "PCHG": -3.2967,
    "A1LO": 0.1,
    "A1HI": 1.2,
    "ANRIND": "NORMAL",
    "BNRIND": "NORMAL",
    "SHIFT1": "NORMAL -> NORMAL",
    "ADT": "2013-10-09",
    "ADY": 114,
    "AVISIT": "WEEK 16",
    "AVISITN": 7,
    "ABLFL": "",
    "ANL01FL": "Y",
    "SAFFL": "Y"
  },
  {
    "STUDYID": "CDISCPILOT01",
    "USUBJID": "01-701-001",
    "TRTP": "Xanomeline Low Dose",
    "TRTPN": 1,
    "PARAMCD": "BILI",
    "PARAM": "Bilirubin ( mg/dL )",
    "AVAL": 0.91,
    "BASE": 0.91,
    "CHG": 0,
    "PCHG": 0,
    "A1LO": 0.1,
    "A1HI": 1.2,
    "ANRIND": "NORMAL",
    "BNRIND": "NORMAL",
    "SHIFT1": "NORMAL -> NORMAL",
    "ADT": "2013-06-11",
    "ADY": -7,
    "AVISIT": "SCREENING",
    "AVISITN": 1,
    "ABLFL": "Y",
    "ANL01FL": "Y",
    "SAFFL": "Y"
  },
  {
    "STUDYID": "CDISCPILOT01",
    "USUBJID": "01-701-001",
    "TRTP": "Xanomeline Low Dose",
    "TRTPN": 1,
    "PARAMCD": "BILI",
    "PARAM": "Bilirubin ( mg/dL )",
    "AVAL": 0.95,
    "BASE": 0.91,
    "CHG": 0.04,
    "PCHG": 4.3956,
    "A1LO": 0.1,
    "A1HI": 1.2,
    "ANRIND": "NORMAL",
    "BNRIND": "NORMAL",
    "SHIFT1": "NORMAL -> NORMAL",
    "ADT": "2013-06-18",
    "ADY": 1,
    "AVISIT": "BASELINE",
    "AVISITN": 2,
    "ABLFL": "",
    "ANL01FL": "Y",
    "SAFFL": "Y"
  },
  {
    "STUDYID": "CDISCPILOT01",
    "USUBJID": "01-701-001",
    "TRTP": "Xanomeline Low Dose",
    "TRTPN": 1,
    "PARAMCD": "BUN",
    "PARAM": "Blood Urea Nitrogen ( mg/dL )",
    "AVAL": 12.5,
    "BASE": 13.58,
    "CHG": -1.08,
    "PCHG": -7.9529,
    "A1LO": 8,
    "A1HI": 23,
    "ANRIND": "NORMAL",
    "BNRIND": "NORMAL",
    "SHIFT1": "NORMAL -> NORMAL",
    "ADT": "2013-06-18",
    "ADY": 1,
    "AVISIT": "BASELINE",
    "AVISITN": 2,
    "ABLFL": "",
    "ANL01FL": "Y",
    "SAFFL": "Y"
  },
  {
    "STUDYID": "CDISCPILOT01",
    "USUBJID": "01-701-001",
    "TRTP": "Xanomeline Low Dose",
    "TRTPN": 1,
    "PARAMCD": "BUN",
    "PARAM": "Blood Urea Nitrogen ( mg/dL )",
    "AVAL": 12.72,
    "BASE": 13.58,
    "CHG": -0.86,
    "PCHG": -6.3328,
    "A1LO": 8,
    "A1HI": 23,
    "ANRIND": "NORMAL",
    "BNRIND": "NORMAL",
    "SHIFT1": "NORMAL -> NORMAL",
    "ADT": "2013-10-09",
    "ADY": 114,
    "AVISIT": "WEEK 16",
    "AVISITN": 7,
    "ABLFL": "",
    "ANL01FL": "Y",
    "SAFFL": "Y"
  },
  {
    "STUDYID": "CDISCPILOT01",
    "USUBJID": "01-701-001",
    "TRTP": "Xanomeline Low Dose",
    "TRTPN": 1,
    "PARAMCD": "BUN",
    "PARAM": "Blood Urea Nitrogen ( mg/dL )",
    "AVAL": 13.77,
    "BASE": 13.58,
    "CHG": 0.19,
    "PCHG": 1.3991,
    "A1LO": 8,
    "A1HI": 23,
    "ANRIND": "NORMAL",
    "BNRIND": "NORMAL",
    "SHIFT1": "NORMAL -> NORMAL",
    "ADT": "2013-08-15",
    "ADY": 59,
    "AVISIT": "WEEK 8",
    "AVISITN": 5,
    "ABLFL": "",
    "ANL01FL": "Y",
    "SAFFL": "Y"
  },
  {
    "STUDYID": "CDISCPILOT01",
    "USUBJID": "01-701-001",
    "TRTP": "Xanomeline Low Dose",
    "TRTPN": 1,
    "PARAMCD": "BUN",
    "PARAM": "Blood Urea Nitrogen ( mg/dL )",
    "AVAL": 13.79,
    "BASE": 13.58,
    "CHG": 0.21,
    "PCHG": 1.5464,
    "A1LO": 8,
    "A1HI": 23,
    "ANRIND": "NORMAL",
    "BNRIND": "NORMAL",
    "SHIFT1": "NORMAL -> NORMAL",
    "ADT": "2013-12-05",
    "ADY": 171,
    "AVISIT": "WEEK 24",
    "AVISITN": 9,
    "ABLFL": "",
    "ANL01FL": "Y",
    "SAFFL": "Y"
  },
  {
    "STUDYID": "CDISCPILOT01",
    "USUBJID": "01-701-001",
    "TRTP": "Xanomeline Low Dose",
    "TRTPN": 1,
    "PARAMCD": "BUN",
    "PARAM": "Blood Urea Nitrogen ( mg/dL )",
    "AVAL": 13.58,
    "BASE": 13.58,
    "CHG": 0,
    "PCHG": 0,
    "A1LO": 8,
    "A1HI": 23,
    "ANRIND": "NORMAL",
    "BNRIND": "NORMAL",
    "SHIFT1": "NORMAL -> NORMAL",
    "ADT": "2013-06-11",
    "ADY": -7,
    "AVISIT": "SCREENING",
    "AVISITN": 1,
    "ABLFL": "Y",
    "ANL01FL": "Y",
    "SAFFL": "Y"
  },
  {
    "STUDYID": "CDISCPILOT01",
    "USUBJID": "01-701-001",
    "TRTP": "Xanomeline Low Dose",
    "TRTPN": 1,
    "PARAMCD": "CHLORIDE",
    "PARAM": "Chloride ( mmol/L )",
    "AVAL": 99.84,
    "BASE": 99.84,
    "CHG": 0,
    "PCHG": 0,
    "A1LO": 98,
    "A1HI": 106,
    "ANRIND": "NORMAL",
    "BNRIND": "NORMAL",
    "SHIFT1": "NORMAL -> NORMAL",
    "ADT": "2013-06-12",
    "ADY": -6,
    "AVISIT": "SCREENING",
    "AVISITN": 1,
    "ABLFL": "Y",
    "ANL01FL": "Y",
    "SAFFL": "Y"
  },
  {
    "STUDYID": "CDISCPILOT01",
    "USUBJID": "01-701-001",
    "TRTP": "Xanomeline Low Dose",
    "TRTPN": 1,
    "PARAMCD": "CHLORIDE",
    "PARAM": "Chloride ( mmol/L )",
    "AVAL": 98.97,
    "BASE": 99.84,
    "CHG": -0.87,
    "PCHG": -0.8714,
    "A1LO": 98,
    "A1HI": 106,
    "ANRIND": "NORMAL",
    "BNRIND": "NORMAL",
    "SHIFT1": "NORMAL -> NORMAL",
    "ADT": "2013-08-14",
    "ADY": 58,
    "AVISIT": "WEEK 8",
    "AVISITN": 5,
    "ABLFL": "",
    "ANL01FL": "Y",
    "SAFFL": "Y"
  },
  {
    "STUDYID": "CDISCPILOT01",
    "USUBJID": "01-701-001",
    "TRTP": "Xanomeline Low Dose",
    "TRTPN": 1,
    "PARAMCD": "CHLORIDE",
    "PARAM": "Chloride ( mmol/L )",
    "AVAL": 99.97,
    "BASE": 99.84,
    "CHG": 0.13,
    "PCHG": 0.1302,
    "A1LO": 98,
    "A1HI": 106,
    "ANRIND": "NORMAL",
    "BNRIND": "NORMAL",
    "SHIFT1": "NORMAL -> NORMAL",
    "ADT": "2013-10-09",
    "ADY": 114,
    "AVISIT": "WEEK 16",
    "AVISITN": 7,
    "ABLFL": "",
    "ANL01FL": "Y",
    "SAFFL": "Y"
  },
  {
    "STUDYID": "CDISCPILOT01",
    "USUBJID": "01-701-001",
    "TRTP": "Xanomeline Low Dose",
    "TRTPN": 1,
    "PARAMCD": "CHLORIDE",
    "PARAM": "Chloride ( mmol/L )",
    "AVAL": 99.96,
    "BASE": 99.84,
    "CHG": 0.12,
    "PCHG": 0.1202,
    "A1LO": 98,
    "A1HI": 106,
    "ANRIND": "NORMAL",
    "BNRIND": "NORMAL",
    "SHIFT1": "NORMAL -> NORMAL",
    "ADT": "2013-06-18",
    "ADY": 1,
    "AVISIT": "BASELINE",
    "AVISITN": 2,
    "ABLFL": "",
    "ANL01FL": "Y",
    "SAFFL": "Y"
  },
  {
    "STUDYID": "CDISCPILOT01",
    "USUBJID": "01-701-001",
    "TRTP": "Xanomeline Low Dose",
    "TRTPN": 1,
    "PARAMCD": "CHLORIDE",
    "PARAM": "Chloride ( mmol/L )",
    "AVAL": 99.69,
    "BASE": 99.84,
    "CHG": -0.15,
    "PCHG": -0.1502,
    "A1LO": 98,
    "A1HI": 106,
    "ANRIND": "NORMAL",
    "BNRIND": "NORMAL",
    "SHIFT1": "NORMAL -> NORMAL",
    "ADT": "2013-12-05",
    "ADY": 171,
    "AVISIT": "WEEK 24",
    "AVISITN": 9,
    "ABLFL": "",
    "ANL01FL": "Y",
    "SAFFL": "Y"
  },
  {
    "STUDYID": "CDISCPILOT01",
    "USUBJID": "01-701-001",
    "TRTP": "Xanomeline Low Dose",
    "TRTPN": 1,
    "PARAMCD": "CREAT",
    "PARAM": "Creatinine ( mg/dL )",
    "AVAL": 0.92,
    "BASE": 0.99,
    "CHG": -0.07,
    "PCHG": -7.0707,
    "A1LO": 0.7,
    "A1HI": 1.3,
    "ANRIND": "NORMAL",
    "BNRIND": "NORMAL",
    "SHIFT1": "NORMAL -> NORMAL",
    "ADT": "2013-08-13",
    "ADY": 57,
    "AVISIT": "WEEK 8",
    "AVISITN": 5,
    "ABLFL": "",
    "ANL01FL": "Y",
    "SAFFL": "Y"
  },
  {
    "STUDYID": "CDISCPILOT01",
    "USUBJID": "01-701-001",
    "TRTP": "Xanomeline Low Dose",
    "TRTPN": 1,
    "PARAMCD": "CREAT",
    "PARAM": "Creatinine ( mg/dL )",
    "AVAL": 0.96,
    "BASE": 0.99,
    "CHG": -0.03,
    "PCHG": -3.0303,
    "A1LO": 0.7,
    "A1HI": 1.3,
    "ANRIND": "NORMAL",
    "BNRIND": "NORMAL",
    "SHIFT1": "NORMAL -> NORMAL",
    "ADT": "2013-10-08",
    "ADY": 113,
    "AVISIT": "WEEK 16",
    "AVISITN": 7,
    "ABLFL": "",
    "ANL01FL": "Y",
    "SAFFL": "Y"
  },
  {
    "STUDYID": "CDISCPILOT01",
    "USUBJID": "01-701-001",
    "TRTP": "Xanomeline Low Dose",
    "TRTPN": 1,
    "PARAMCD": "CREAT",
    "PARAM": "Creatinine ( mg/dL )",
    "AVAL": 0.99,
    "BASE": 0.99,
    "CHG": 0,
    "PCHG": 0,
    "A1LO": 0.7,
    "A1HI": 1.3,
    "ANRIND": "NORMAL",
    "BNRIND": "NORMAL",
    "SHIFT1": "NORMAL -> NORMAL",
    "ADT": "2013-06-10",
    "ADY": -8,
    "AVISIT": "SCREENING",
    "AVISITN": 1,
    "ABLFL": "Y",
    "ANL01FL": "Y",
    "SAFFL": "Y"
  },
  {
    "STUDYID": "CDISCPILOT01",
    "USUBJID": "01-701-001",
    "TRTP": "Xanomeline Low Dose",
    "TRTPN": 1,
    "PARAMCD": "CREAT",
    "PARAM": "Creatinine ( mg/dL )",
    "AVAL": 0.96,
    "BASE": 0.99,
    "CHG": -0.03,
    "PCHG": -3.0303,
    "A1LO": 0.7,
    "A1HI": 1.3,
    "ANRIND": "NORMAL",
    "BNRIND": "NORMAL",
    "SHIFT1": "NORMAL -> NORMAL",
    "ADT": "2013-06-19",
    "ADY": 2,
    "AVISIT": "BASELINE",
    "AVISITN": 2,
    "ABLFL": "",
    "ANL01FL": "Y",
    "SAFFL": "Y"
  },
  {
    "STUDYID": "CDISCPILOT01",
    "USUBJID": "01-701-001",
    "TRTP": "Xanomeline Low Dose",
    "TRTPN": 1,
    "PARAMCD": "CREAT",
    "PARAM": "Creatinine ( mg/dL )",
    "AVAL": 0.99,
    "BASE": 0.99,
    "CHG": 0,
    "PCHG": 0,
    "A1LO": 0.7,
    "A1HI": 1.3,
    "ANRIND": "NORMAL",
    "BNRIND": "NORMAL",
    "SHIFT1": "NORMAL -> NORMAL",
    "ADT": "2013-12-05",
    "ADY": 171,
    "AVISIT": "WEEK 24",
    "AVISITN": 9,
    "ABLFL": "",
    "ANL01FL": "Y",
    "SAFFL": "Y"
  },
  {
    "STUDYID": "CDISCPILOT01",
    "USUBJID": "01-701-001",
    "TRTP": "Xanomeline Low Dose",
    "TRTPN": 1,
    "PARAMCD": "GLUC",
    "PARAM": "Glucose ( mg/dL )",
    "AVAL": 88.68,
    "BASE": 88.68,
    "CHG": 0,
    "PCHG": 0,
    "A1LO": 70,
    "A1HI": 110,
    "ANRIND": "NORMAL",
    "BNRIND": "NORMAL",
    "SHIFT1": "NORMAL -> NORMAL",
    "ADT": "2013-06-11",
    "ADY": -7,
    "AVISIT": "SCREENING",
    "AVISITN": 1,
    "ABLFL": "Y",
    "ANL01FL": "Y",
    "SAFFL": "Y"
  },
  {
    "STUDYID": "CDISCPILOT01",
    "USUBJID": "01-701-001",
    "TRTP": "Xanomeline Low Dose",
    "TRTPN": 1,
    "PARAMCD": "GLUC",
    "PARAM": "Glucose ( mg/dL )",
    "AVAL": 87.06,
    "BASE": 88.68,
    "CHG": -1.62,
    "PCHG": -1.8268,
    "A1LO": 70,
    "A1HI": 110,
    "ANRIND": "NORMAL",
    "BNRIND": "NORMAL",
    "SHIFT1": "NORMAL -> NORMAL",
    "ADT": "2013-06-20",
    "ADY": 3,
    "AVISIT": "BASELINE",
    "AVISITN": 2,
    "ABLFL": "",
    "ANL01FL": "Y",
    "SAFFL": "Y"
  },
  {
    "STUDYID": "CDISCPILOT01",
    "USUBJID": "01-701-001",
    "TRTP": "Xanomeline Low Dose",
    "TRTPN": 1,
    "PARAMCD": "GLUC",
    "PARAM": "Glucose ( mg/dL )",
    "AVAL": 87.84,
    "BASE": 88.68,
    "CHG": -0.84,
    "PCHG": -0.9472,
    "A1LO": 70,
    "A1HI": 110,
    "ANRIND": "NORMAL",
    "BNRIND": "NORMAL",
    "SHIFT1": "NORMAL -> NORMAL",
    "ADT": "2013-10-10",
    "ADY": 115,
    "AVISIT": "WEEK 16",
    "AVISITN": 7,
    "ABLFL": "",
    "ANL01FL": "Y",
    "SAFFL": "Y"
  },
  {
    "STUDYID": "CDISCPILOT01",
    "USUBJID": "01-701-001",
    "TRTP": "Xanomeline Low Dose",
    "TRTPN": 1,
    "PARAMCD": "GLUC",
    "PARAM": "Glucose ( mg/dL )",
    "AVAL": 85.54,
    "BASE": 88.68,
    "CHG": -3.14,
    "PCHG": -3.5408,
    "A1LO": 70,
    "A1HI": 110,
    "ANRIND": "NORMAL",
    "BNRIND": "NORMAL",
    "SHIFT1": "NORMAL -> NORMAL",
    "ADT": "2013-08-13",
    "ADY": 57,
    "AVISIT": "WEEK 8",
    "AVISITN": 5,
    "ABLFL": "",
    "ANL01FL": "Y",
    "SAFFL": "Y"
  },
  {
    "STUDYID": "CDISCPILOT01",
    "USUBJID": "01-701-001",
    "TRTP": "Xanomeline Low Dose",
    "TRTPN": 1,
    "PARAMCD": "GLUC",
    "PARAM": "Glucose ( mg/dL )",
    "AVAL": 84.95,
    "BASE": 88.68,
    "CHG": -3.73,
    "PCHG": -4.2061,
    "A1LO": 70,
    "A1HI": 110,
    "ANRIND": "NORMAL",
    "BNRIND": "NORMAL",
    "SHIFT1": "NORMAL -> NORMAL",
    "ADT": "2013-12-04",
    "ADY": 170,
    "AVISIT": "WEEK 24",
    "AVISITN": 9,
    "ABLFL": "",
    "ANL01FL": "Y",
    "SAFFL": "Y"
  },
  {
    "STUDYID": "CDISCPILOT01",
    "USUBJID": "01-701-001",
    "TRTP": "Xanomeline Low Dose",
    "TRTPN": 1,
    "PARAMCD": "HCT",
    "PARAM": "Hematocrit ( % )",
    "AVAL": 40.07,
    "BASE": 40.06,
    "CHG": 0.01,
    "PCHG": 0.025,
    "A1LO": 36,
    "A1HI": 44,
    "ANRIND": "NORMAL",
    "BNRIND": "NORMAL",
    "SHIFT1": "NORMAL -> NORMAL",
    "ADT": "2013-12-04",
    "ADY": 170,
    "AVISIT": "WEEK 24",
    "AVISITN": 9,
    "ABLFL": "",
    "ANL01FL": "Y",
    "SAFFL": "Y"
  },
  {
    "STUDYID": "CDISCPILOT01",
    "USUBJID": "01-701-001",
    "TRTP": "Xanomeline Low Dose",
    "TRTPN": 1,
    "PARAMCD": "HCT",
    "PARAM": "Hematocrit ( % )",
    "AVAL": 40.06,
    "BASE": 40.06,
    "CHG": 0,
    "PCHG": 0,
    "A1LO": 36,
    "A1HI": 44,
    "ANRIND": "NORMAL",
    "BNRIND": "NORMAL",
    "SHIFT1": "NORMAL -> NORMAL",
    "ADT": "2013-06-12",
    "ADY": -6,
    "AVISIT": "SCREENING",
    "AVISITN": 1,
    "ABLFL": "Y",
    "ANL01FL": "Y",
    "SAFFL": "Y"
  },
  {
    "STUDYID": "CDISCPILOT01",
    "USUBJID": "01-701-001",
    "TRTP": "Xanomeline Low Dose",
    "TRTPN": 1,
    "PARAMCD": "HCT",
    "PARAM": "Hematocrit ( % )",
    "AVAL": 39.72,
    "BASE": 40.06,
    "CHG": -0.34,
    "PCHG": -0.8487,
    "A1LO": 36,
    "A1HI": 44,
    "ANRIND": "NORMAL",
    "BNRIND": "NORMAL",
    "SHIFT1": "NORMAL -> NORMAL",
    "ADT": "2013-08-14",
    "ADY": 58,
    "AVISIT": "WEEK 8",
    "AVISITN": 5,
    "ABLFL": "",
    "ANL01FL": "Y",
    "SAFFL": "Y"
  },
  {
    "STUDYID": "CDISCPILOT01",
    "USUBJID": "01-701-001",
    "TRTP": "Xanomeline Low Dose",
    "TRTPN": 1,
    "PARAMCD": "HCT",
    "PARAM": "Hematocrit ( % )",
    "AVAL": 40.06,
    "BASE": 40.06,
    "CHG": 0,
    "PCHG": 0,
    "A1LO": 36,
    "A1HI": 44,
    "ANRIND": "NORMAL",
    "BNRIND": "NORMAL",
    "SHIFT1": "NORMAL -> NORMAL",
    "ADT": "2013-06-20",
    "ADY": 3,
    "AVISIT": "BASELINE",
    "AVISITN": 2,
    "ABLFL": "",
    "ANL01FL": "Y",
    "SAFFL": "Y"
  },
  {
    "STUDYID": "CDISCPILOT01",
    "USUBJID": "01-701-001",
    "TRTP": "Xanomeline Low Dose",
    "TRTPN": 1,
    "PARAMCD": "HCT",
    "PARAM": "Hematocrit ( % )",
    "AVAL": 40.31,
    "BASE": 40.06,
    "CHG": 0.25,
    "PCHG": 0.6241,
    "A1LO": 36,
    "A1HI": 44,
    "ANRIND": "NORMAL",
    "BNRIND": "NORMAL",
    "SHIFT1": "NORMAL -> NORMAL",
    "ADT": "2013-10-08",
    "ADY": 113,
    "AVISIT": "WEEK 16",
    "AVISITN": 7,
    "ABLFL": "",
    "ANL01FL": "Y",
    "SAFFL": "Y"
  },
  {
    "STUDYID": "CDISCPILOT01",
    "USUBJID": "01-701-001",
    "TRTP": "Xanomeline Low Dose",
    "TRTPN": 1,
    "PARAMCD": "HGB",
    "PARAM": "Hemoglobin ( g/dL )",
    "AVAL": 12.97,
    "BASE": 12.97,
    "CHG": 0,
    "PCHG": 0,
    "A1LO": 12,
    "A1HI": 15.5,
    "ANRIND": "NORMAL",
    "BNRIND": "NORMAL",
    "SHIFT1": "NORMAL -> NORMAL",
    "ADT": "2013-06-11",
    "ADY": -7,
    "AVISIT": "SCREENING",
    "AVISITN": 1,
    "ABLFL": "Y",
    "ANL01FL": "Y",
    "SAFFL": "Y"
  },
  {
    "STUDYID": "CDISCPILOT01",
    "USUBJID": "01-701-001",
    "TRTP": "Xanomeline Low Dose",
    "TRTPN": 1,
    "PARAMCD": "HGB",
    "PARAM": "Hemoglobin ( g/dL )",
    "AVAL": 12.98,
    "BASE": 12.97,
    "CHG": 0.01,
    "PCHG": 0.0771,
    "A1LO": 12,
    "A1HI": 15.5,
    "ANRIND": "NORMAL",
    "BNRIND": "NORMAL",
    "SHIFT1": "NORMAL -> NORMAL",
    "ADT": "2013-08-13",
    "ADY": 57,
    "AVISIT": "WEEK 8",
    "AVISITN": 5,
    "ABLFL": "",
    "ANL01FL": "Y",
    "SAFFL": "Y"
  },
  {
    "STUDYID": "CDISCPILOT01",
    "USUBJID": "01-701-001",
    "TRTP": "Xanomeline Low Dose",
    "TRTPN": 1,
    "PARAMCD": "HGB",
    "PARAM": "Hemoglobin ( g/dL )",
    "AVAL": 12.98,
    "BASE": 12.97,
    "CHG": 0.01,
    "PCHG": 0.0771,
    "A1LO": 12,
    "A1HI": 15.5,
    "ANRIND": "NORMAL",
    "BNRIND": "NORMAL",
    "SHIFT1": "NORMAL -> NORMAL",
    "ADT": "2013-06-18",
    "ADY": 1,
    "AVISIT": "BASELINE",
    "AVISITN": 2,
    "ABLFL": "",
    "ANL01FL": "Y",
    "SAFFL": "Y"
  },
  {
    "STUDYID": "CDISCPILOT01",
    "USUBJID": "01-701-001",
    "TRTP": "Xanomeline Low Dose",
    "TRTPN": 1,
    "PARAMCD": "HGB",
    "PARAM": "Hemoglobin ( g/dL )",
    "AVAL": 13.11,
    "BASE": 12.97,
    "CHG": 0.14,
    "PCHG": 1.0794,
    "A1LO": 12,
    "A1HI": 15.5,
    "ANRIND": "NORMAL",
    "BNRIND": "NORMAL",
    "SHIFT1": "NORMAL -> NORMAL",
    "ADT": "2013-10-09",
    "ADY": 114,
    "AVISIT": "WEEK 16",
    "AVISITN": 7,
    "ABLFL": "",
    "ANL01FL": "Y",
    "SAFFL": "Y"
  },
  {
    "STUDYID": "CDISCPILOT01",
    "USUBJID": "01-701-001",
    "TRTP": "Xanomeline Low Dose",
    "TRTPN": 1,
    "PARAMCD": "HGB",
    "PARAM": "Hemoglobin ( g/dL )",
    "AVAL": 12.81,
    "BASE": 12.97,
    "CHG": -0.16,
    "PCHG": -1.2336,
    "A1LO": 12,
    "A1HI": 15.5,
    "ANRIND": "NORMAL",
    "BNRIND": "NORMAL",
    "SHIFT1": "NORMAL -> NORMAL",
    "ADT": "2013-12-03",
    "ADY": 169,
    "AVISIT": "WEEK 24",
    "AVISITN": 9,
    "ABLFL": "",
    "ANL01FL": "Y",
    "SAFFL": "Y"
  },
  {
    "STUDYID": "CDISCPILOT01",
    "USUBJID": "01-701-001",
    "TRTP": "Xanomeline Low Dose",
    "TRTPN": 1,
    "PARAMCD": "PLT",
    "PARAM": "Platelets ( 10^9/L )",
    "AVAL": 266.77,
    "BASE": 269.31,
    "CHG": -2.54,
    "PCHG": -0.9432,
    "A1LO": 150,
    "A1HI": 400,
    "ANRIND": "NORMAL",
    "BNRIND": "NORMAL",
    "SHIFT1": "NORMAL -> NORMAL",
    "ADT": "2013-12-05",
    "ADY": 171,
    "AVISIT": "WEEK 24",
    "AVISITN": 9,
    "ABLFL": "",
    "ANL01FL": "Y",
    "SAFFL": "Y"
  },
  {
    "STUDYID": "CDISCPILOT01",
    "USUBJID": "01-701-001",
    "TRTP": "Xanomeline Low Dose",
    "TRTPN": 1,
    "PARAMCD": "PLT",
    "PARAM": "Platelets ( 10^9/L )",
    "AVAL": 266.31,
    "BASE": 269.31,
    "CHG": -3,
    "PCHG": -1.114,
    "A1LO": 150,
    "A1HI": 400,
    "ANRIND": "NORMAL",
    "BNRIND": "NORMAL",
    "SHIFT1": "NORMAL -> NORMAL",
    "ADT": "2013-06-18",
    "ADY": 1,
    "AVISIT": "BASELINE",
    "AVISITN": 2,
    "ABLFL": "",
    "ANL01FL": "Y",
    "SAFFL": "Y"
  },
  {
    "STUDYID": "CDISCPILOT01",
    "USUBJID": "01-701-001",
    "TRTP": "Xanomeline Low Dose",
    "TRTPN": 1,
    "PARAMCD": "PLT",
    "PARAM": "Platelets ( 10^9/L )",
    "AVAL": 269.31,
    "BASE": 269.31,
    "CHG": 0,
    "PCHG": 0,
    "A1LO": 150,
    "A1HI": 400,
    "ANRIND": "NORMAL",
    "BNRIND": "NORMAL",
    "SHIFT1": "NORMAL -> NORMAL",
    "ADT": "2013-06-11",
    "ADY": -7,
    "AVISIT": "SCREENING",
    "AVISITN": 1,
    "ABLFL": "Y",
    "ANL01FL": "Y",
    "SAFFL": "Y"
  },
  {
    "STUDYID": "CDISCPILOT01",
    "USUBJID": "01-701-001",
    "TRTP": "Xanomeline Low Dose",
    "TRTPN": 1,
    "PARAMCD": "PLT",
    "PARAM": "Platelets ( 10^9/L )",
    "AVAL": 270.8,
    "BASE": 269.31,
    "CHG": 1.49,
    "PCHG": 0.5533,
    "A1LO": 150,
    "A1HI": 400,
    "ANRIND": "NORMAL",
    "BNRIND": "NORMAL",
    "SHIFT1": "NORMAL -> NORMAL",
    "ADT": "2013-08-15",
    "ADY": 59,
    "AVISIT": "WEEK 8",
    "AVISITN": 5,
    "ABLFL": "",
    "ANL01FL": "Y",
    "SAFFL": "Y"
  },
  {
    "STUDYID": "CDISCPILOT01",
    "USUBJID": "01-701-001",
    "TRTP": "Xanomeline Low Dose",
    "TRTPN": 1,
    "PARAMCD": "PLT",
    "PARAM": "Platelets ( 10^9/L )",
    "AVAL": 269.22,
    "BASE": 269.31,
    "CHG": -0.09,
    "PCHG": -0.0334,
    "A1LO": 150,
    "A1HI": 400,
    "ANRIND": "NORMAL",
    "BNRIND": "NORMAL",
    "SHIFT1": "NORMAL -> NORMAL",
    "ADT": "2013-10-10",
    "ADY": 115,
    "AVISIT": "WEEK 16",
    "AVISITN": 7,
    "ABLFL": "",
    "ANL01FL": "Y",
    "SAFFL": "Y"
  },
  {
    "STUDYID": "CDISCPILOT01",
    "USUBJID": "01-701-001",
    "TRTP": "Xanomeline Low Dose",
    "TRTPN": 1,
    "PARAMCD": "POTASSIUM",
    "PARAM": "Potassium ( mmol/L )",
    "AVAL": 3.8,
    "BASE": 3.78,
    "CHG": 0.02,
    "PCHG": 0.5291,
    "A1LO": 3.5,
    "A1HI": 5,
    "ANRIND": "NORMAL",
    "BNRIND": "NORMAL",
    "SHIFT1": "NORMAL -> NORMAL",
    "ADT": "2013-08-15",
    "ADY": 59,
    "AVISIT": "WEEK 8",
    "AVISITN": 5,
    "ABLFL": "",
    "ANL01FL": "Y",
    "SAFFL": "Y"
  },
  {
    "STUDYID": "CDISCPILOT01",
    "USUBJID": "01-701-001",
    "TRTP": "Xanomeline Low Dose",
    "TRTPN": 1,
    "PARAMCD": "POTASSIUM",
    "PARAM": "Potassium ( mmol/L )",
    "AVAL": 3.78,
    "BASE": 3.78,
    "CHG": 0,
    "PCHG": 0,
    "A1LO": 3.5,
    "A1HI": 5,
    "ANRIND": "NORMAL",
    "BNRIND": "NORMAL",
    "SHIFT1": "NORMAL -> NORMAL",
    "ADT": "2013-06-10",
    "ADY": -8,
    "AVISIT": "SCREENING",
    "AVISITN": 1,
    "ABLFL": "Y",
    "ANL01FL": "Y",
    "SAFFL": "Y"
  },
  {
    "STUDYID": "CDISCPILOT01",
    "USUBJID": "01-701-001",
    "TRTP": "Xanomeline Low Dose",
    "TRTPN": 1,
    "PARAMCD": "POTASSIUM",
    "PARAM": "Potassium ( mmol/L )",
    "AVAL": 3.76,
    "BASE": 3.78,
    "CHG": -0.02,
    "PCHG": -0.5291,
    "A1LO": 3.5,
    "A1HI": 5,
    "ANRIND": "NORMAL",
    "BNRIND": "NORMAL",
    "SHIFT1": "NORMAL -> NORMAL",
    "ADT": "2013-06-20",
    "ADY": 3,
    "AVISIT": "BASELINE",
    "AVISITN": 2,
    "ABLFL": "",
    "ANL01FL": "Y",
    "SAFFL": "Y"
  },
  {
    "STUDYID": "CDISCPILOT01",
    "USUBJID": "01-701-001",
    "TRTP": "Xanomeline Low Dose",
    "TRTPN": 1,
    "PARAMCD": "POTASSIUM",
    "PARAM": "Potassium ( mmol/L )",
    "AVAL": 3.84,
    "BASE": 3.78,
    "CHG": 0.06,
    "PCHG": 1.5873,
    "A1LO": 3.5,
    "A1HI": 5,
    "ANRIND": "NORMAL",
    "BNRIND": "NORMAL",
    "SHIFT1": "NORMAL -> NORMAL",
    "ADT": "2013-10-10",
    "ADY": 115,
    "AVISIT": "WEEK 16",
    "AVISITN": 7,
    "ABLFL": "",
    "ANL01FL": "Y",
    "SAFFL": "Y"
  },
  {
    "STUDYID": "CDISCPILOT01",
    "USUBJID": "01-701-001",
    "TRTP": "Xanomeline Low Dose",
    "TRTPN": 1,
    "PARAMCD": "POTASSIUM",
    "PARAM": "Potassium ( mmol/L )",
    "AVAL": 3.83,
    "BASE": 3.78,
    "CHG": 0.05,
    "PCHG": 1.3228,
    "A1LO": 3.5,
    "A1HI": 5,
    "ANRIND": "NORMAL",
    "BNRIND": "NORMAL",
    "SHIFT1": "NORMAL -> NORMAL",
    "ADT": "2013-12-04",
    "ADY": 170,
    "AVISIT": "WEEK 24",
    "AVISITN": 9,
    "ABLFL": "",
    "ANL01FL": "Y",
    "SAFFL": "Y"
  },
  {
    "STUDYID": "CDISCPILOT01",
    "USUBJID": "01-701-001",
    "TRTP": "Xanomeline Low Dose",
    "TRTPN": 1,
    "PARAMCD": "RBC",
    "PARAM": "Red Blood Cells ( 10^12/L )",
    "AVAL": 5.08,
    "BASE": 5.08,
    "CHG": 0,
    "PCHG": 0,
    "A1LO": 4,
    "A1HI": 5,
    "ANRIND": "HIGH",
    "BNRIND": "HIGH",
    "SHIFT1": "HIGH -> HIGH",
    "ADT": "2013-06-10",
    "ADY": -8,
    "AVISIT": "SCREENING",
    "AVISITN": 1,
    "ABLFL": "Y",
    "ANL01FL": "Y",
    "SAFFL": "Y"
  },
  {
    "STUDYID": "CDISCPILOT01",
    "USUBJID": "01-701-001",
    "TRTP": "Xanomeline Low Dose",
    "TRTPN": 1,
    "PARAMCD": "RBC",
    "PARAM": "Red Blood Cells ( 10^12/L )",
    "AVAL": 5.07,
    "BASE": 5.08,
    "CHG": -0.01,
    "PCHG": -0.1969,
    "A1LO": 4,
    "A1HI": 5,
    "ANRIND": "HIGH",
    "BNRIND": "HIGH",
    "SHIFT1": "HIGH -> HIGH",
    "ADT": "2013-06-19",
    "ADY": 2,
    "AVISIT": "BASELINE",
    "AVISITN": 2,
    "ABLFL": "",
    "ANL01FL": "Y",
    "SAFFL": "Y"
  },
  {
    "STUDYID": "CDISCPILOT01",
    "USUBJID": "01-701-001",
    "TRTP": "Xanomeline Low Dose",
    "TRTPN": 1,
    "PARAMCD": "RBC",
    "PARAM": "Red Blood Cells ( 10^12/L )",
    "AVAL": 5.1,
    "BASE": 5.08,
    "CHG": 0.02,
    "PCHG": 0.3937,
    "A1LO": 4,
    "A1HI": 5,
    "ANRIND": "HIGH",
    "BNRIND": "HIGH",
    "SHIFT1": "HIGH -> HIGH",
    "ADT": "2013-10-10",
    "ADY": 115,
    "AVISIT": "WEEK 16",
    "AVISITN": 7,
    "ABLFL": "",
    "ANL01FL": "Y",
    "SAFFL": "Y"
  },
  {
    "STUDYID": "CDISCPILOT01",
    "USUBJID": "01-701-001",
    "TRTP": "Xanomeline Low Dose",
    "TRTPN": 1,
    "PARAMCD": "RBC",
    "PARAM": "Red Blood Cells ( 10^12/L )",
    "AVAL": 5.08,
    "BASE": 5.08,
    "CHG": 0,
    "PCHG": 0,
    "A1LO": 4,
    "A1HI": 5,
    "ANRIND": "HIGH",
    "BNRIND": "HIGH",
    "SHIFT1": "HIGH -> HIGH",
    "ADT": "2013-12-03",
    "ADY": 169,
    "AVISIT": "WEEK 24",
    "AVISITN": 9,
    "ABLFL": "",
    "ANL01FL": "Y",
    "SAFFL": "Y"
  },
  {
    "STUDYID": "CDISCPILOT01",
    "USUBJID": "01-701-001",
    "TRTP": "Xanomeline Low Dose",
    "TRTPN": 1,
    "PARAMCD": "RBC",
    "PARAM": "Red Blood Cells ( 10^12/L )",
    "AVAL": 4.97,
    "BASE": 5.08,
    "CHG": -0.11,
    "PCHG": -2.1654,
    "A1LO": 4,
    "A1HI": 5,
    "ANRIND": "NORMAL",
    "BNRIND": "HIGH",
    "SHIFT1": "HIGH -> NORMAL",
    "ADT": "2013-08-13",
    "ADY": 57,
    "AVISIT": "WEEK 8",
    "AVISITN": 5,
    "ABLFL": "",
    "ANL01FL": "Y",
    "SAFFL": "Y"
  },
  {
    "STUDYID": "CDISCPILOT01",
    "USUBJID": "01-701-001",
    "TRTP": "Xanomeline Low Dose",
    "TRTPN": 1,
    "PARAMCD": "SODIUM",
    "PARAM": "Sodium ( mmol/L )",
    "AVAL": 140.39,
    "BASE": 139.42,
    "CHG": 0.97,
    "PCHG": 0.6957,
    "A1LO": 136,
    "A1HI": 145,
    "ANRIND": "NORMAL",
    "BNRIND": "NORMAL",
    "SHIFT1": "NORMAL -> NORMAL",
    "ADT": "2013-06-18",
    "ADY": 1,
    "AVISIT": "BASELINE",
    "AVISITN": 2,
    "ABLFL": "",
    "ANL01FL": "Y",
    "SAFFL": "Y"
  },
  {
    "STUDYID": "CDISCPILOT01",
    "USUBJID": "01-701-001",
    "TRTP": "Xanomeline Low Dose",
    "TRTPN": 1,
    "PARAMCD": "SODIUM",
    "PARAM": "Sodium ( mmol/L )",
    "AVAL": 139.12,
    "BASE": 139.42,
    "CHG": -0.3,
    "PCHG": -0.2152,
    "A1LO": 136,
    "A1HI": 145,
    "ANRIND": "NORMAL",
    "BNRIND": "NORMAL",
    "SHIFT1": "NORMAL -> NORMAL",
    "ADT": "2013-08-15",
    "ADY": 59,
    "AVISIT": "WEEK 8",
    "AVISITN": 5,
    "ABLFL": "",
    "ANL01FL": "Y",
    "SAFFL": "Y"
  },
  {
    "STUDYID": "CDISCPILOT01",
    "USUBJID": "01-701-001",
    "TRTP": "Xanomeline Low Dose",
    "TRTPN": 1,
    "PARAMCD": "SODIUM",
    "PARAM": "Sodium ( mmol/L )",
    "AVAL": 139.49,
    "BASE": 139.42,
    "CHG": 0.07,
    "PCHG": 0.0502,
    "A1LO": 136,
    "A1HI": 145,
    "ANRIND": "NORMAL",
    "BNRIND": "NORMAL",
    "SHIFT1": "NORMAL -> NORMAL",
    "ADT": "2013-12-05",
    "ADY": 171,
    "AVISIT": "WEEK 24",
    "AVISITN": 9,
    "ABLFL": "",
    "ANL01FL": "Y",
    "SAFFL": "Y"
  },
  {
    "STUDYID": "CDISCPILOT01",
    "USUBJID": "01-701-001",
    "TRTP": "Xanomeline Low Dose",
    "TRTPN": 1,
    "PARAMCD": "SODIUM",
    "PARAM": "Sodium ( mmol/L )",
    "AVAL": 139.25,
    "BASE": 139.42,
    "CHG": -0.17,
    "PCHG": -0.1219,
    "A1LO": 136,
    "A1HI": 145,
    "ANRIND": "NORMAL",
    "BNRIND": "NORMAL",
    "SHIFT1": "NORMAL -> NORMAL",
    "ADT": "2013-10-08",
    "ADY": 113,
    "AVISIT": "WEEK 16",
    "AVISITN": 7,
    "ABLFL": "",
    "ANL01FL": "Y",
    "SAFFL": "Y"
  },
  {
    "STUDYID": "CDISCPILOT01",
    "USUBJID": "01-701-001",
    "TRTP": "Xanomeline Low Dose",
    "TRTPN": 1,
    "PARAMCD": "SODIUM",
    "PARAM": "Sodium ( mmol/L )",
    "AVAL": 139.42,
    "BASE": 139.42,
    "CHG": 0,
    "PCHG": 0,
    "A1LO": 136,
    "A1HI": 145,
    "ANRIND": "NORMAL",
    "BNRIND": "NORMAL",
    "SHIFT1": "NORMAL -> NORMAL",
    "ADT": "2013-06-10",
    "ADY": -8,
    "AVISIT": "SCREENING",
    "AVISITN": 1,
    "ABLFL": "Y",
    "ANL01FL": "Y",
    "SAFFL": "Y"
  },
  {
    "STUDYID": "CDISCPILOT01",
    "USUBJID": "01-701-001",
    "TRTP": "Xanomeline Low Dose",
    "TRTPN": 1,
    "PARAMCD": "WBC",
    "PARAM": "White Blood Cells ( 10^9/L )",
    "AVAL": 7.69,
    "BASE": 7.69,
    "CHG": 0,
    "PCHG": 0,
    "A1LO": 4,
    "A1HI": 11,
    "ANRIND": "NORMAL",
    "BNRIND": "NORMAL",
    "SHIFT1": "NORMAL -> NORMAL",
    "ADT": "2013-06-11",
    "ADY": -7,
    "AVISIT": "SCREENING",
    "AVISITN": 1,
    "ABLFL": "Y",
    "ANL01FL": "Y",
    "SAFFL": "Y"
  },
  {
    "STUDYID": "CDISCPILOT01",
    "USUBJID": "01-701-001",
    "TRTP": "Xanomeline Low Dose",
    "TRTPN": 1,
    "PARAMCD": "WBC",
    "PARAM": "White Blood Cells ( 10^9/L )",
    "AVAL": 7.95,
    "BASE": 7.69,
    "CHG": 0.26,
    "PCHG": 3.381,
    "A1LO": 4,
    "A1HI": 11,
    "ANRIND": "NORMAL",
    "BNRIND": "NORMAL",
    "SHIFT1": "NORMAL -> NORMAL",
    "ADT": "2013-10-08",
    "ADY": 113,
    "AVISIT": "WEEK 16",
    "AVISITN": 7,
    "ABLFL": "",
    "ANL01FL": "Y",
    "SAFFL": "Y"
  },
  {
    "STUDYID": "CDISCPILOT01",
    "USUBJID": "01-701-001",
    "TRTP": "Xanomeline Low Dose",
    "TRTPN": 1,
    "PARAMCD": "WBC",
    "PARAM": "White Blood Cells ( 10^9/L )",
    "AVAL": 7.67,
    "BASE": 7.69,
    "CHG": -0.02,
    "PCHG": -0.2601,
    "A1LO": 4,
    "A1HI": 11,
    "ANRIND": "NORMAL",
    "BNRIND": "NORMAL",
    "SHIFT1": "NORMAL -> NORMAL",
    "ADT": "2013-06-20",
    "ADY": 3,
    "AVISIT": "BASELINE",
    "AVISITN": 2,
    "ABLFL": "",
    "ANL01FL": "Y",
    "SAFFL": "Y"
  },
  {
    "STUDYID": "CDISCPILOT01",
    "USUBJID": "01-701-001",
    "TRTP": "Xanomeline Low Dose",
    "TRTPN": 1,
    "PARAMCD": "WBC",
    "PARAM": "White Blood Cells ( 10^9/L )",
    "AVAL": 8.03,
    "BASE": 7.69,
    "CHG": 0.34,
    "PCHG": 4.4213,
    "A1LO": 4,
    "A1HI": 11,
    "ANRIND": "NORMAL",
    "BNRIND": "NORMAL",
    "SHIFT1": "NORMAL -> NORMAL",
    "ADT": "2013-08-14",
    "ADY": 58,
    "AVISIT": "WEEK 8",
    "AVISITN": 5,
    "ABLFL": "",
    "ANL01FL": "Y",
    "SAFFL": "Y"
  },
  {
    "STUDYID": "CDISCPILOT01",
    "USUBJID": "01-701-001",
    "TRTP": "Xanomeline Low Dose",
    "TRTPN": 1,
    "PARAMCD": "WBC",
    "PARAM": "White Blood Cells ( 10^9/L )",
    "AVAL": 7.73,
    "BASE": 7.69,
    "CHG": 0.04,
    "PCHG": 0.5202,
    "A1LO": 4,
    "A1HI": 11,
    "ANRIND": "NORMAL",
    "BNRIND": "NORMAL",
    "SHIFT1": "NORMAL -> NORMAL",
    "ADT": "2013-12-03",
    "ADY": 169,
    "AVISIT": "WEEK 24",
    "AVISITN": 9,
    "ABLFL": "",
    "ANL01FL": "Y",
    "SAFFL": "Y"
  },
  {
    "STUDYID": "CDISCPILOT01",
    "USUBJID": "01-701-002",
    "TRTP": "Xanomeline Low Dose",
    "TRTPN": 1,
    "PARAMCD": "ALB",
    "PARAM": "Albumin ( g/dL )",
    "AVAL": 3.81,
    "BASE": 3.86,
    "CHG": -0.05,
    "PCHG": -1.2953,
    "A1LO": 3.5,
    "A1HI": 5,
    "ANRIND": "NORMAL",
    "BNRIND": "NORMAL",
    "SHIFT1": "NORMAL -> NORMAL",
    "ADT": "2013-05-27",
    "ADY": 58,
    "AVISIT": "WEEK 8",
    "AVISITN": 5,
    "ABLFL": "",
    "ANL01FL": "Y",
    "SAFFL": "Y"
  },
  {
    "STUDYID": "CDISCPILOT01",
    "USUBJID": "01-701-002",
    "TRTP": "Xanomeline Low Dose",
    "TRTPN": 1,
    "PARAMCD": "ALB",
    "PARAM": "Albumin ( g/dL )",
    "AVAL": 3.86,
    "BASE": 3.86,
    "CHG": 0,
    "PCHG": 0,
    "A1LO": 3.5,
    "A1HI": 5,
    "ANRIND": "NORMAL",
    "BNRIND": "NORMAL",
    "SHIFT1": "NORMAL -> NORMAL",
    "ADT": "2013-03-24",
    "ADY": -7,
    "AVISIT": "SCREENING",
    "AVISITN": 1,
    "ABLFL": "Y",
    "ANL01FL": "Y",
    "SAFFL": "Y"
  },
  {
    "STUDYID": "CDISCPILOT01",
    "USUBJID": "01-701-002",
    "TRTP": "Xanomeline Low Dose",
    "TRTPN": 1,
    "PARAMCD": "ALB",
    "PARAM": "Albumin ( g/dL )",
    "AVAL": 3.93,
    "BASE": 3.86,
    "CHG": 0.07,
    "PCHG": 1.8135,
    "A1LO": 3.5,
    "A1HI": 5,
    "ANRIND": "NORMAL",
    "BNRIND": "NORMAL",
    "SHIFT1": "NORMAL -> NORMAL",
    "ADT": "2013-07-23",
    "ADY": 115,
    "AVISIT": "WEEK 16",
    "AVISITN": 7,
    "ABLFL": "",
    "ANL01FL": "Y",
    "SAFFL": "Y"
  },
  {
    "STUDYID": "CDISCPILOT01",
    "USUBJID": "01-701-002",
    "TRTP": "Xanomeline Low Dose",
    "TRTPN": 1,
    "PARAMCD": "ALB",
    "PARAM": "Albumin ( g/dL )",
    "AVAL": 3.77,
    "BASE": 3.86,
    "CHG": -0.09,
    "PCHG": -2.3316,
    "A1LO": 3.5,
    "A1HI": 5,
    "ANRIND": "NORMAL",
    "BNRIND": "NORMAL",
    "SHIFT1": "NORMAL -> NORMAL",
    "ADT": "2013-09-15",
    "ADY": 169,
    "AVISIT": "WEEK 24",
    "AVISITN": 9,
    "ABLFL": "",
    "ANL01FL": "Y",
    "SAFFL": "Y"
  },
  {
    "STUDYID": "CDISCPILOT01",
    "USUBJID": "01-701-002",
    "TRTP": "Xanomeline Low Dose",
    "TRTPN": 1,
    "PARAMCD": "ALB",
    "PARAM": "Albumin ( g/dL )",
    "AVAL": 3.89,
    "BASE": 3.86,
    "CHG": 0.03,
    "PCHG": 0.7772,
    "A1LO": 3.5,
    "A1HI": 5,
    "ANRIND": "NORMAL",
    "BNRIND": "NORMAL",
    "SHIFT1": "NORMAL -> NORMAL",
    "ADT": "2013-04-01",
    "ADY": 2,
    "AVISIT": "BASELINE",
    "AVISITN": 2,
    "ABLFL": "",
    "ANL01FL": "Y",
    "SAFFL": "Y"
  },
  {
    "STUDYID": "CDISCPILOT01",
    "USUBJID": "01-701-002",
    "TRTP": "Xanomeline Low Dose",
    "TRTPN": 1,
    "PARAMCD": "ALP",
    "PARAM": "Alkaline Phosphatase ( U/L )",
    "AVAL": 69.6,
    "BASE": 71.06,
    "CHG": -1.46,
    "PCHG": -2.0546,
    "A1LO": 44,
    "A1HI": 147,
    "ANRIND": "NORMAL",
    "BNRIND": "NORMAL",
    "SHIFT1": "NORMAL -> NORMAL",
    "ADT": "2013-07-21",
    "ADY": 113,
    "AVISIT": "WEEK 16",
    "AVISITN": 7,
    "ABLFL": "",
    "ANL01FL": "Y",
    "SAFFL": "Y"
  },
  {
    "STUDYID": "CDISCPILOT01",
    "USUBJID": "01-701-002",
    "TRTP": "Xanomeline Low Dose",
    "TRTPN": 1,
    "PARAMCD": "ALP",
    "PARAM": "Alkaline Phosphatase ( U/L )",
    "AVAL": 69.79,
    "BASE": 71.06,
    "CHG": -1.27,
    "PCHG": -1.7872,
    "A1LO": 44,
    "A1HI": 147,
    "ANRIND": "NORMAL",
    "BNRIND": "NORMAL",
    "SHIFT1": "NORMAL -> NORMAL",
    "ADT": "2013-09-17",
    "ADY": 171,
    "AVISIT": "WEEK 24",
    "AVISITN": 9,
    "ABLFL": "",
    "ANL01FL": "Y",
    "SAFFL": "Y"
  },
  {
    "STUDYID": "CDISCPILOT01",
    "USUBJID": "01-701-002",
    "TRTP": "Xanomeline Low Dose",
    "TRTPN": 1,
    "PARAMCD": "ALP",
    "PARAM": "Alkaline Phosphatase ( U/L )",
    "AVAL": 75.87,
    "BASE": 71.06,
    "CHG": 4.81,
    "PCHG": 6.7689,
    "A1LO": 44,
    "A1HI": 147,
    "ANRIND": "NORMAL",
    "BNRIND": "NORMAL",
    "SHIFT1": "NORMAL -> NORMAL",
    "ADT": "2013-04-02",
    "ADY": 3,
    "AVISIT": "BASELINE",
    "AVISITN": 2,
    "ABLFL": "",
    "ANL01FL": "Y",
    "SAFFL": "Y"
  },
  {
    "STUDYID": "CDISCPILOT01",
    "USUBJID": "01-701-002",
    "TRTP": "Xanomeline Low Dose",
    "TRTPN": 1,
    "PARAMCD": "ALP",
    "PARAM": "Alkaline Phosphatase ( U/L )",
    "AVAL": 71.06,
    "BASE": 71.06,
    "CHG": 0,
    "PCHG": 0,
    "A1LO": 44,
    "A1HI": 147,
    "ANRIND": "NORMAL",
    "BNRIND": "NORMAL",
    "SHIFT1": "NORMAL -> NORMAL",
    "ADT": "2013-03-24",
    "ADY": -7,
    "AVISIT": "SCREENING",
    "AVISITN": 1,
    "ABLFL": "Y",
    "ANL01FL": "Y",
    "SAFFL": "Y"
  },
  {
    "STUDYID": "CDISCPILOT01",
    "USUBJID": "01-701-002",
    "TRTP": "Xanomeline Low Dose",
    "TRTPN": 1,
    "PARAMCD": "ALP",
    "PARAM": "Alkaline Phosphatase ( U/L )",
    "AVAL": 71.27,
    "BASE": 71.06,
    "CHG": 0.21,
    "PCHG": 0.2955,
    "A1LO": 44,
    "A1HI": 147,
    "ANRIND": "NORMAL",
    "BNRIND": "NORMAL",
    "SHIFT1": "NORMAL -> NORMAL",
    "ADT": "2013-05-26",
    "ADY": 57,
    "AVISIT": "WEEK 8",
    "AVISITN": 5,
    "ABLFL": "",
    "ANL01FL": "Y",
    "SAFFL": "Y"
  },
  {
    "STUDYID": "CDISCPILOT01",
    "USUBJID": "01-701-002",
    "TRTP": "Xanomeline Low Dose",
    "TRTPN": 1,
    "PARAMCD": "ALT",
    "PARAM": "Alanine Aminotransferase ( U/L )",
    "AVAL": 4.08,
    "BASE": 4.08,
    "CHG": 0,
    "PCHG": 0,
    "A1LO": 7,
    "A1HI": 56,
    "ANRIND": "LOW",
    "BNRIND": "LOW",
    "SHIFT1": "LOW -> LOW",
    "ADT": "2013-03-24",
    "ADY": -7,
    "AVISIT": "SCREENING",
    "AVISITN": 1,
    "ABLFL": "Y",
    "ANL01FL": "Y",
    "SAFFL": "Y"
  },
  {
    "STUDYID": "CDISCPILOT01",
    "USUBJID": "01-701-002",
    "TRTP": "Xanomeline Low Dose",
    "TRTPN": 1,
    "PARAMCD": "ALT",
    "PARAM": "Alanine Aminotransferase ( U/L )",
    "AVAL": 5.14,
    "BASE": 4.08,
    "CHG": 1.06,
    "PCHG": 25.9804,
    "A1LO": 7,
    "A1HI": 56,
    "ANRIND": "LOW",
    "BNRIND": "LOW",
    "SHIFT1": "LOW -> LOW",
    "ADT": "2013-07-21",
    "ADY": 113,
    "AVISIT": "WEEK 16",
    "AVISITN": 7,
    "ABLFL": "",
    "ANL01FL": "Y",
    "SAFFL": "Y"
  },
  {
    "STUDYID": "CDISCPILOT01",
    "USUBJID": "01-701-002",
    "TRTP": "Xanomeline Low Dose",
    "TRTPN": 1,
    "PARAMCD": "ALT",
    "PARAM": "Alanine Aminotransferase ( U/L )",
    "AVAL": 3.37,
    "BASE": 4.08,
    "CHG": -0.71,
    "PCHG": -17.402,
    "A1LO": 7,
    "A1HI": 56,
    "ANRIND": "LOW",
    "BNRIND": "LOW",
    "SHIFT1": "LOW -> LOW",
    "ADT": "2013-09-17",
    "ADY": 171,
    "AVISIT": "WEEK 24",
    "AVISITN": 9,
    "ABLFL": "",
    "ANL01FL": "Y",
    "SAFFL": "Y"
  },
  {
    "STUDYID": "CDISCPILOT01",
    "USUBJID": "01-701-002",
    "TRTP": "Xanomeline Low Dose",
    "TRTPN": 1,
    "PARAMCD": "ALT",
    "PARAM": "Alanine Aminotransferase ( U/L )",
    "AVAL": 3.01,
    "BASE": 4.08,
    "CHG": -1.07,
    "PCHG": -26.2255,
    "A1LO": 7,
    "A1HI": 56,
    "ANRIND": "LOW",
    "BNRIND": "LOW",
    "SHIFT1": "LOW -> LOW",
    "ADT": "2013-04-02",
    "ADY": 3,
    "AVISIT": "BASELINE",
    "AVISITN": 2,
    "ABLFL": "",
    "ANL01FL": "Y",
    "SAFFL": "Y"
  },
  {
    "STUDYID": "CDISCPILOT01",
    "USUBJID": "01-701-002",
    "TRTP": "Xanomeline Low Dose",
    "TRTPN": 1,
    "PARAMCD": "ALT",
    "PARAM": "Alanine Aminotransferase ( U/L )",
    "AVAL": 2.39,
    "BASE": 4.08,
    "CHG": -1.69,
    "PCHG": -41.4216,
    "A1LO": 7,
    "A1HI": 56,
    "ANRIND": "LOW",
    "BNRIND": "LOW",
    "SHIFT1": "LOW -> LOW",
    "ADT": "2013-05-27",
    "ADY": 58,
    "AVISIT": "WEEK 8",
    "AVISITN": 5,
    "ABLFL": "",
    "ANL01FL": "Y",
    "SAFFL": "Y"
  },
  {
    "STUDYID": "CDISCPILOT01",
    "USUBJID": "01-701-002",
    "TRTP": "Xanomeline Low Dose",
    "TRTPN": 1,
    "PARAMCD": "AST",
    "PARAM": "Aspartate Aminotransferase ( U/L )",
    "AVAL": 21.84,
    "BASE": 23.33,
    "CHG": -1.49,
    "PCHG": -6.3866,
    "A1LO": 10,
    "A1HI": 40,
    "ANRIND": "NORMAL",
    "BNRIND": "NORMAL",
    "SHIFT1": "NORMAL -> NORMAL",
    "ADT": "2013-07-23",
    "ADY": 115,
    "AVISIT": "WEEK 16",
    "AVISITN": 7,
    "ABLFL": "",
    "ANL01FL": "Y",
    "SAFFL": "Y"
  },
  {
    "STUDYID": "CDISCPILOT01",
    "USUBJID": "01-701-002",
    "TRTP": "Xanomeline Low Dose",
    "TRTPN": 1,
    "PARAMCD": "AST",
    "PARAM": "Aspartate Aminotransferase ( U/L )",
    "AVAL": 23.33,
    "BASE": 23.33,
    "CHG": 0,
    "PCHG": 0,
    "A1LO": 10,
    "A1HI": 40,
    "ANRIND": "NORMAL",
    "BNRIND": "NORMAL",
    "SHIFT1": "NORMAL -> NORMAL",
    "ADT": "2013-03-23",
    "ADY": -8,
    "AVISIT": "SCREENING",
    "AVISITN": 1,
    "ABLFL": "Y",
    "ANL01FL": "Y",
    "SAFFL": "Y"
  },
  {
    "STUDYID": "CDISCPILOT01",
    "USUBJID": "01-701-002",
    "TRTP": "Xanomeline Low Dose",
    "TRTPN": 1,
    "PARAMCD": "AST",
    "PARAM": "Aspartate Aminotransferase ( U/L )",
    "AVAL": 23.94,
    "BASE": 23.33,
    "CHG": 0.61,
    "PCHG": 2.6147,
    "A1LO": 10,
    "A1HI": 40,
    "ANRIND": "NORMAL",
    "BNRIND": "NORMAL",
    "SHIFT1": "NORMAL -> NORMAL",
    "ADT": "2013-04-02",
    "ADY": 3,
    "AVISIT": "BASELINE",
    "AVISITN": 2,
    "ABLFL": "",
    "ANL01FL": "Y",
    "SAFFL": "Y"
  },
  {
    "STUDYID": "CDISCPILOT01",
    "USUBJID": "01-701-002",
    "TRTP": "Xanomeline Low Dose",
    "TRTPN": 1,
    "PARAMCD": "AST",
    "PARAM": "Aspartate Aminotransferase ( U/L )",
    "AVAL": 23.03,
    "BASE": 23.33,
    "CHG": -0.3,
    "PCHG": -1.2859,
    "A1LO": 10,
    "A1HI": 40,
    "ANRIND": "NORMAL",
    "BNRIND": "NORMAL",
    "SHIFT1": "NORMAL -> NORMAL",
    "ADT": "2013-09-16",
    "ADY": 170,
    "AVISIT": "WEEK 24",
    "AVISITN": 9,
    "ABLFL": "",
    "ANL01FL": "Y",
    "SAFFL": "Y"
  },
  {
    "STUDYID": "CDISCPILOT01",
    "USUBJID": "01-701-002",
    "TRTP": "Xanomeline Low Dose",
    "TRTPN": 1,
    "PARAMCD": "AST",
    "PARAM": "Aspartate Aminotransferase ( U/L )",
    "AVAL": 23.31,
    "BASE": 23.33,
    "CHG": -0.02,
    "PCHG": -0.0857,
    "A1LO": 10,
    "A1HI": 40,
    "ANRIND": "NORMAL",
    "BNRIND": "NORMAL",
    "SHIFT1": "NORMAL -> NORMAL",
    "ADT": "2013-05-26",
    "ADY": 57,
    "AVISIT": "WEEK 8",
    "AVISITN": 5,
    "ABLFL": "",
    "ANL01FL": "Y",
    "SAFFL": "Y"
  },
  {
    "STUDYID": "CDISCPILOT01",
    "USUBJID": "01-701-002",
    "TRTP": "Xanomeline Low Dose",
    "TRTPN": 1,
    "PARAMCD": "BILI",
    "PARAM": "Bilirubin ( mg/dL )",
    "AVAL": 0.47,
    "BASE": 0.44,
    "CHG": 0.03,
    "PCHG": 6.8182,
    "A1LO": 0.1,
    "A1HI": 1.2,
    "ANRIND": "NORMAL",
    "BNRIND": "NORMAL",
    "SHIFT1": "NORMAL -> NORMAL",
    "ADT": "2013-05-27",
    "ADY": 58,
    "AVISIT": "WEEK 8",
    "AVISITN": 5,
    "ABLFL": "",
    "ANL01FL": "Y",
    "SAFFL": "Y"
  },
  {
    "STUDYID": "CDISCPILOT01",
    "USUBJID": "01-701-002",
    "TRTP": "Xanomeline Low Dose",
    "TRTPN": 1,
    "PARAMCD": "BILI",
    "PARAM": "Bilirubin ( mg/dL )",
    "AVAL": 0.52,
    "BASE": 0.44,
    "CHG": 0.08,
    "PCHG": 18.1818,
    "A1LO": 0.1,
    "A1HI": 1.2,
    "ANRIND": "NORMAL",
    "BNRIND": "NORMAL",
    "SHIFT1": "NORMAL -> NORMAL",
    "ADT": "2013-09-16",
    "ADY": 170,
    "AVISIT": "WEEK 24",
    "AVISITN": 9,
    "ABLFL": "",
    "ANL01FL": "Y",
    "SAFFL": "Y"
  },
  {
    "STUDYID": "CDISCPILOT01",
    "USUBJID": "01-701-002",
    "TRTP": "Xanomeline Low Dose",
    "TRTPN": 1,
    "PARAMCD": "BILI",
    "PARAM": "Bilirubin ( mg/dL )",
    "AVAL": 0.43,
    "BASE": 0.44,
    "CHG": -0.01,
    "PCHG": -2.2727,
    "A1LO": 0.1,
    "A1HI": 1.2,
    "ANRIND": "NORMAL",
    "BNRIND": "NORMAL",
    "SHIFT1": "NORMAL -> NORMAL",
    "ADT": "2013-07-21",
    "ADY": 113,
    "AVISIT": "WEEK 16",
    "AVISITN": 7,
    "ABLFL": "",
    "ANL01FL": "Y",
    "SAFFL": "Y"
  },
  {
    "STUDYID": "CDISCPILOT01",
    "USUBJID": "01-701-002",
    "TRTP": "Xanomeline Low Dose",
    "TRTPN": 1,
    "PARAMCD": "BILI",
    "PARAM": "Bilirubin ( mg/dL )",
    "AVAL": 0.44,
    "BASE": 0.44,
    "CHG": 0,
    "PCHG": 0,
    "A1LO": 0.1,
    "A1HI": 1.2,
    "ANRIND": "NORMAL",
    "BNRIND": "NORMAL",
    "SHIFT1": "NORMAL -> NORMAL",
    "ADT": "2013-03-24",
    "ADY": -7,
    "AVISIT": "SCREENING",
    "AVISITN": 1,
    "ABLFL": "Y",
    "ANL01FL": "Y",
    "SAFFL": "Y"
  },
  {
    "STUDYID": "CDISCPILOT01",
    "USUBJID": "01-701-002",
    "TRTP": "Xanomeline Low Dose",
    "TRTPN": 1,
    "PARAMCD": "BILI",
    "PARAM": "Bilirubin ( mg/dL )",
    "AVAL": 0.39,
    "BASE": 0.44,
    "CHG": -0.05,
    "PCHG": -11.3636,
    "A1LO": 0.1,
    "A1HI": 1.2,
    "ANRIND": "NORMAL",
    "BNRIND": "NORMAL",
    "SHIFT1": "NORMAL -> NORMAL",
    "ADT": "2013-04-01",
    "ADY": 2,
    "AVISIT": "BASELINE",
    "AVISITN": 2,
    "ABLFL": "",
    "ANL01FL": "Y",
    "SAFFL": "Y"
  },
  {
    "STUDYID": "CDISCPILOT01",
    "USUBJID": "01-701-002",
    "TRTP": "Xanomeline Low Dose",
    "TRTPN": 1,
    "PARAMCD": "BUN",
    "PARAM": "Blood Urea Nitrogen ( mg/dL )",
    "AVAL": 17.51,
    "BASE": 16.91,
    "CHG": 0.6,
    "PCHG": 3.5482,
    "A1LO": 8,
    "A1HI": 23,
    "ANRIND": "NORMAL",
    "BNRIND": "NORMAL",
    "SHIFT1": "NORMAL -> NORMAL",
    "ADT": "2013-04-02",
    "ADY": 3,
    "AVISIT": "BASELINE",
    "AVISITN": 2,
    "ABLFL": "",
    "ANL01FL": "Y",
    "SAFFL": "Y"
  },
  {
    "STUDYID": "CDISCPILOT01",
    "USUBJID": "01-701-002",
    "TRTP": "Xanomeline Low Dose",
    "TRTPN": 1,
    "PARAMCD": "BUN",
    "PARAM": "Blood Urea Nitrogen ( mg/dL )",
    "AVAL": 16.11,
    "BASE": 16.91,
    "CHG": -0.8,
    "PCHG": -4.7309,
    "A1LO": 8,
    "A1HI": 23,
    "ANRIND": "NORMAL",
    "BNRIND": "NORMAL",
    "SHIFT1": "NORMAL -> NORMAL",
    "ADT": "2013-07-23",
    "ADY": 115,
    "AVISIT": "WEEK 16",
    "AVISITN": 7,
    "ABLFL": "",
    "ANL01FL": "Y",
    "SAFFL": "Y"
  },
  {
    "STUDYID": "CDISCPILOT01",
    "USUBJID": "01-701-002",
    "TRTP": "Xanomeline Low Dose",
    "TRTPN": 1,
    "PARAMCD": "BUN",
    "PARAM": "Blood Urea Nitrogen ( mg/dL )",
    "AVAL": 15.2,
    "BASE": 16.91,
    "CHG": -1.71,
    "PCHG": -10.1124,
    "A1LO": 8,
    "A1HI": 23,
    "ANRIND": "NORMAL",
    "BNRIND": "NORMAL",
    "SHIFT1": "NORMAL -> NORMAL",
    "ADT": "2013-05-28",
    "ADY": 59,
    "AVISIT": "WEEK 8",
    "AVISITN": 5,
    "ABLFL": "",
    "ANL01FL": "Y",
    "SAFFL": "Y"
  },
  {
    "STUDYID": "CDISCPILOT01",
    "USUBJID": "01-701-002",
    "TRTP": "Xanomeline Low Dose",
    "TRTPN": 1,
    "PARAMCD": "BUN",
    "PARAM": "Blood Urea Nitrogen ( mg/dL )",
    "AVAL": 18.02,
    "BASE": 16.91,
    "CHG": 1.11,
    "PCHG": 6.5642,
    "A1LO": 8,
    "A1HI": 23,
    "ANRIND": "NORMAL",
    "BNRIND": "NORMAL",
    "SHIFT1": "NORMAL -> NORMAL",
    "ADT": "2013-09-16",
    "ADY": 170,
    "AVISIT": "WEEK 24",
    "AVISITN": 9,
    "ABLFL": "",
    "ANL01FL": "Y",
    "SAFFL": "Y"
  },
  {
    "STUDYID": "CDISCPILOT01",
    "USUBJID": "01-701-002",
    "TRTP": "Xanomeline Low Dose",
    "TRTPN": 1,
    "PARAMCD": "BUN",
    "PARAM": "Blood Urea Nitrogen ( mg/dL )",
    "AVAL": 16.91,
    "BASE": 16.91,
    "CHG": 0,
    "PCHG": 0,
    "A1LO": 8,
    "A1HI": 23,
    "ANRIND": "NORMAL",
    "BNRIND": "NORMAL",
    "SHIFT1": "NORMAL -> NORMAL",
    "ADT": "2013-03-23",
    "ADY": -8,
    "AVISIT": "SCREENING",
    "AVISITN": 1,
    "ABLFL": "Y",
    "ANL01FL": "Y",
    "SAFFL": "Y"
  },
  {
    "STUDYID": "CDISCPILOT01",
    "USUBJID": "01-701-002",
    "TRTP": "Xanomeline Low Dose",
    "TRTPN": 1,
    "PARAMCD": "CHLORIDE",
    "PARAM": "Chloride ( mmol/L )",
    "AVAL": 101.78,
    "BASE": 101.78,
    "CHG": 0,
    "PCHG": 0,
    "A1LO": 98,
    "A1HI": 106,
    "ANRIND": "NORMAL",
    "BNRIND": "NORMAL",
    "SHIFT1": "NORMAL -> NORMAL",
    "ADT": "2013-03-25",
    "ADY": -6,
    "AVISIT": "SCREENING",
    "AVISITN": 1,
    "ABLFL": "Y",
    "ANL01FL": "Y",
    "SAFFL": "Y"
  },
  {
    "STUDYID": "CDISCPILOT01",
    "USUBJID": "01-701-002",
    "TRTP": "Xanomeline Low Dose",
    "TRTPN": 1,
    "PARAMCD": "CHLORIDE",
    "PARAM": "Chloride ( mmol/L )",
    "AVAL": 101.82,
    "BASE": 101.78,
    "CHG": 0.04,
    "PCHG": 0.0393,
    "A1LO": 98,
    "A1HI": 106,
    "ANRIND": "NORMAL",
    "BNRIND": "NORMAL",
    "SHIFT1": "NORMAL -> NORMAL",
    "ADT": "2013-05-27",
    "ADY": 58,
    "AVISIT": "WEEK 8",
    "AVISITN": 5,
    "ABLFL": "",
    "ANL01FL": "Y",
    "SAFFL": "Y"
  },
  {
    "STUDYID": "CDISCPILOT01",
    "USUBJID": "01-701-002",
    "TRTP": "Xanomeline Low Dose",
    "TRTPN": 1,
    "PARAMCD": "CHLORIDE",
    "PARAM": "Chloride ( mmol/L )",
    "AVAL": 102.24,
    "BASE": 101.78,
    "CHG": 0.46,
    "PCHG": 0.452,
    "A1LO": 98,
    "A1HI": 106,
    "ANRIND": "NORMAL",
    "BNRIND": "NORMAL",
    "SHIFT1": "NORMAL -> NORMAL",
    "ADT": "2013-07-21",
    "ADY": 113,
    "AVISIT": "WEEK 16",
    "AVISITN": 7,
    "ABLFL": "",
    "ANL01FL": "Y",
    "SAFFL": "Y"
  },
  {
    "STUDYID": "CDISCPILOT01",
    "USUBJID": "01-701-002",
    "TRTP": "Xanomeline Low Dose",
    "TRTPN": 1,
    "PARAMCD": "CHLORIDE",
    "PARAM": "Chloride ( mmol/L )",
    "AVAL": 101.39,
    "BASE": 101.78,
    "CHG": -0.39,
    "PCHG": -0.3832,
    "A1LO": 98,
    "A1HI": 106,
    "ANRIND": "NORMAL",
    "BNRIND": "NORMAL",
    "SHIFT1": "NORMAL -> NORMAL",
    "ADT": "2013-03-31",
    "ADY": 1,
    "AVISIT": "BASELINE",
    "AVISITN": 2,
    "ABLFL": "",
    "ANL01FL": "Y",
    "SAFFL": "Y"
  },
  {
    "STUDYID": "CDISCPILOT01",
    "USUBJID": "01-701-002",
    "TRTP": "Xanomeline Low Dose",
    "TRTPN": 1,
    "PARAMCD": "CHLORIDE",
    "PARAM": "Chloride ( mmol/L )",
    "AVAL": 101.43,
    "BASE": 101.78,
    "CHG": -0.35,
    "PCHG": -0.3439,
    "A1LO": 98,
    "A1HI": 106,
    "ANRIND": "NORMAL",
    "BNRIND": "NORMAL",
    "SHIFT1": "NORMAL -> NORMAL",
    "ADT": "2013-09-16",
    "ADY": 170,
    "AVISIT": "WEEK 24",
    "AVISITN": 9,
    "ABLFL": "",
    "ANL01FL": "Y",
    "SAFFL": "Y"
  },
  {
    "STUDYID": "CDISCPILOT01",
    "USUBJID": "01-701-002",
    "TRTP": "Xanomeline Low Dose",
    "TRTPN": 1,
    "PARAMCD": "CREAT",
    "PARAM": "Creatinine ( mg/dL )",
    "AVAL": 1.19,
    "BASE": 1.13,
    "CHG": 0.06,
    "PCHG": 5.3097,
    "A1LO": 0.7,
    "A1HI": 1.3,
    "ANRIND": "NORMAL",
    "BNRIND": "NORMAL",
    "SHIFT1": "NORMAL -> NORMAL",
    "ADT": "2013-05-27",
    "ADY": 58,
    "AVISIT": "WEEK 8",
    "AVISITN": 5,
    "ABLFL": "",
    "ANL01FL": "Y",
    "SAFFL": "Y"
  },
  {
    "STUDYID": "CDISCPILOT01",
    "USUBJID": "01-701-002",
    "TRTP": "Xanomeline Low Dose",
    "TRTPN": 1,
    "PARAMCD": "CREAT",
    "PARAM": "Creatinine ( mg/dL )",
    "AVAL": 1.17,
    "BASE": 1.13,
    "CHG": 0.04,
    "PCHG": 3.5398,
    "A1LO": 0.7,
    "A1HI": 1.3,
    "ANRIND": "NORMAL",
    "BNRIND": "NORMAL",
    "SHIFT1": "NORMAL -> NORMAL",
    "ADT": "2013-07-22",
    "ADY": 114,
    "AVISIT": "WEEK 16",
    "AVISITN": 7,
    "ABLFL": "",
    "ANL01FL": "Y",
    "SAFFL": "Y"
  },
  {
    "STUDYID": "CDISCPILOT01",
    "USUBJID": "01-701-002",
    "TRTP": "Xanomeline Low Dose",
    "TRTPN": 1,
    "PARAMCD": "CREAT",
    "PARAM": "Creatinine ( mg/dL )",
    "AVAL": 1.13,
    "BASE": 1.13,
    "CHG": 0,
    "PCHG": 0,
    "A1LO": 0.7,
    "A1HI": 1.3,
    "ANRIND": "NORMAL",
    "BNRIND": "NORMAL",
    "SHIFT1": "NORMAL -> NORMAL",
    "ADT": "2013-03-24",
    "ADY": -7,
    "AVISIT": "SCREENING",
    "AVISITN": 1,
    "ABLFL": "Y",
    "ANL01FL": "Y",
    "SAFFL": "Y"
  },
  {
    "STUDYID": "CDISCPILOT01",
    "USUBJID": "01-701-002",
    "TRTP": "Xanomeline Low Dose",
    "TRTPN": 1,
    "PARAMCD": "CREAT",
    "PARAM": "Creatinine ( mg/dL )",
    "AVAL": 1.13,
    "BASE": 1.13,
    "CHG": 0,
    "PCHG": 0,
    "A1LO": 0.7,
    "A1HI": 1.3,
    "ANRIND": "NORMAL",
    "BNRIND": "NORMAL",
    "SHIFT1": "NORMAL -> NORMAL",
    "ADT": "2013-03-31",
    "ADY": 1,
    "AVISIT": "BASELINE",
    "AVISITN": 2,
    "ABLFL": "",
    "ANL01FL": "Y",
    "SAFFL": "Y"
  },
  {
    "STUDYID": "CDISCPILOT01",
    "USUBJID": "01-701-002",
    "TRTP": "Xanomeline Low Dose",
    "TRTPN": 1,
    "PARAMCD": "CREAT",
    "PARAM": "Creatinine ( mg/dL )",
    "AVAL": 1.13,
    "BASE": 1.13,
    "CHG": 0,
    "PCHG": 0,
    "A1LO": 0.7,
    "A1HI": 1.3,
    "ANRIND": "NORMAL",
    "BNRIND": "NORMAL",
    "SHIFT1": "NORMAL -> NORMAL",
    "ADT": "2013-09-15",
    "ADY": 169,
    "AVISIT": "WEEK 24",
    "AVISITN": 9,
    "ABLFL": "",
    "ANL01FL": "Y",
    "SAFFL": "Y"
  },
  {
    "STUDYID": "CDISCPILOT01",
    "USUBJID": "01-701-002",
    "TRTP": "Xanomeline Low Dose",
    "TRTPN": 1,
    "PARAMCD": "GLUC",
    "PARAM": "Glucose ( mg/dL )",
    "AVAL": 86.6,
    "BASE": 86.6,
    "CHG": 0,
    "PCHG": 0,
    "A1LO": 70,
    "A1HI": 110,
    "ANRIND": "NORMAL",
    "BNRIND": "NORMAL",
    "SHIFT1": "NORMAL -> NORMAL",
    "ADT": "2013-03-24",
    "ADY": -7,
    "AVISIT": "SCREENING",
    "AVISITN": 1,
    "ABLFL": "Y",
    "ANL01FL": "Y",
    "SAFFL": "Y"
  },
  {
    "STUDYID": "CDISCPILOT01",
    "USUBJID": "01-701-002",
    "TRTP": "Xanomeline Low Dose",
    "TRTPN": 1,
    "PARAMCD": "GLUC",
    "PARAM": "Glucose ( mg/dL )",
    "AVAL": 83.83,
    "BASE": 86.6,
    "CHG": -2.77,
    "PCHG": -3.1986,
    "A1LO": 70,
    "A1HI": 110,
    "ANRIND": "NORMAL",
    "BNRIND": "NORMAL",
    "SHIFT1": "NORMAL -> NORMAL",
    "ADT": "2013-04-01",
    "ADY": 2,
    "AVISIT": "BASELINE",
    "AVISITN": 2,
    "ABLFL": "",
    "ANL01FL": "Y",
    "SAFFL": "Y"
  },
  {
    "STUDYID": "CDISCPILOT01",
    "USUBJID": "01-701-002",
    "TRTP": "Xanomeline Low Dose",
    "TRTPN": 1,
    "PARAMCD": "GLUC",
    "PARAM": "Glucose ( mg/dL )",
    "AVAL": 85.43,
    "BASE": 86.6,
    "CHG": -1.17,
    "PCHG": -1.351,
    "A1LO": 70,
    "A1HI": 110,
    "ANRIND": "NORMAL",
    "BNRIND": "NORMAL",
    "SHIFT1": "NORMAL -> NORMAL",
    "ADT": "2013-07-22",
    "ADY": 114,
    "AVISIT": "WEEK 16",
    "AVISITN": 7,
    "ABLFL": "",
    "ANL01FL": "Y",
    "SAFFL": "Y"
  },
  {
    "STUDYID": "CDISCPILOT01",
    "USUBJID": "01-701-002",
    "TRTP": "Xanomeline Low Dose",
    "TRTPN": 1,
    "PARAMCD": "GLUC",
    "PARAM": "Glucose ( mg/dL )",
    "AVAL": 88.95,
    "BASE": 86.6,
    "CHG": 2.35,
    "PCHG": 2.7136,
    "A1LO": 70,
    "A1HI": 110,
    "ANRIND": "NORMAL",
    "BNRIND": "NORMAL",
    "SHIFT1": "NORMAL -> NORMAL",
    "ADT": "2013-05-28",
    "ADY": 59,
    "AVISIT": "WEEK 8",
    "AVISITN": 5,
    "ABLFL": "",
    "ANL01FL": "Y",
    "SAFFL": "Y"
  },
  {
    "STUDYID": "CDISCPILOT01",
    "USUBJID": "01-701-002",
    "TRTP": "Xanomeline Low Dose",
    "TRTPN": 1,
    "PARAMCD": "GLUC",
    "PARAM": "Glucose ( mg/dL )",
    "AVAL": 88.19,
    "BASE": 86.6,
    "CHG": 1.59,
    "PCHG": 1.836,
    "A1LO": 70,
    "A1HI": 110,
    "ANRIND": "NORMAL",
    "BNRIND": "NORMAL",
    "SHIFT1": "NORMAL -> NORMAL",
    "ADT": "2013-09-15",
    "ADY": 169,
    "AVISIT": "WEEK 24",
    "AVISITN": 9,
    "ABLFL": "",
    "ANL01FL": "Y",
    "SAFFL": "Y"
  },
  {
    "STUDYID": "CDISCPILOT01",
    "USUBJID": "01-701-002",
    "TRTP": "Xanomeline Low Dose",
    "TRTPN": 1,
    "PARAMCD": "HCT",
    "PARAM": "Hematocrit ( % )",
    "AVAL": 37.92,
    "BASE": 38.36,
    "CHG": -0.44,
    "PCHG": -1.147,
    "A1LO": 36,
    "A1HI": 44,
    "ANRIND": "NORMAL",
    "BNRIND": "NORMAL",
    "SHIFT1": "NORMAL -> NORMAL",
    "ADT": "2013-09-15",
    "ADY": 169,
    "AVISIT": "WEEK 24",
    "AVISITN": 9,
    "ABLFL": "",
    "ANL01FL": "Y",
    "SAFFL": "Y"
  },
  {
    "STUDYID": "CDISCPILOT01",
    "USUBJID": "01-701-002",
    "TRTP": "Xanomeline Low Dose",
    "TRTPN": 1,
    "PARAMCD": "HCT",
    "PARAM": "Hematocrit ( % )",
    "AVAL": 38.36,
    "BASE": 38.36,
    "CHG": 0,
    "PCHG": 0,
    "A1LO": 36,
    "A1HI": 44,
    "ANRIND": "NORMAL",
    "BNRIND": "NORMAL",
    "SHIFT1": "NORMAL -> NORMAL",
    "ADT": "2013-03-24",
    "ADY": -7,
    "AVISIT": "SCREENING",
    "AVISITN": 1,
    "ABLFL": "Y",
    "ANL01FL": "Y",
    "SAFFL": "Y"
  },
  {
    "STUDYID": "CDISCPILOT01",
    "USUBJID": "01-701-002",
    "TRTP": "Xanomeline Low Dose",
    "TRTPN": 1,
    "PARAMCD": "HCT",
    "PARAM": "Hematocrit ( % )",
    "AVAL": 37.75,
    "BASE": 38.36,
    "CHG": -0.61,
    "PCHG": -1.5902,
    "A1LO": 36,
    "A1HI": 44,
    "ANRIND": "NORMAL",
    "BNRIND": "NORMAL",
    "SHIFT1": "NORMAL -> NORMAL",
    "ADT": "2013-05-27",
    "ADY": 58,
    "AVISIT": "WEEK 8",
    "AVISITN": 5,
    "ABLFL": "",
    "ANL01FL": "Y",
    "SAFFL": "Y"
  },
  {
    "STUDYID": "CDISCPILOT01",
    "USUBJID": "01-701-002",
    "TRTP": "Xanomeline Low Dose",
    "TRTPN": 1,
    "PARAMCD": "HCT",
    "PARAM": "Hematocrit ( % )",
    "AVAL": 38.61,
    "BASE": 38.36,
    "CHG": 0.25,
    "PCHG": 0.6517,
    "A1LO": 36,
    "A1HI": 44,
    "ANRIND": "NORMAL",
    "BNRIND": "NORMAL",
    "SHIFT1": "NORMAL -> NORMAL",
    "ADT": "2013-04-02",
    "ADY": 3,
    "AVISIT": "BASELINE",
    "AVISITN": 2,
    "ABLFL": "",
    "ANL01FL": "Y",
    "SAFFL": "Y"
  },
  {
    "STUDYID": "CDISCPILOT01",
    "USUBJID": "01-701-002",
    "TRTP": "Xanomeline Low Dose",
    "TRTPN": 1,
    "PARAMCD": "HCT",
    "PARAM": "Hematocrit ( % )",
    "AVAL": 37.75,
    "BASE": 38.36,
    "CHG": -0.61,
    "PCHG": -1.5902,
    "A1LO": 36,
    "A1HI": 44,
    "ANRIND": "NORMAL",
    "BNRIND": "NORMAL",
    "SHIFT1": "NORMAL -> NORMAL",
    "ADT": "2013-07-22",
    "ADY": 114,
    "AVISIT": "WEEK 16",
    "AVISITN": 7,
    "ABLFL": "",
    "ANL01FL": "Y",
    "SAFFL": "Y"
  },
  {
    "STUDYID": "CDISCPILOT01",
    "USUBJID": "01-701-002",
    "TRTP": "Xanomeline Low Dose",
    "TRTPN": 1,
    "PARAMCD": "HGB",
    "PARAM": "Hemoglobin ( g/dL )",
    "AVAL": 10.26,
    "BASE": 10.26,
    "CHG": 0,
    "PCHG": 0,
    "A1LO": 12,
    "A1HI": 15.5,
    "ANRIND": "LOW",
    "BNRIND": "LOW",
    "SHIFT1": "LOW -> LOW",
    "ADT": "2013-03-25",
    "ADY": -6,
    "AVISIT": "SCREENING",
    "AVISITN": 1,
    "ABLFL": "Y",
    "ANL01FL": "Y",
    "SAFFL": "Y"
  },
  {
    "STUDYID": "CDISCPILOT01",
    "USUBJID": "01-701-002",
    "TRTP": "Xanomeline Low Dose",
    "TRTPN": 1,
    "PARAMCD": "HGB",
    "PARAM": "Hemoglobin ( g/dL )",
    "AVAL": 10.2,
    "BASE": 10.26,
    "CHG": -0.06,
    "PCHG": -0.5848,
    "A1LO": 12,
    "A1HI": 15.5,
    "ANRIND": "LOW",
    "BNRIND": "LOW",
    "SHIFT1": "LOW -> LOW",
    "ADT": "2013-05-27",
    "ADY": 58,
    "AVISIT": "WEEK 8",
    "AVISITN": 5,
    "ABLFL": "",
    "ANL01FL": "Y",
    "SAFFL": "Y"
  },
  {
    "STUDYID": "CDISCPILOT01",
    "USUBJID": "01-701-002",
    "TRTP": "Xanomeline Low Dose",
    "TRTPN": 1,
    "PARAMCD": "HGB",
    "PARAM": "Hemoglobin ( g/dL )",
    "AVAL": 10.55,
    "BASE": 10.26,
    "CHG": 0.29,
    "PCHG": 2.8265,
    "A1LO": 12,
    "A1HI": 15.5,
    "ANRIND": "LOW",
    "BNRIND": "LOW",
    "SHIFT1": "LOW -> LOW",
    "ADT": "2013-04-01",
    "ADY": 2,
    "AVISIT": "BASELINE",
    "AVISITN": 2,
    "ABLFL": "",
    "ANL01FL": "Y",
    "SAFFL": "Y"
  },
  {
    "STUDYID": "CDISCPILOT01",
    "USUBJID": "01-701-002",
    "TRTP": "Xanomeline Low Dose",
    "TRTPN": 1,
    "PARAMCD": "HGB",
    "PARAM": "Hemoglobin ( g/dL )",
    "AVAL": 10.34,
    "BASE": 10.26,
    "CHG": 0.08,
    "PCHG": 0.7797,
    "A1LO": 12,
    "A1HI": 15.5,
    "ANRIND": "LOW",
    "BNRIND": "LOW",
    "SHIFT1": "LOW -> LOW",
    "ADT": "2013-07-21",
    "ADY": 113,
    "AVISIT": "WEEK 16",
    "AVISITN": 7,
    "ABLFL": "",
    "ANL01FL": "Y",
    "SAFFL": "Y"
  },
  {
    "STUDYID": "CDISCPILOT01",
    "USUBJID": "01-701-002",
    "TRTP": "Xanomeline Low Dose",
    "TRTPN": 1,
    "PARAMCD": "HGB",
    "PARAM": "Hemoglobin ( g/dL )",
    "AVAL": 10.05,
    "BASE": 10.26,
    "CHG": -0.21,
    "PCHG": -2.0468,
    "A1LO": 12,
    "A1HI": 15.5,
    "ANRIND": "LOW",
    "BNRIND": "LOW",
    "SHIFT1": "LOW -> LOW",
    "ADT": "2013-09-15",
    "ADY": 169,
    "AVISIT": "WEEK 24",
    "AVISITN": 9,
    "ABLFL": "",
    "ANL01FL": "Y",
    "SAFFL": "Y"
  },
  {
    "STUDYID": "CDISCPILOT01",
    "USUBJID": "01-701-002",
    "TRTP": "Xanomeline Low Dose",
    "TRTPN": 1,
    "PARAMCD": "PLT",
    "PARAM": "Platelets ( 10^9/L )",
    "AVAL": 173.71,
    "BASE": 182.78,
    "CHG": -9.07,
    "PCHG": -4.9622,
    "A1LO": 150,
    "A1HI": 400,
    "ANRIND": "NORMAL",
    "BNRIND": "NORMAL",
    "SHIFT1": "NORMAL -> NORMAL",
    "ADT": "2013-09-17",
    "ADY": 171,
    "AVISIT": "WEEK 24",
    "AVISITN": 9,
    "ABLFL": "",
    "ANL01FL": "Y",
    "SAFFL": "Y"
  },
  {
    "STUDYID": "CDISCPILOT01",
    "USUBJID": "01-701-002",
    "TRTP": "Xanomeline Low Dose",
    "TRTPN": 1,
    "PARAMCD": "PLT",
    "PARAM": "Platelets ( 10^9/L )",
    "AVAL": 192.37,
    "BASE": 182.78,
    "CHG": 9.59,
    "PCHG": 5.2467,
    "A1LO": 150,
    "A1HI": 400,
    "ANRIND": "NORMAL",
    "BNRIND": "NORMAL",
    "SHIFT1": "NORMAL -> NORMAL",
    "ADT": "2013-04-02",
    "ADY": 3,
    "AVISIT": "BASELINE",
    "AVISITN": 2,
    "ABLFL": "",
    "ANL01FL": "Y",
    "SAFFL": "Y"
  },
  {
    "STUDYID": "CDISCPILOT01",
    "USUBJID": "01-701-002",
    "TRTP": "Xanomeline Low Dose",
    "TRTPN": 1,
    "PARAMCD": "PLT",
    "PARAM": "Platelets ( 10^9/L )",
    "AVAL": 182.78,
    "BASE": 182.78,
    "CHG": 0,
    "PCHG": 0,
    "A1LO": 150,
    "A1HI": 400,
    "ANRIND": "NORMAL",
    "BNRIND": "NORMAL",
    "SHIFT1": "NORMAL -> NORMAL",
    "ADT": "2013-03-24",
    "ADY": -7,
    "AVISIT": "SCREENING",
    "AVISITN": 1,
    "ABLFL": "Y",
    "ANL01FL": "Y",
    "SAFFL": "Y"
  },
  {
    "STUDYID": "CDISCPILOT01",
    "USUBJID": "01-701-002",
    "TRTP": "Xanomeline Low Dose",
    "TRTPN": 1,
    "PARAMCD": "PLT",
    "PARAM": "Platelets ( 10^9/L )",
    "AVAL": 183.3,
    "BASE": 182.78,
    "CHG": 0.52,
    "PCHG": 0.2845,
    "A1LO": 150,
    "A1HI": 400,
    "ANRIND": "NORMAL",
    "BNRIND": "NORMAL",
    "SHIFT1": "NORMAL -> NORMAL",
    "ADT": "2013-05-28",
    "ADY": 59,
    "AVISIT": "WEEK 8",
    "AVISITN": 5,
    "ABLFL": "",
    "ANL01FL": "Y",
    "SAFFL": "Y"
  },
  {
    "STUDYID": "CDISCPILOT01",
    "USUBJID": "01-701-002",
    "TRTP": "Xanomeline Low Dose",
    "TRTPN": 1,
    "PARAMCD": "PLT",
    "PARAM": "Platelets ( 10^9/L )",
    "AVAL": 198.5,
    "BASE": 182.78,
    "CHG": 15.72,
    "PCHG": 8.6005,
    "A1LO": 150,
    "A1HI": 400,
    "ANRIND": "NORMAL",
    "BNRIND": "NORMAL",
    "SHIFT1": "NORMAL -> NORMAL",
    "ADT": "2013-07-22",
    "ADY": 114,
    "AVISIT": "WEEK 16",
    "AVISITN": 7,
    "ABLFL": "",
    "ANL01FL": "Y",
    "SAFFL": "Y"
  },
  {
    "STUDYID": "CDISCPILOT01",
    "USUBJID": "01-701-002",
    "TRTP": "Xanomeline Low Dose",
    "TRTPN": 1,
    "PARAMCD": "POTASSIUM",
    "PARAM": "Potassium ( mmol/L )",
    "AVAL": 4.46,
    "BASE": 4.41,
    "CHG": 0.05,
    "PCHG": 1.1338,
    "A1LO": 3.5,
    "A1HI": 5,
    "ANRIND": "NORMAL",
    "BNRIND": "NORMAL",
    "SHIFT1": "NORMAL -> NORMAL",
    "ADT": "2013-05-28",
    "ADY": 59,
    "AVISIT": "WEEK 8",
    "AVISITN": 5,
    "ABLFL": "",
    "ANL01FL": "Y",
    "SAFFL": "Y"
  },
  {
    "STUDYID": "CDISCPILOT01",
    "USUBJID": "01-701-002",
    "TRTP": "Xanomeline Low Dose",
    "TRTPN": 1,
    "PARAMCD": "POTASSIUM",
    "PARAM": "Potassium ( mmol/L )",
    "AVAL": 4.41,
    "BASE": 4.41,
    "CHG": 0,
    "PCHG": 0,
    "A1LO": 3.5,
    "A1HI": 5,
    "ANRIND": "NORMAL",
    "BNRIND": "NORMAL",
    "SHIFT1": "NORMAL -> NORMAL",
    "ADT": "2013-03-24",
    "ADY": -7,
    "AVISIT": "SCREENING",
    "AVISITN": 1,
    "ABLFL": "Y",
    "ANL01FL": "Y",
    "SAFFL": "Y"
  },
  {
    "STUDYID": "CDISCPILOT01",
    "USUBJID": "01-701-002",
    "TRTP": "Xanomeline Low Dose",
    "TRTPN": 1,
    "PARAMCD": "POTASSIUM",
    "PARAM": "Potassium ( mmol/L )",
    "AVAL": 4.4,
    "BASE": 4.41,
    "CHG": -0.01,
    "PCHG": -0.2268,
    "A1LO": 3.5,
    "A1HI": 5,
    "ANRIND": "NORMAL",
    "BNRIND": "NORMAL",
    "SHIFT1": "NORMAL -> NORMAL",
    "ADT": "2013-03-31",
    "ADY": 1,
    "AVISIT": "BASELINE",
    "AVISITN": 2,
    "ABLFL": "",
    "ANL01FL": "Y",
    "SAFFL": "Y"
  },
  {
    "STUDYID": "CDISCPILOT01",
    "USUBJID": "01-701-002",
    "TRTP": "Xanomeline Low Dose",
    "TRTPN": 1,
    "PARAMCD": "POTASSIUM",
    "PARAM": "Potassium ( mmol/L )",
    "AVAL": 4.37,
    "BASE": 4.41,
    "CHG": -0.04,
    "PCHG": -0.907,
    "A1LO": 3.5,
    "A1HI": 5,
    "ANRIND": "NORMAL",
    "BNRIND": "NORMAL",
    "SHIFT1": "NORMAL -> NORMAL",
    "ADT": "2013-07-21",
    "ADY": 113,
    "AVISIT": "WEEK 16",
    "AVISITN": 7,
    "ABLFL": "",
    "ANL01FL": "Y",
    "SAFFL": "Y"
  },
  {
    "STUDYID": "CDISCPILOT01",
    "USUBJID": "01-701-002",
    "TRTP": "Xanomeline Low Dose",
    "TRTPN": 1,
    "PARAMCD": "POTASSIUM",
    "PARAM": "Potassium ( mmol/L )",
    "AVAL": 4.4,
    "BASE": 4.41,
    "CHG": -0.01,
    "PCHG": -0.2268,
    "A1LO": 3.5,
    "A1HI": 5,
    "ANRIND": "NORMAL",
    "BNRIND": "NORMAL",
    "SHIFT1": "NORMAL -> NORMAL",
    "ADT": "2013-09-15",
    "ADY": 169,
    "AVISIT": "WEEK 24",
    "AVISITN": 9,
    "ABLFL": "",
    "ANL01FL": "Y",
    "SAFFL": "Y"
  },
  {
    "STUDYID": "CDISCPILOT01",
    "USUBJID": "01-701-002",
    "TRTP": "Xanomeline Low Dose",
    "TRTPN": 1,
    "PARAMCD": "RBC",
    "PARAM": "Red Blood Cells ( 10^12/L )",
    "AVAL": 4.11,
    "BASE": 4.11,
    "CHG": 0,
    "PCHG": 0,
    "A1LO": 4,
    "A1HI": 5,
    "ANRIND": "NORMAL",
    "BNRIND": "NORMAL",
    "SHIFT1": "NORMAL -> NORMAL",
    "ADT": "2013-03-23",
    "ADY": -8,
    "AVISIT": "SCREENING",
    "AVISITN": 1,
    "ABLFL": "Y",
    "ANL01FL": "Y",
    "SAFFL": "Y"
  },
  {
    "STUDYID": "CDISCPILOT01",
    "USUBJID": "01-701-002",
    "TRTP": "Xanomeline Low Dose",
    "TRTPN": 1,
    "PARAMCD": "RBC",
    "PARAM": "Red Blood Cells ( 10^12/L )",
    "AVAL": 4.14,
    "BASE": 4.11,
    "CHG": 0.03,
    "PCHG": 0.7299,
    "A1LO": 4,
    "A1HI": 5,
    "ANRIND": "NORMAL",
    "BNRIND": "NORMAL",
    "SHIFT1": "NORMAL -> NORMAL",
    "ADT": "2013-04-02",
    "ADY": 3,
    "AVISIT": "BASELINE",
    "AVISITN": 2,
    "ABLFL": "",
    "ANL01FL": "Y",
    "SAFFL": "Y"
  },
  {
    "STUDYID": "CDISCPILOT01",
    "USUBJID": "01-701-002",
    "TRTP": "Xanomeline Low Dose",
    "TRTPN": 1,
    "PARAMCD": "RBC",
    "PARAM": "Red Blood Cells ( 10^12/L )",
    "AVAL": 4,
    "BASE": 4.11,
    "CHG": -0.11,
    "PCHG": -2.6764,
    "A1LO": 4,
    "A1HI": 5,
    "ANRIND": "NORMAL",
    "BNRIND": "NORMAL",
    "SHIFT1": "NORMAL -> NORMAL",
    "ADT": "2013-07-22",
    "ADY": 114,
    "AVISIT": "WEEK 16",
    "AVISITN": 7,
    "ABLFL": "",
    "ANL01FL": "Y",
    "SAFFL": "Y"
  },
  {
    "STUDYID": "CDISCPILOT01",
    "USUBJID": "01-701-002",
    "TRTP": "Xanomeline Low Dose",
    "TRTPN": 1,
    "PARAMCD": "RBC",
    "PARAM": "Red Blood Cells ( 10^12/L )",
    "AVAL": 4.03,
    "BASE": 4.11,
    "CHG": -0.08,
    "PCHG": -1.9465,
    "A1LO": 4,
    "A1HI": 5,
    "ANRIND": "NORMAL",
    "BNRIND": "NORMAL",
    "SHIFT1": "NORMAL -> NORMAL",
    "ADT": "2013-09-16",
    "ADY": 170,
    "AVISIT": "WEEK 24",
    "AVISITN": 9,
    "ABLFL": "",
    "ANL01FL": "Y",
    "SAFFL": "Y"
  },
  {
    "STUDYID": "CDISCPILOT01",
    "USUBJID": "01-701-002",
    "TRTP": "Xanomeline Low Dose",
    "TRTPN": 1,
    "PARAMCD": "RBC",
    "PARAM": "Red Blood Cells ( 10^12/L )",
    "AVAL": 4.07,
    "BASE": 4.11,
    "CHG": -0.04,
    "PCHG": -0.9732,
    "A1LO": 4,
    "A1HI": 5,
    "ANRIND": "NORMAL",
    "BNRIND": "NORMAL",
    "SHIFT1": "NORMAL -> NORMAL",
    "ADT": "2013-05-28",
    "ADY": 59,
    "AVISIT": "WEEK 8",
    "AVISITN": 5,
    "ABLFL": "",
    "ANL01FL": "Y",
    "SAFFL": "Y"
  },
  {
    "STUDYID": "CDISCPILOT01",
    "USUBJID": "01-701-002",
    "TRTP": "Xanomeline Low Dose",
    "TRTPN": 1,
    "PARAMCD": "SODIUM",
    "PARAM": "Sodium ( mmol/L )",
    "AVAL": 142.39,
    "BASE": 141.88,
    "CHG": 0.51,
    "PCHG": 0.3595,
    "A1LO": 136,
    "A1HI": 145,
    "ANRIND": "NORMAL",
    "BNRIND": "NORMAL",
    "SHIFT1": "NORMAL -> NORMAL",
    "ADT": "2013-04-02",
    "ADY": 3,
    "AVISIT": "BASELINE",
    "AVISITN": 2,
    "ABLFL": "",
    "ANL01FL": "Y",
    "SAFFL": "Y"
  },
  {
    "STUDYID": "CDISCPILOT01",
    "USUBJID": "01-701-002",
    "TRTP": "Xanomeline Low Dose",
    "TRTPN": 1,
    "PARAMCD": "SODIUM",
    "PARAM": "Sodium ( mmol/L )",
    "AVAL": 141.99,
    "BASE": 141.88,
    "CHG": 0.11,
    "PCHG": 0.0775,
    "A1LO": 136,
    "A1HI": 145,
    "ANRIND": "NORMAL",
    "BNRIND": "NORMAL",
    "SHIFT1": "NORMAL -> NORMAL",
    "ADT": "2013-05-26",
    "ADY": 57,
    "AVISIT": "WEEK 8",
    "AVISITN": 5,
    "ABLFL": "",
    "ANL01FL": "Y",
    "SAFFL": "Y"
  },
  {
    "STUDYID": "CDISCPILOT01",
    "USUBJID": "01-701-002",
    "TRTP": "Xanomeline Low Dose",
    "TRTPN": 1,
    "PARAMCD": "SODIUM",
    "PARAM": "Sodium ( mmol/L )",
    "AVAL": 141.88,
    "BASE": 141.88,
    "CHG": 0,
    "PCHG": 0,
    "A1LO": 136,
    "A1HI": 145,
    "ANRIND": "NORMAL",
    "BNRIND": "NORMAL",
    "SHIFT1": "NORMAL -> NORMAL",
    "ADT": "2013-09-15",
    "ADY": 169,
    "AVISIT": "WEEK 24",
    "AVISITN": 9,
    "ABLFL": "",
    "ANL01FL": "Y",
    "SAFFL": "Y"
  },
  {
    "STUDYID": "CDISCPILOT01",
    "USUBJID": "01-701-002",
    "TRTP": "Xanomeline Low Dose",
    "TRTPN": 1,
    "PARAMCD": "SODIUM",
    "PARAM": "Sodium ( mmol/L )",
    "AVAL": 142.09,
    "BASE": 141.88,
    "CHG": 0.21,
    "PCHG": 0.148,
    "A1LO": 136,
    "A1HI": 145,
    "ANRIND": "NORMAL",
    "BNRIND": "NORMAL",
    "SHIFT1": "NORMAL -> NORMAL",
    "ADT": "2013-07-22",
    "ADY": 114,
    "AVISIT": "WEEK 16",
    "AVISITN": 7,
    "ABLFL": "",
    "ANL01FL": "Y",
    "SAFFL": "Y"
  },
  {
    "STUDYID": "CDISCPILOT01",
    "USUBJID": "01-701-002",
    "TRTP": "Xanomeline Low Dose",
    "TRTPN": 1,
    "PARAMCD": "SODIUM",
    "PARAM": "Sodium ( mmol/L )",
    "AVAL": 141.88,
    "BASE": 141.88,
    "CHG": 0,
    "PCHG": 0,
    "A1LO": 136,
    "A1HI": 145,
    "ANRIND": "NORMAL",
    "BNRIND": "NORMAL",
    "SHIFT1": "NORMAL -> NORMAL",
    "ADT": "2013-03-24",
    "ADY": -7,
    "AVISIT": "SCREENING",
    "AVISITN": 1,
    "ABLFL": "Y",
    "ANL01FL": "Y",
    "SAFFL": "Y"
  },
  {
    "STUDYID": "CDISCPILOT01",
    "USUBJID": "01-701-002",
    "TRTP": "Xanomeline Low Dose",
    "TRTPN": 1,
    "PARAMCD": "WBC",
    "PARAM": "White Blood Cells ( 10^9/L )",
    "AVAL": 4.19,
    "BASE": 4.19,
    "CHG": 0,
    "PCHG": 0,
    "A1LO": 4,
    "A1HI": 11,
    "ANRIND": "NORMAL",
    "BNRIND": "NORMAL",
    "SHIFT1": "NORMAL -> NORMAL",
    "ADT": "2013-03-23",
    "ADY": -8,
    "AVISIT": "SCREENING",
    "AVISITN": 1,
    "ABLFL": "Y",
    "ANL01FL": "Y",
    "SAFFL": "Y"
  },
  {
    "STUDYID": "CDISCPILOT01",
    "USUBJID": "01-701-002",
    "TRTP": "Xanomeline Low Dose",
    "TRTPN": 1,
    "PARAMCD": "WBC",
    "PARAM": "White Blood Cells ( 10^9/L )",
    "AVAL": 4.35,
    "BASE": 4.19,
    "CHG": 0.16,
    "PCHG": 3.8186,
    "A1LO": 4,
    "A1HI": 11,
    "ANRIND": "NORMAL",
    "BNRIND": "NORMAL",
    "SHIFT1": "NORMAL -> NORMAL",
    "ADT": "2013-07-23",
    "ADY": 115,
    "AVISIT": "WEEK 16",
    "AVISITN": 7,
    "ABLFL": "",
    "ANL01FL": "Y",
    "SAFFL": "Y"
  },
  {
    "STUDYID": "CDISCPILOT01",
    "USUBJID": "01-701-002",
    "TRTP": "Xanomeline Low Dose",
    "TRTPN": 1,
    "PARAMCD": "WBC",
    "PARAM": "White Blood Cells ( 10^9/L )",
    "AVAL": 4.01,
    "BASE": 4.19,
    "CHG": -0.18,
    "PCHG": -4.2959,
    "A1LO": 4,
    "A1HI": 11,
    "ANRIND": "NORMAL",
    "BNRIND": "NORMAL",
    "SHIFT1": "NORMAL -> NORMAL",
    "ADT": "2013-04-02",
    "ADY": 3,
    "AVISIT": "BASELINE",
    "AVISITN": 2,
    "ABLFL": "",
    "ANL01FL": "Y",
    "SAFFL": "Y"
  },
  {
    "STUDYID": "CDISCPILOT01",
    "USUBJID": "01-701-002",
    "TRTP": "Xanomeline Low Dose",
    "TRTPN": 1,
    "PARAMCD": "WBC",
    "PARAM": "White Blood Cells ( 10^9/L )",
    "AVAL": 3.63,
    "BASE": 4.19,
    "CHG": -0.56,
    "PCHG": -13.3652,
    "A1LO": 4,
    "A1HI": 11,
    "ANRIND": "LOW",
    "BNRIND": "NORMAL",
    "SHIFT1": "NORMAL -> LOW",
    "ADT": "2013-05-26",
    "ADY": 57,
    "AVISIT": "WEEK 8",
    "AVISITN": 5,
    "ABLFL": "",
    "ANL01FL": "Y",
    "SAFFL": "Y"
  },
  {
    "STUDYID": "CDISCPILOT01",
    "USUBJID": "01-701-002",
    "TRTP": "Xanomeline Low Dose",
    "TRTPN": 1,
    "PARAMCD": "WBC",
    "PARAM": "White Blood Cells ( 10^9/L )",
    "AVAL": 4.05,
    "BASE": 4.19,
    "CHG": -0.14,
    "PCHG": -3.3413,
    "A1LO": 4,
    "A1HI": 11,
    "ANRIND": "NORMAL",
    "BNRIND": "NORMAL",
    "SHIFT1": "NORMAL -> NORMAL",
    "ADT": "2013-09-16",
    "ADY": 170,
    "AVISIT": "WEEK 24",
    "AVISITN": 9,
    "ABLFL": "",
    "ANL01FL": "Y",
    "SAFFL": "Y"
  },
  {
    "STUDYID": "CDISCPILOT01",
    "USUBJID": "01-701-003",
    "TRTP": "Placebo",
    "TRTPN": 0,
    "PARAMCD": "ALB",
    "PARAM": "Albumin ( g/dL )",
    "AVAL": 4.08,
    "BASE": 4.15,
    "CHG": -0.07,
    "PCHG": -1.6867,
    "A1LO": 3.5,
    "A1HI": 5,
    "ANRIND": "NORMAL",
    "BNRIND": "NORMAL",
    "SHIFT1": "NORMAL -> NORMAL",
    "ADT": "2013-02-28",
    "ADY": 59,
    "AVISIT": "WEEK 8",
    "AVISITN": 5,
    "ABLFL": "",
    "ANL01FL": "Y",
    "SAFFL": "Y"
  },
  {
    "STUDYID": "CDISCPILOT01",
    "USUBJID": "01-701-003",
    "TRTP": "Placebo",
    "TRTPN": 0,
    "PARAMCD": "ALB",
    "PARAM": "Albumin ( g/dL )",
    "AVAL": 4.15,
    "BASE": 4.15,
    "CHG": 0,
    "PCHG": 0,
    "A1LO": 3.5,
    "A1HI": 5,
    "ANRIND": "NORMAL",
    "BNRIND": "NORMAL",
    "SHIFT1": "NORMAL -> NORMAL",
    "ADT": "2012-12-26",
    "ADY": -6,
    "AVISIT": "SCREENING",
    "AVISITN": 1,
    "ABLFL": "Y",
    "ANL01FL": "Y",
    "SAFFL": "Y"
  },
  {
    "STUDYID": "CDISCPILOT01",
    "USUBJID": "01-701-003",
    "TRTP": "Placebo",
    "TRTPN": 0,
    "PARAMCD": "ALB",
    "PARAM": "Albumin ( g/dL )",
    "AVAL": 4.18,
    "BASE": 4.15,
    "CHG": 0.03,
    "PCHG": 0.7229,
    "A1LO": 3.5,
    "A1HI": 5,
    "ANRIND": "NORMAL",
    "BNRIND": "NORMAL",
    "SHIFT1": "NORMAL -> NORMAL",
    "ADT": "2013-04-24",
    "ADY": 114,
    "AVISIT": "WEEK 16",
    "AVISITN": 7,
    "ABLFL": "",
    "ANL01FL": "Y",
    "SAFFL": "Y"
  },
  {
    "STUDYID": "CDISCPILOT01",
    "USUBJID": "01-701-003",
    "TRTP": "Placebo",
    "TRTPN": 0,
    "PARAMCD": "ALB",
    "PARAM": "Albumin ( g/dL )",
    "AVAL": 4.14,
    "BASE": 4.15,
    "CHG": -0.01,
    "PCHG": -0.241,
    "A1LO": 3.5,
    "A1HI": 5,
    "ANRIND": "NORMAL",
    "BNRIND": "NORMAL",
    "SHIFT1": "NORMAL -> NORMAL",
    "ADT": "2013-06-19",
    "ADY": 170,
    "AVISIT": "WEEK 24",
    "AVISITN": 9,
    "ABLFL": "",
    "ANL01FL": "Y",
    "SAFFL": "Y"
  },
  {
    "STUDYID": "CDISCPILOT01",
    "USUBJID": "01-701-003",
    "TRTP": "Placebo",
    "TRTPN": 0,
    "PARAMCD": "ALB",
    "PARAM": "Albumin ( g/dL )",
    "AVAL": 4.24,
    "BASE": 4.15,
    "CHG": 0.09,
    "PCHG": 2.1687,
    "A1LO": 3.5,
    "A1HI": 5,
    "ANRIND": "NORMAL",
    "BNRIND": "NORMAL",
    "SHIFT1": "NORMAL -> NORMAL",
    "ADT": "2013-01-01",
    "ADY": 1,
    "AVISIT": "BASELINE",
    "AVISITN": 2,
    "ABLFL": "",
    "ANL01FL": "Y",
    "SAFFL": "Y"
  },
  {
    "STUDYID": "CDISCPILOT01",
    "USUBJID": "01-701-003",
    "TRTP": "Placebo",
    "TRTPN": 0,
    "PARAMCD": "ALP",
    "PARAM": "Alkaline Phosphatase ( U/L )",
    "AVAL": 71.5,
    "BASE": 71.74,
    "CHG": -0.24,
    "PCHG": -0.3345,
    "A1LO": 44,
    "A1HI": 147,
    "ANRIND": "NORMAL",
    "BNRIND": "NORMAL",
    "SHIFT1": "NORMAL -> NORMAL",
    "ADT": "2013-04-23",
    "ADY": 113,
    "AVISIT": "WEEK 16",
    "AVISITN": 7,
    "ABLFL": "",
    "ANL01FL": "Y",
    "SAFFL": "Y"
  },
  {
    "STUDYID": "CDISCPILOT01",
    "USUBJID": "01-701-003",
    "TRTP": "Placebo",
    "TRTPN": 0,
    "PARAMCD": "ALP",
    "PARAM": "Alkaline Phosphatase ( U/L )",
    "AVAL": 71.9,
    "BASE": 71.74,
    "CHG": 0.16,
    "PCHG": 0.223,
    "A1LO": 44,
    "A1HI": 147,
    "ANRIND": "NORMAL",
    "BNRIND": "NORMAL",
    "SHIFT1": "NORMAL -> NORMAL",
    "ADT": "2013-06-20",
    "ADY": 171,
    "AVISIT": "WEEK 24",
    "AVISITN": 9,
    "ABLFL": "",
    "ANL01FL": "Y",
    "SAFFL": "Y"
  },
  {
    "STUDYID": "CDISCPILOT01",
    "USUBJID": "01-701-003",
    "TRTP": "Placebo",
    "TRTPN": 0,
    "PARAMCD": "ALP",
    "PARAM": "Alkaline Phosphatase ( U/L )",
    "AVAL": 73.96,
    "BASE": 71.74,
    "CHG": 2.22,
    "PCHG": 3.0945,
    "A1LO": 44,
    "A1HI": 147,
    "ANRIND": "NORMAL",
    "BNRIND": "NORMAL",
    "SHIFT1": "NORMAL -> NORMAL",
    "ADT": "2013-01-01",
    "ADY": 1,
    "AVISIT": "BASELINE",
    "AVISITN": 2,
    "ABLFL": "",
    "ANL01FL": "Y",
    "SAFFL": "Y"
  },
  {
    "STUDYID": "CDISCPILOT01",
    "USUBJID": "01-701-003",
    "TRTP": "Placebo",
    "TRTPN": 0,
    "PARAMCD": "ALP",
    "PARAM": "Alkaline Phosphatase ( U/L )",
    "AVAL": 71.74,
    "BASE": 71.74,
    "CHG": 0,
    "PCHG": 0,
    "A1LO": 44,
    "A1HI": 147,
    "ANRIND": "NORMAL",
    "BNRIND": "NORMAL",
    "SHIFT1": "NORMAL -> NORMAL",
    "ADT": "2012-12-26",
    "ADY": -6,
    "AVISIT": "SCREENING",
    "AVISITN": 1,
    "ABLFL": "Y",
    "ANL01FL": "Y",
    "SAFFL": "Y"
  },
  {
    "STUDYID": "CDISCPILOT01",
    "USUBJID": "01-701-003",
    "TRTP": "Placebo",
    "TRTPN": 0,
    "PARAMCD": "ALP",
    "PARAM": "Alkaline Phosphatase ( U/L )",
    "AVAL": 73.06,
    "BASE": 71.74,
    "CHG": 1.32,
    "PCHG": 1.84,
    "A1LO": 44,
    "A1HI": 147,
    "ANRIND": "NORMAL",
    "BNRIND": "NORMAL",
    "SHIFT1": "NORMAL -> NORMAL",
    "ADT": "2013-02-27",
    "ADY": 58,
    "AVISIT": "WEEK 8",
    "AVISITN": 5,
    "ABLFL": "",
    "ANL01FL": "Y",
    "SAFFL": "Y"
  },
  {
    "STUDYID": "CDISCPILOT01",
    "USUBJID": "01-701-003",
    "TRTP": "Placebo",
    "TRTPN": 0,
    "PARAMCD": "ALT",
    "PARAM": "Alanine Aminotransferase ( U/L )",
    "AVAL": 13.9,
    "BASE": 13.9,
    "CHG": 0,
    "PCHG": 0,
    "A1LO": 7,
    "A1HI": 56,
    "ANRIND": "NORMAL",
    "BNRIND": "NORMAL",
    "SHIFT1": "NORMAL -> NORMAL",
    "ADT": "2012-12-25",
    "ADY": -7,
    "AVISIT": "SCREENING",
    "AVISITN": 1,
    "ABLFL": "Y",
    "ANL01FL": "Y",
    "SAFFL": "Y"
  },
  {
    "STUDYID": "CDISCPILOT01",
    "USUBJID": "01-701-003",
    "TRTP": "Placebo",
    "TRTPN": 0,
    "PARAMCD": "ALT",
    "PARAM": "Alanine Aminotransferase ( U/L )",
    "AVAL": 14.34,
    "BASE": 13.9,
    "CHG": 0.44,
    "PCHG": 3.1655,
    "A1LO": 7,
    "A1HI": 56,
    "ANRIND": "NORMAL",
    "BNRIND": "NORMAL",
    "SHIFT1": "NORMAL -> NORMAL",
    "ADT": "2013-04-23",
    "ADY": 113,
    "AVISIT": "WEEK 16",
    "AVISITN": 7,
    "ABLFL": "",
    "ANL01FL": "Y",
    "SAFFL": "Y"
  },
  {
    "STUDYID": "CDISCPILOT01",
    "USUBJID": "01-701-003",
    "TRTP": "Placebo",
    "TRTPN": 0,
    "PARAMCD": "ALT",
    "PARAM": "Alanine Aminotransferase ( U/L )",
    "AVAL": 13.25,
    "BASE": 13.9,
    "CHG": -0.65,
    "PCHG": -4.6763,
    "A1LO": 7,
    "A1HI": 56,
    "ANRIND": "NORMAL",
    "BNRIND": "NORMAL",
    "SHIFT1": "NORMAL -> NORMAL",
    "ADT": "2013-06-20",
    "ADY": 171,
    "AVISIT": "WEEK 24",
    "AVISITN": 9,
    "ABLFL": "",
    "ANL01FL": "Y",
    "SAFFL": "Y"
  },
  {
    "STUDYID": "CDISCPILOT01",
    "USUBJID": "01-701-003",
    "TRTP": "Placebo",
    "TRTPN": 0,
    "PARAMCD": "ALT",
    "PARAM": "Alanine Aminotransferase ( U/L )",
    "AVAL": 18.59,
    "BASE": 13.9,
    "CHG": 4.69,
    "PCHG": 33.741,
    "A1LO": 7,
    "A1HI": 56,
    "ANRIND": "NORMAL",
    "BNRIND": "NORMAL",
    "SHIFT1": "NORMAL -> NORMAL",
    "ADT": "2013-01-03",
    "ADY": 3,
    "AVISIT": "BASELINE",
    "AVISITN": 2,
    "ABLFL": "",
    "ANL01FL": "Y",
    "SAFFL": "Y"
  },
  {
    "STUDYID": "CDISCPILOT01",
    "USUBJID": "01-701-003",
    "TRTP": "Placebo",
    "TRTPN": 0,
    "PARAMCD": "ALT",
    "PARAM": "Alanine Aminotransferase ( U/L )",
    "AVAL": 13.01,
    "BASE": 13.9,
    "CHG": -0.89,
    "PCHG": -6.4029,
    "A1LO": 7,
    "A1HI": 56,
    "ANRIND": "NORMAL",
    "BNRIND": "NORMAL",
    "SHIFT1": "NORMAL -> NORMAL",
    "ADT": "2013-02-27",
    "ADY": 58,
    "AVISIT": "WEEK 8",
    "AVISITN": 5,
    "ABLFL": "",
    "ANL01FL": "Y",
    "SAFFL": "Y"
  },
  {
    "STUDYID": "CDISCPILOT01",
    "USUBJID": "01-701-003",
    "TRTP": "Placebo",
    "TRTPN": 0,
    "PARAMCD": "AST",
    "PARAM": "Aspartate Aminotransferase ( U/L )",
    "AVAL": 18.65,
    "BASE": 19.42,
    "CHG": -0.77,
    "PCHG": -3.965,
    "A1LO": 10,
    "A1HI": 40,
    "ANRIND": "NORMAL",
    "BNRIND": "NORMAL",
    "SHIFT1": "NORMAL -> NORMAL",
    "ADT": "2013-04-25",
    "ADY": 115,
    "AVISIT": "WEEK 16",
    "AVISITN": 7,
    "ABLFL": "",
    "ANL01FL": "Y",
    "SAFFL": "Y"
  },
  {
    "STUDYID": "CDISCPILOT01",
    "USUBJID": "01-701-003",
    "TRTP": "Placebo",
    "TRTPN": 0,
    "PARAMCD": "AST",
    "PARAM": "Aspartate Aminotransferase ( U/L )",
    "AVAL": 19.42,
    "BASE": 19.42,
    "CHG": 0,
    "PCHG": 0,
    "A1LO": 10,
    "A1HI": 40,
    "ANRIND": "NORMAL",
    "BNRIND": "NORMAL",
    "SHIFT1": "NORMAL -> NORMAL",
    "ADT": "2012-12-24",
    "ADY": -8,
    "AVISIT": "SCREENING",
    "AVISITN": 1,
    "ABLFL": "Y",
    "ANL01FL": "Y",
    "SAFFL": "Y"
  },
  {
    "STUDYID": "CDISCPILOT01",
    "USUBJID": "01-701-003",
    "TRTP": "Placebo",
    "TRTPN": 0,
    "PARAMCD": "AST",
    "PARAM": "Aspartate Aminotransferase ( U/L )",
    "AVAL": 20.9,
    "BASE": 19.42,
    "CHG": 1.48,
    "PCHG": 7.621,
    "A1LO": 10,
    "A1HI": 40,
    "ANRIND": "NORMAL",
    "BNRIND": "NORMAL",
    "SHIFT1": "NORMAL -> NORMAL",
    "ADT": "2013-01-01",
    "ADY": 1,
    "AVISIT": "BASELINE",
    "AVISITN": 2,
    "ABLFL": "",
    "ANL01FL": "Y",
    "SAFFL": "Y"
  },
  {
    "STUDYID": "CDISCPILOT01",
    "USUBJID": "01-701-003",
    "TRTP": "Placebo",
    "TRTPN": 0,
    "PARAMCD": "AST",
    "PARAM": "Aspartate Aminotransferase ( U/L )",
    "AVAL": 18.94,
    "BASE": 19.42,
    "CHG": -0.48,
    "PCHG": -2.4717,
    "A1LO": 10,
    "A1HI": 40,
    "ANRIND": "NORMAL",
    "BNRIND": "NORMAL",
    "SHIFT1": "NORMAL -> NORMAL",
    "ADT": "2013-06-18",
    "ADY": 169,
    "AVISIT": "WEEK 24",
    "AVISITN": 9,
    "ABLFL": "",
    "ANL01FL": "Y",
    "SAFFL": "Y"
  },
  {
    "STUDYID": "CDISCPILOT01",
    "USUBJID": "01-701-003",
    "TRTP": "Placebo",
    "TRTPN": 0,
    "PARAMCD": "AST",
    "PARAM": "Aspartate Aminotransferase ( U/L )",
    "AVAL": 19.3,
    "BASE": 19.42,
    "CHG": -0.12,
    "PCHG": -0.6179,
    "A1LO": 10,
    "A1HI": 40,
    "ANRIND": "NORMAL",
    "BNRIND": "NORMAL",
    "SHIFT1": "NORMAL -> NORMAL",
    "ADT": "2013-02-27",
    "ADY": 58,
    "AVISIT": "WEEK 8",
    "AVISITN": 5,
    "ABLFL": "",
    "ANL01FL": "Y",
    "SAFFL": "Y"
  },
  {
    "STUDYID": "CDISCPILOT01",
    "USUBJID": "01-701-003",
    "TRTP": "Placebo",
    "TRTPN": 0,
    "PARAMCD": "BILI",
    "PARAM": "Bilirubin ( mg/dL )",
    "AVAL": 0.43,
    "BASE": 0.44,
    "CHG": -0.01,
    "PCHG": -2.2727,
    "A1LO": 0.1,
    "A1HI": 1.2,
    "ANRIND": "NORMAL",
    "BNRIND": "NORMAL",
    "SHIFT1": "NORMAL -> NORMAL",
    "ADT": "2013-02-26",
    "ADY": 57,
    "AVISIT": "WEEK 8",
    "AVISITN": 5,
    "ABLFL": "",
    "ANL01FL": "Y",
    "SAFFL": "Y"
  },
  {
    "STUDYID": "CDISCPILOT01",
    "USUBJID": "01-701-003",
    "TRTP": "Placebo",
    "TRTPN": 0,
    "PARAMCD": "BILI",
    "PARAM": "Bilirubin ( mg/dL )",
    "AVAL": 0.43,
    "BASE": 0.44,
    "CHG": -0.01,
    "PCHG": -2.2727,
    "A1LO": 0.1,
    "A1HI": 1.2,
    "ANRIND": "NORMAL",
    "BNRIND": "NORMAL",
    "SHIFT1": "NORMAL -> NORMAL",
    "ADT": "2013-06-19",
    "ADY": 170,
    "AVISIT": "WEEK 24",
    "AVISITN": 9,
    "ABLFL": "",
    "ANL01FL": "Y",
    "SAFFL": "Y"
  },
  {
    "STUDYID": "CDISCPILOT01",
    "USUBJID": "01-701-003",
    "TRTP": "Placebo",
    "TRTPN": 0,
    "PARAMCD": "BILI",
    "PARAM": "Bilirubin ( mg/dL )",
    "AVAL": 0.46,
    "BASE": 0.44,
    "CHG": 0.02,
    "PCHG": 4.5455,
    "A1LO": 0.1,
    "A1HI": 1.2,
    "ANRIND": "NORMAL",
    "BNRIND": "NORMAL",
    "SHIFT1": "NORMAL -> NORMAL",
    "ADT": "2013-04-23",
    "ADY": 113,
    "AVISIT": "WEEK 16",
    "AVISITN": 7,
    "ABLFL": "",
    "ANL01FL": "Y",
    "SAFFL": "Y"
  },
  {
    "STUDYID": "CDISCPILOT01",
    "USUBJID": "01-701-003",
    "TRTP": "Placebo",
    "TRTPN": 0,
    "PARAMCD": "BILI",
    "PARAM": "Bilirubin ( mg/dL )",
    "AVAL": 0.44,
    "BASE": 0.44,
    "CHG": 0,
    "PCHG": 0,
    "A1LO": 0.1,
    "A1HI": 1.2,
    "ANRIND": "NORMAL",
    "BNRIND": "NORMAL",
    "SHIFT1": "NORMAL -> NORMAL",
    "ADT": "2012-12-26",
    "ADY": -6,
    "AVISIT": "SCREENING",
    "AVISITN": 1,
    "ABLFL": "Y",
    "ANL01FL": "Y",
    "SAFFL": "Y"
  },
  {
    "STUDYID": "CDISCPILOT01",
    "USUBJID": "01-701-003",
    "TRTP": "Placebo",
    "TRTPN": 0,
    "PARAMCD": "BILI",
    "PARAM": "Bilirubin ( mg/dL )",
    "AVAL": 0.43,
    "BASE": 0.44,
    "CHG": -0.01,
    "PCHG": -2.2727,
    "A1LO": 0.1,
    "A1HI": 1.2,
    "ANRIND": "NORMAL",
    "BNRIND": "NORMAL",
    "SHIFT1": "NORMAL -> NORMAL",
    "ADT": "2013-01-03",
    "ADY": 3,
    "AVISIT": "BASELINE",
    "AVISITN": 2,
    "ABLFL": "",
    "ANL01FL": "Y",
    "SAFFL": "Y"
  },
  {
    "STUDYID": "CDISCPILOT01",
    "USUBJID": "01-701-003",
    "TRTP": "Placebo",
    "TRTPN": 0,
    "PARAMCD": "BUN",
    "PARAM": "Blood Urea Nitrogen ( mg/dL )",
    "AVAL": 21.95,
    "BASE": 20.91,
    "CHG": 1.04,
    "PCHG": 4.9737,
    "A1LO": 8,
    "A1HI": 23,
    "ANRIND": "NORMAL",
    "BNRIND": "NORMAL",
    "SHIFT1": "NORMAL -> NORMAL",
    "ADT": "2013-01-03",
    "ADY": 3,
    "AVISIT": "BASELINE",
    "AVISITN": 2,
    "ABLFL": "",
    "ANL01FL": "Y",
    "SAFFL": "Y"
  },
  {
    "STUDYID": "CDISCPILOT01",
    "USUBJID": "01-701-003",
    "TRTP": "Placebo",
    "TRTPN": 0,
    "PARAMCD": "BUN",
    "PARAM": "Blood Urea Nitrogen ( mg/dL )",
    "AVAL": 21.03,
    "BASE": 20.91,
    "CHG": 0.12,
    "PCHG": 0.5739,
    "A1LO": 8,
    "A1HI": 23,
    "ANRIND": "NORMAL",
    "BNRIND": "NORMAL",
    "SHIFT1": "NORMAL -> NORMAL",
    "ADT": "2013-04-23",
    "ADY": 113,
    "AVISIT": "WEEK 16",
    "AVISITN": 7,
    "ABLFL": "",
    "ANL01FL": "Y",
    "SAFFL": "Y"
  },
  {
    "STUDYID": "CDISCPILOT01",
    "USUBJID": "01-701-003",
    "TRTP": "Placebo",
    "TRTPN": 0,
    "PARAMCD": "BUN",
    "PARAM": "Blood Urea Nitrogen ( mg/dL )",
    "AVAL": 20.71,
    "BASE": 20.91,
    "CHG": -0.2,
    "PCHG": -0.9565,
    "A1LO": 8,
    "A1HI": 23,
    "ANRIND": "NORMAL",
    "BNRIND": "NORMAL",
    "SHIFT1": "NORMAL -> NORMAL",
    "ADT": "2013-02-27",
    "ADY": 58,
    "AVISIT": "WEEK 8",
    "AVISITN": 5,
    "ABLFL": "",
    "ANL01FL": "Y",
    "SAFFL": "Y"
  },
  {
    "STUDYID": "CDISCPILOT01",
    "USUBJID": "01-701-003",
    "TRTP": "Placebo",
    "TRTPN": 0,
    "PARAMCD": "BUN",
    "PARAM": "Blood Urea Nitrogen ( mg/dL )",
    "AVAL": 20.87,
    "BASE": 20.91,
    "CHG": -0.04,
    "PCHG": -0.1913,
    "A1LO": 8,
    "A1HI": 23,
    "ANRIND": "NORMAL",
    "BNRIND": "NORMAL",
    "SHIFT1": "NORMAL -> NORMAL",
    "ADT": "2013-06-18",
    "ADY": 169,
    "AVISIT": "WEEK 24",
    "AVISITN": 9,
    "ABLFL": "",
    "ANL01FL": "Y",
    "SAFFL": "Y"
  },
  {
    "STUDYID": "CDISCPILOT01",
    "USUBJID": "01-701-003",
    "TRTP": "Placebo",
    "TRTPN": 0,
    "PARAMCD": "BUN",
    "PARAM": "Blood Urea Nitrogen ( mg/dL )",
    "AVAL": 20.91,
    "BASE": 20.91,
    "CHG": 0,
    "PCHG": 0,
    "A1LO": 8,
    "A1HI": 23,
    "ANRIND": "NORMAL",
    "BNRIND": "NORMAL",
    "SHIFT1": "NORMAL -> NORMAL",
    "ADT": "2012-12-24",
    "ADY": -8,
    "AVISIT": "SCREENING",
    "AVISITN": 1,
    "ABLFL": "Y",
    "ANL01FL": "Y",
    "SAFFL": "Y"
  },
  {
    "STUDYID": "CDISCPILOT01",
    "USUBJID": "01-701-003",
    "TRTP": "Placebo",
    "TRTPN": 0,
    "PARAMCD": "CHLORIDE",
    "PARAM": "Chloride ( mmol/L )",
    "AVAL": 103.08,
    "BASE": 103.08,
    "CHG": 0,
    "PCHG": 0,
    "A1LO": 98,
    "A1HI": 106,
    "ANRIND": "NORMAL",
    "BNRIND": "NORMAL",
    "SHIFT1": "NORMAL -> NORMAL",
    "ADT": "2012-12-24",
    "ADY": -8,
    "AVISIT": "SCREENING",
    "AVISITN": 1,
    "ABLFL": "Y",
    "ANL01FL": "Y",
    "SAFFL": "Y"
  },
  {
    "STUDYID": "CDISCPILOT01",
    "USUBJID": "01-701-003",
    "TRTP": "Placebo",
    "TRTPN": 0,
    "PARAMCD": "CHLORIDE",
    "PARAM": "Chloride ( mmol/L )",
    "AVAL": 102.83,
    "BASE": 103.08,
    "CHG": -0.25,
    "PCHG": -0.2425,
    "A1LO": 98,
    "A1HI": 106,
    "ANRIND": "NORMAL",
    "BNRIND": "NORMAL",
    "SHIFT1": "NORMAL -> NORMAL",
    "ADT": "2013-02-26",
    "ADY": 57,
    "AVISIT": "WEEK 8",
    "AVISITN": 5,
    "ABLFL": "",
    "ANL01FL": "Y",
    "SAFFL": "Y"
  },
  {
    "STUDYID": "CDISCPILOT01",
    "USUBJID": "01-701-003",
    "TRTP": "Placebo",
    "TRTPN": 0,
    "PARAMCD": "CHLORIDE",
    "PARAM": "Chloride ( mmol/L )",
    "AVAL": 103.11,
    "BASE": 103.08,
    "CHG": 0.03,
    "PCHG": 0.0291,
    "A1LO": 98,
    "A1HI": 106,
    "ANRIND": "NORMAL",
    "BNRIND": "NORMAL",
    "SHIFT1": "NORMAL -> NORMAL",
    "ADT": "2013-04-24",
    "ADY": 114,
    "AVISIT": "WEEK 16",
    "AVISITN": 7,
    "ABLFL": "",
    "ANL01FL": "Y",
    "SAFFL": "Y"
  },
  {
    "STUDYID": "CDISCPILOT01",
    "USUBJID": "01-701-003",
    "TRTP": "Placebo",
    "TRTPN": 0,
    "PARAMCD": "CHLORIDE",
    "PARAM": "Chloride ( mmol/L )",
    "AVAL": 102.88,
    "BASE": 103.08,
    "CHG": -0.2,
    "PCHG": -0.194,
    "A1LO": 98,
    "A1HI": 106,
    "ANRIND": "NORMAL",
    "BNRIND": "NORMAL",
    "SHIFT1": "NORMAL -> NORMAL",
    "ADT": "2013-01-02",
    "ADY": 2,
    "AVISIT": "BASELINE",
    "AVISITN": 2,
    "ABLFL": "",
    "ANL01FL": "Y",
    "SAFFL": "Y"
  },
  {
    "STUDYID": "CDISCPILOT01",
    "USUBJID": "01-701-003",
    "TRTP": "Placebo",
    "TRTPN": 0,
    "PARAMCD": "CHLORIDE",
    "PARAM": "Chloride ( mmol/L )",
    "AVAL": 103.34,
    "BASE": 103.08,
    "CHG": 0.26,
    "PCHG": 0.2522,
    "A1LO": 98,
    "A1HI": 106,
    "ANRIND": "NORMAL",
    "BNRIND": "NORMAL",
    "SHIFT1": "NORMAL -> NORMAL",
    "ADT": "2013-06-18",
    "ADY": 169,
    "AVISIT": "WEEK 24",
    "AVISITN": 9,
    "ABLFL": "",
    "ANL01FL": "Y",
    "SAFFL": "Y"
  },
  {
    "STUDYID": "CDISCPILOT01",
    "USUBJID": "01-701-003",
    "TRTP": "Placebo",
    "TRTPN": 0,
    "PARAMCD": "CREAT",
    "PARAM": "Creatinine ( mg/dL )",
    "AVAL": 0.66,
    "BASE": 0.72,
    "CHG": -0.06,
    "PCHG": -8.3333,
    "A1LO": 0.7,
    "A1HI": 1.3,
    "ANRIND": "LOW",
    "BNRIND": "NORMAL",
    "SHIFT1": "NORMAL -> LOW",
    "ADT": "2013-02-26",
    "ADY": 57,
    "AVISIT": "WEEK 8",
    "AVISITN": 5,
    "ABLFL": "",
    "ANL01FL": "Y",
    "SAFFL": "Y"
  },
  {
    "STUDYID": "CDISCPILOT01",
    "USUBJID": "01-701-003",
    "TRTP": "Placebo",
    "TRTPN": 0,
    "PARAMCD": "CREAT",
    "PARAM": "Creatinine ( mg/dL )",
    "AVAL": 0.77,
    "BASE": 0.72,
    "CHG": 0.05,
    "PCHG": 6.9444,
    "A1LO": 0.7,
    "A1HI": 1.3,
    "ANRIND": "NORMAL",
    "BNRIND": "NORMAL",
    "SHIFT1": "NORMAL -> NORMAL",
    "ADT": "2013-04-24",
    "ADY": 114,
    "AVISIT": "WEEK 16",
    "AVISITN": 7,
    "ABLFL": "",
    "ANL01FL": "Y",
    "SAFFL": "Y"
  },
  {
    "STUDYID": "CDISCPILOT01",
    "USUBJID": "01-701-003",
    "TRTP": "Placebo",
    "TRTPN": 0,
    "PARAMCD": "CREAT",
    "PARAM": "Creatinine ( mg/dL )",
    "AVAL": 0.72,
    "BASE": 0.72,
    "CHG": 0,
    "PCHG": 0,
    "A1LO": 0.7,
    "A1HI": 1.3,
    "ANRIND": "NORMAL",
    "BNRIND": "NORMAL",
    "SHIFT1": "NORMAL -> NORMAL",
    "ADT": "2012-12-24",
    "ADY": -8,
    "AVISIT": "SCREENING",
    "AVISITN": 1,
    "ABLFL": "Y",
    "ANL01FL": "Y",
    "SAFFL": "Y"
  },
  {
    "STUDYID": "CDISCPILOT01",
    "USUBJID": "01-701-003",
    "TRTP": "Placebo",
    "TRTPN": 0,
    "PARAMCD": "CREAT",
    "PARAM": "Creatinine ( mg/dL )",
    "AVAL": 0.73,
    "BASE": 0.72,
    "CHG": 0.01,
    "PCHG": 1.3889,
    "A1LO": 0.7,
    "A1HI": 1.3,
    "ANRIND": "NORMAL",
    "BNRIND": "NORMAL",
    "SHIFT1": "NORMAL -> NORMAL",
    "ADT": "2013-01-02",
    "ADY": 2,
    "AVISIT": "BASELINE",
    "AVISITN": 2,
    "ABLFL": "",
    "ANL01FL": "Y",
    "SAFFL": "Y"
  },
  {
    "STUDYID": "CDISCPILOT01",
    "USUBJID": "01-701-003",
    "TRTP": "Placebo",
    "TRTPN": 0,
    "PARAMCD": "CREAT",
    "PARAM": "Creatinine ( mg/dL )",
    "AVAL": 0.71,
    "BASE": 0.72,
    "CHG": -0.01,
    "PCHG": -1.3889,
    "A1LO": 0.7,
    "A1HI": 1.3,
    "ANRIND": "NORMAL",
    "BNRIND": "NORMAL",
    "SHIFT1": "NORMAL -> NORMAL",
    "ADT": "2013-06-19",
    "ADY": 170,
    "AVISIT": "WEEK 24",
    "AVISITN": 9,
    "ABLFL": "",
    "ANL01FL": "Y",
    "SAFFL": "Y"
  },
  {
    "STUDYID": "CDISCPILOT01",
    "USUBJID": "01-701-003",
    "TRTP": "Placebo",
    "TRTPN": 0,
    "PARAMCD": "GLUC",
    "PARAM": "Glucose ( mg/dL )",
    "AVAL": 106.15,
    "BASE": 106.15,
    "CHG": 0,
    "PCHG": 0,
    "A1LO": 70,
    "A1HI": 110,
    "ANRIND": "NORMAL",
    "BNRIND": "NORMAL",
    "SHIFT1": "NORMAL -> NORMAL",
    "ADT": "2012-12-25",
    "ADY": -7,
    "AVISIT": "SCREENING",
    "AVISITN": 1,
    "ABLFL": "Y",
    "ANL01FL": "Y",
    "SAFFL": "Y"
  },
  {
    "STUDYID": "CDISCPILOT01",
    "USUBJID": "01-701-003",
    "TRTP": "Placebo",
    "TRTPN": 0,
    "PARAMCD": "GLUC",
    "PARAM": "Glucose ( mg/dL )",
    "AVAL": 107.74,
    "BASE": 106.15,
    "CHG": 1.59,
    "PCHG": 1.4979,
    "A1LO": 70,
    "A1HI": 110,
    "ANRIND": "NORMAL",
    "BNRIND": "NORMAL",
    "SHIFT1": "NORMAL -> NORMAL",
    "ADT": "2013-01-03",
    "ADY": 3,
    "AVISIT": "BASELINE",
    "AVISITN": 2,
    "ABLFL": "",
    "ANL01FL": "Y",
    "SAFFL": "Y"
  },
  {
    "STUDYID": "CDISCPILOT01",
    "USUBJID": "01-701-003",
    "TRTP": "Placebo",
    "TRTPN": 0,
    "PARAMCD": "GLUC",
    "PARAM": "Glucose ( mg/dL )",
    "AVAL": 102.86,
    "BASE": 106.15,
    "CHG": -3.29,
    "PCHG": -3.0994,
    "A1LO": 70,
    "A1HI": 110,
    "ANRIND": "NORMAL",
    "BNRIND": "NORMAL",
    "SHIFT1": "NORMAL -> NORMAL",
    "ADT": "2013-04-23",
    "ADY": 113,
    "AVISIT": "WEEK 16",
    "AVISITN": 7,
    "ABLFL": "",
    "ANL01FL": "Y",
    "SAFFL": "Y"
  },
  {
    "STUDYID": "CDISCPILOT01",
    "USUBJID": "01-701-003",
    "TRTP": "Placebo",
    "TRTPN": 0,
    "PARAMCD": "GLUC",
    "PARAM": "Glucose ( mg/dL )",
    "AVAL": 109.64,
    "BASE": 106.15,
    "CHG": 3.49,
    "PCHG": 3.2878,
    "A1LO": 70,
    "A1HI": 110,
    "ANRIND": "NORMAL",
    "BNRIND": "NORMAL",
    "SHIFT1": "NORMAL -> NORMAL",
    "ADT": "2013-02-27",
    "ADY": 58,
    "AVISIT": "WEEK 8",
    "AVISITN": 5,
    "ABLFL": "",
    "ANL01FL": "Y",
    "SAFFL": "Y"
  },
  {
    "STUDYID": "CDISCPILOT01",
    "USUBJID": "01-701-003",
    "TRTP": "Placebo",
    "TRTPN": 0,
    "PARAMCD": "GLUC",
    "PARAM": "Glucose ( mg/dL )",
    "AVAL": 106.25,
    "BASE": 106.15,
    "CHG": 0.1,
    "PCHG": 0.0942,
    "A1LO": 70,
    "A1HI": 110,
    "ANRIND": "NORMAL",
    "BNRIND": "NORMAL",
    "SHIFT1": "NORMAL -> NORMAL",
    "ADT": "2013-06-19",
    "ADY": 170,
    "AVISIT": "WEEK 24",
    "AVISITN": 9,
    "ABLFL": "",
    "ANL01FL": "Y",
    "SAFFL": "Y"
  },
  {
    "STUDYID": "CDISCPILOT01",
    "USUBJID": "01-701-003",
    "TRTP": "Placebo",
    "TRTPN": 0,
    "PARAMCD": "HCT",
    "PARAM": "Hematocrit ( % )",
    "AVAL": 38.52,
    "BASE": 37.45,
    "CHG": 1.07,
    "PCHG": 2.8571,
    "A1LO": 36,
    "A1HI": 44,
    "ANRIND": "NORMAL",
    "BNRIND": "NORMAL",
    "SHIFT1": "NORMAL -> NORMAL",
    "ADT": "2013-06-20",
    "ADY": 171,
    "AVISIT": "WEEK 24",
    "AVISITN": 9,
    "ABLFL": "",
    "ANL01FL": "Y",
    "SAFFL": "Y"
  },
  {
    "STUDYID": "CDISCPILOT01",
    "USUBJID": "01-701-003",
    "TRTP": "Placebo",
    "TRTPN": 0,
    "PARAMCD": "HCT",
    "PARAM": "Hematocrit ( % )",
    "AVAL": 37.45,
    "BASE": 37.45,
    "CHG": 0,
    "PCHG": 0,
    "A1LO": 36,
    "A1HI": 44,
    "ANRIND": "NORMAL",
    "BNRIND": "NORMAL",
    "SHIFT1": "NORMAL -> NORMAL",
    "ADT": "2012-12-26",
    "ADY": -6,
    "AVISIT": "SCREENING",
    "AVISITN": 1,
    "ABLFL": "Y",
    "ANL01FL": "Y",
    "SAFFL": "Y"
  },
  {
    "STUDYID": "CDISCPILOT01",
    "USUBJID": "01-701-003",
    "TRTP": "Placebo",
    "TRTPN": 0,
    "PARAMCD": "HCT",
    "PARAM": "Hematocrit ( % )",
    "AVAL": 37.54,
    "BASE": 37.45,
    "CHG": 0.09,
    "PCHG": 0.2403,
    "A1LO": 36,
    "A1HI": 44,
    "ANRIND": "NORMAL",
    "BNRIND": "NORMAL",
    "SHIFT1": "NORMAL -> NORMAL",
    "ADT": "2013-02-27",
    "ADY": 58,
    "AVISIT": "WEEK 8",
    "AVISITN": 5,
    "ABLFL": "",
    "ANL01FL": "Y",
    "SAFFL": "Y"
  },
  {
    "STUDYID": "CDISCPILOT01",
    "USUBJID": "01-701-003",
    "TRTP": "Placebo",
    "TRTPN": 0,
    "PARAMCD": "HCT",
    "PARAM": "Hematocrit ( % )",
    "AVAL": 37.51,
    "BASE": 37.45,
    "CHG": 0.06,
    "PCHG": 0.1602,
    "A1LO": 36,
    "A1HI": 44,
    "ANRIND": "NORMAL",
    "BNRIND": "NORMAL",
    "SHIFT1": "NORMAL -> NORMAL",
    "ADT": "2013-01-01",
    "ADY": 1,
    "AVISIT": "BASELINE",
    "AVISITN": 2,
    "ABLFL": "",
    "ANL01FL": "Y",
    "SAFFL": "Y"
  },
  {
    "STUDYID": "CDISCPILOT01",
    "USUBJID": "01-701-003",
    "TRTP": "Placebo",
    "TRTPN": 0,
    "PARAMCD": "HCT",
    "PARAM": "Hematocrit ( % )",
    "AVAL": 37.89,
    "BASE": 37.45,
    "CHG": 0.44,
    "PCHG": 1.1749,
    "A1LO": 36,
    "A1HI": 44,
    "ANRIND": "NORMAL",
    "BNRIND": "NORMAL",
    "SHIFT1": "NORMAL -> NORMAL",
    "ADT": "2013-04-23",
    "ADY": 113,
    "AVISIT": "WEEK 16",
    "AVISITN": 7,
    "ABLFL": "",
    "ANL01FL": "Y",
    "SAFFL": "Y"
  },
  {
    "STUDYID": "CDISCPILOT01",
    "USUBJID": "01-701-003",
    "TRTP": "Placebo",
    "TRTPN": 0,
    "PARAMCD": "HGB",
    "PARAM": "Hemoglobin ( g/dL )",
    "AVAL": 10.5,
    "BASE": 10.5,
    "CHG": 0,
    "PCHG": 0,
    "A1LO": 12,
    "A1HI": 15.5,
    "ANRIND": "LOW",
    "BNRIND": "LOW",
    "SHIFT1": "LOW -> LOW",
    "ADT": "2012-12-26",
    "ADY": -6,
    "AVISIT": "SCREENING",
    "AVISITN": 1,
    "ABLFL": "Y",
    "ANL01FL": "Y",
    "SAFFL": "Y"
  },
  {
    "STUDYID": "CDISCPILOT01",
    "USUBJID": "01-701-003",
    "TRTP": "Placebo",
    "TRTPN": 0,
    "PARAMCD": "HGB",
    "PARAM": "Hemoglobin ( g/dL )",
    "AVAL": 10.67,
    "BASE": 10.5,
    "CHG": 0.17,
    "PCHG": 1.619,
    "A1LO": 12,
    "A1HI": 15.5,
    "ANRIND": "LOW",
    "BNRIND": "LOW",
    "SHIFT1": "LOW -> LOW",
    "ADT": "2013-02-26",
    "ADY": 57,
    "AVISIT": "WEEK 8",
    "AVISITN": 5,
    "ABLFL": "",
    "ANL01FL": "Y",
    "SAFFL": "Y"
  },
  {
    "STUDYID": "CDISCPILOT01",
    "USUBJID": "01-701-003",
    "TRTP": "Placebo",
    "TRTPN": 0,
    "PARAMCD": "HGB",
    "PARAM": "Hemoglobin ( g/dL )",
    "AVAL": 10.42,
    "BASE": 10.5,
    "CHG": -0.08,
    "PCHG": -0.7619,
    "A1LO": 12,
    "A1HI": 15.5,
    "ANRIND": "LOW",
    "BNRIND": "LOW",
    "SHIFT1": "LOW -> LOW",
    "ADT": "2013-01-02",
    "ADY": 2,
    "AVISIT": "BASELINE",
    "AVISITN": 2,
    "ABLFL": "",
    "ANL01FL": "Y",
    "SAFFL": "Y"
  },
  {
    "STUDYID": "CDISCPILOT01",
    "USUBJID": "01-701-003",
    "TRTP": "Placebo",
    "TRTPN": 0,
    "PARAMCD": "HGB",
    "PARAM": "Hemoglobin ( g/dL )",
    "AVAL": 10.36,
    "BASE": 10.5,
    "CHG": -0.14,
    "PCHG": -1.3333,
    "A1LO": 12,
    "A1HI": 15.5,
    "ANRIND": "LOW",
    "BNRIND": "LOW",
    "SHIFT1": "LOW -> LOW",
    "ADT": "2013-04-24",
    "ADY": 114,
    "AVISIT": "WEEK 16",
    "AVISITN": 7,
    "ABLFL": "",
    "ANL01FL": "Y",
    "SAFFL": "Y"
  },
  {
    "STUDYID": "CDISCPILOT01",
    "USUBJID": "01-701-003",
    "TRTP": "Placebo",
    "TRTPN": 0,
    "PARAMCD": "HGB",
    "PARAM": "Hemoglobin ( g/dL )",
    "AVAL": 10.62,
    "BASE": 10.5,
    "CHG": 0.12,
    "PCHG": 1.1429,
    "A1LO": 12,
    "A1HI": 15.5,
    "ANRIND": "LOW",
    "BNRIND": "LOW",
    "SHIFT1": "LOW -> LOW",
    "ADT": "2013-06-19",
    "ADY": 170,
    "AVISIT": "WEEK 24",
    "AVISITN": 9,
    "ABLFL": "",
    "ANL01FL": "Y",
    "SAFFL": "Y"
  },
  {
    "STUDYID": "CDISCPILOT01",
    "USUBJID": "01-701-003",
    "TRTP": "Placebo",
    "TRTPN": 0,
    "PARAMCD": "PLT",
    "PARAM": "Platelets ( 10^9/L )",
    "AVAL": 181.65,
    "BASE": 182.21,
    "CHG": -0.56,
    "PCHG": -0.3073,
    "A1LO": 150,
    "A1HI": 400,
    "ANRIND": "NORMAL",
    "BNRIND": "NORMAL",
    "SHIFT1": "NORMAL -> NORMAL",
    "ADT": "2013-06-20",
    "ADY": 171,
    "AVISIT": "WEEK 24",
    "AVISITN": 9,
    "ABLFL": "",
    "ANL01FL": "Y",
    "SAFFL": "Y"
  },
  {
    "STUDYID": "CDISCPILOT01",
    "USUBJID": "01-701-003",
    "TRTP": "Placebo",
    "TRTPN": 0,
    "PARAMCD": "PLT",
    "PARAM": "Platelets ( 10^9/L )",
    "AVAL": 188.83,
    "BASE": 182.21,
    "CHG": 6.62,
    "PCHG": 3.6332,
    "A1LO": 150,
    "A1HI": 400,
    "ANRIND": "NORMAL",
    "BNRIND": "NORMAL",
    "SHIFT1": "NORMAL -> NORMAL",
    "ADT": "2013-01-02",
    "ADY": 2,
    "AVISIT": "BASELINE",
    "AVISITN": 2,
    "ABLFL": "",
    "ANL01FL": "Y",
    "SAFFL": "Y"
  },
  {
    "STUDYID": "CDISCPILOT01",
    "USUBJID": "01-701-003",
    "TRTP": "Placebo",
    "TRTPN": 0,
    "PARAMCD": "PLT",
    "PARAM": "Platelets ( 10^9/L )",
    "AVAL": 182.21,
    "BASE": 182.21,
    "CHG": 0,
    "PCHG": 0,
    "A1LO": 150,
    "A1HI": 400,
    "ANRIND": "NORMAL",
    "BNRIND": "NORMAL",
    "SHIFT1": "NORMAL -> NORMAL",
    "ADT": "2012-12-24",
    "ADY": -8,
    "AVISIT": "SCREENING",
    "AVISITN": 1,
    "ABLFL": "Y",
    "ANL01FL": "Y",
    "SAFFL": "Y"
  },
  {
    "STUDYID": "CDISCPILOT01",
    "USUBJID": "01-701-003",
    "TRTP": "Placebo",
    "TRTPN": 0,
    "PARAMCD": "PLT",
    "PARAM": "Platelets ( 10^9/L )",
    "AVAL": 177.24,
    "BASE": 182.21,
    "CHG": -4.97,
    "PCHG": -2.7276,
    "A1LO": 150,
    "A1HI": 400,
    "ANRIND": "NORMAL",
    "BNRIND": "NORMAL",
    "SHIFT1": "NORMAL -> NORMAL",
    "ADT": "2013-02-28",
    "ADY": 59,
    "AVISIT": "WEEK 8",
    "AVISITN": 5,
    "ABLFL": "",
    "ANL01FL": "Y",
    "SAFFL": "Y"
  },
  {
    "STUDYID": "CDISCPILOT01",
    "USUBJID": "01-701-003",
    "TRTP": "Placebo",
    "TRTPN": 0,
    "PARAMCD": "PLT",
    "PARAM": "Platelets ( 10^9/L )",
    "AVAL": 187.42,
    "BASE": 182.21,
    "CHG": 5.21,
    "PCHG": 2.8593,
    "A1LO": 150,
    "A1HI": 400,
    "ANRIND": "NORMAL",
    "BNRIND": "NORMAL",
    "SHIFT1": "NORMAL -> NORMAL",
    "ADT": "2013-04-23",
    "ADY": 113,
    "AVISIT": "WEEK 16",
    "AVISITN": 7,
    "ABLFL": "",
    "ANL01FL": "Y",
    "SAFFL": "Y"
  },
  {
    "STUDYID": "CDISCPILOT01",
    "USUBJID": "01-701-003",
    "TRTP": "Placebo",
    "TRTPN": 0,
    "PARAMCD": "POTASSIUM",
    "PARAM": "Potassium ( mmol/L )",
    "AVAL": 4.2,
    "BASE": 4.23,
    "CHG": -0.03,
    "PCHG": -0.7092,
    "A1LO": 3.5,
    "A1HI": 5,
    "ANRIND": "NORMAL",
    "BNRIND": "NORMAL",
    "SHIFT1": "NORMAL -> NORMAL",
    "ADT": "2013-02-26",
    "ADY": 57,
    "AVISIT": "WEEK 8",
    "AVISITN": 5,
    "ABLFL": "",
    "ANL01FL": "Y",
    "SAFFL": "Y"
  },
  {
    "STUDYID": "CDISCPILOT01",
    "USUBJID": "01-701-003",
    "TRTP": "Placebo",
    "TRTPN": 0,
    "PARAMCD": "POTASSIUM",
    "PARAM": "Potassium ( mmol/L )",
    "AVAL": 4.23,
    "BASE": 4.23,
    "CHG": 0,
    "PCHG": 0,
    "A1LO": 3.5,
    "A1HI": 5,
    "ANRIND": "NORMAL",
    "BNRIND": "NORMAL",
    "SHIFT1": "NORMAL -> NORMAL",
    "ADT": "2012-12-24",
    "ADY": -8,
    "AVISIT": "SCREENING",
    "AVISITN": 1,
    "ABLFL": "Y",
    "ANL01FL": "Y",
    "SAFFL": "Y"
  },
  {
    "STUDYID": "CDISCPILOT01",
    "USUBJID": "01-701-003",
    "TRTP": "Placebo",
    "TRTPN": 0,
    "PARAMCD": "POTASSIUM",
    "PARAM": "Potassium ( mmol/L )",
    "AVAL": 4.18,
    "BASE": 4.23,
    "CHG": -0.05,
    "PCHG": -1.182,
    "A1LO": 3.5,
    "A1HI": 5,
    "ANRIND": "NORMAL",
    "BNRIND": "NORMAL",
    "SHIFT1": "NORMAL -> NORMAL",
    "ADT": "2013-01-02",
    "ADY": 2,
    "AVISIT": "BASELINE",
    "AVISITN": 2,
    "ABLFL": "",
    "ANL01FL": "Y",
    "SAFFL": "Y"
  },
  {
    "STUDYID": "CDISCPILOT01",
    "USUBJID": "01-701-003",
    "TRTP": "Placebo",
    "TRTPN": 0,
    "PARAMCD": "POTASSIUM",
    "PARAM": "Potassium ( mmol/L )",
    "AVAL": 4.23,
    "BASE": 4.23,
    "CHG": 0,
    "PCHG": 0,
    "A1LO": 3.5,
    "A1HI": 5,
    "ANRIND": "NORMAL",
    "BNRIND": "NORMAL",
    "SHIFT1": "NORMAL -> NORMAL",
    "ADT": "2013-04-23",
    "ADY": 113,
    "AVISIT": "WEEK 16",
    "AVISITN": 7,
    "ABLFL": "",
    "ANL01FL": "Y",
    "SAFFL": "Y"
  },
  {
    "STUDYID": "CDISCPILOT01",
    "USUBJID": "01-701-003",
    "TRTP": "Placebo",
    "TRTPN": 0,
    "PARAMCD": "POTASSIUM",
    "PARAM": "Potassium ( mmol/L )",
    "AVAL": 4.17,
    "BASE": 4.23,
    "CHG": -0.06,
    "PCHG": -1.4184,
    "A1LO": 3.5,
    "A1HI": 5,
    "ANRIND": "NORMAL",
    "BNRIND": "NORMAL",
    "SHIFT1": "NORMAL -> NORMAL",
    "ADT": "2013-06-18",
    "ADY": 169,
    "AVISIT": "WEEK 24",
    "AVISITN": 9,
    "ABLFL": "",
    "ANL01FL": "Y",
    "SAFFL": "Y"
  },
  {
    "STUDYID": "CDISCPILOT01",
    "USUBJID": "01-701-003",
    "TRTP": "Placebo",
    "TRTPN": 0,
    "PARAMCD": "RBC",
    "PARAM": "Red Blood Cells ( 10^12/L )",
    "AVAL": 4.11,
    "BASE": 4.11,
    "CHG": 0,
    "PCHG": 0,
    "A1LO": 4,
    "A1HI": 5,
    "ANRIND": "NORMAL",
    "BNRIND": "NORMAL",
    "SHIFT1": "NORMAL -> NORMAL",
    "ADT": "2012-12-24",
    "ADY": -8,
    "AVISIT": "SCREENING",
    "AVISITN": 1,
    "ABLFL": "Y",
    "ANL01FL": "Y",
    "SAFFL": "Y"
  },
  {
    "STUDYID": "CDISCPILOT01",
    "USUBJID": "01-701-003",
    "TRTP": "Placebo",
    "TRTPN": 0,
    "PARAMCD": "RBC",
    "PARAM": "Red Blood Cells ( 10^12/L )",
    "AVAL": 4.13,
    "BASE": 4.11,
    "CHG": 0.02,
    "PCHG": 0.4866,
    "A1LO": 4,
    "A1HI": 5,
    "ANRIND": "NORMAL",
    "BNRIND": "NORMAL",
    "SHIFT1": "NORMAL -> NORMAL",
    "ADT": "2013-01-02",
    "ADY": 2,
    "AVISIT": "BASELINE",
    "AVISITN": 2,
    "ABLFL": "",
    "ANL01FL": "Y",
    "SAFFL": "Y"
  },
  {
    "STUDYID": "CDISCPILOT01",
    "USUBJID": "01-701-003",
    "TRTP": "Placebo",
    "TRTPN": 0,
    "PARAMCD": "RBC",
    "PARAM": "Red Blood Cells ( 10^12/L )",
    "AVAL": 4.15,
    "BASE": 4.11,
    "CHG": 0.04,
    "PCHG": 0.9732,
    "A1LO": 4,
    "A1HI": 5,
    "ANRIND": "NORMAL",
    "BNRIND": "NORMAL",
    "SHIFT1": "NORMAL -> NORMAL",
    "ADT": "2013-04-25",
    "ADY": 115,
    "AVISIT": "WEEK 16",
    "AVISITN": 7,
    "ABLFL": "",
    "ANL01FL": "Y",
    "SAFFL": "Y"
  },
  {
    "STUDYID": "CDISCPILOT01",
    "USUBJID": "01-701-003",
    "TRTP": "Placebo",
    "TRTPN": 0,
    "PARAMCD": "RBC",
    "PARAM": "Red Blood Cells ( 10^12/L )",
    "AVAL": 4.12,
    "BASE": 4.11,
    "CHG": 0.01,
    "PCHG": 0.2433,
    "A1LO": 4,
    "A1HI": 5,
    "ANRIND": "NORMAL",
    "BNRIND": "NORMAL",
    "SHIFT1": "NORMAL -> NORMAL",
    "ADT": "2013-06-20",
    "ADY": 171,
    "AVISIT": "WEEK 24",
    "AVISITN": 9,
    "ABLFL": "",
    "ANL01FL": "Y",
    "SAFFL": "Y"
  },
  {
    "STUDYID": "CDISCPILOT01",
    "USUBJID": "01-701-003",
    "TRTP": "Placebo",
    "TRTPN": 0,
    "PARAMCD": "RBC",
    "PARAM": "Red Blood Cells ( 10^12/L )",
    "AVAL": 4.13,
    "BASE": 4.11,
    "CHG": 0.02,
    "PCHG": 0.4866,
    "A1LO": 4,
    "A1HI": 5,
    "ANRIND": "NORMAL",
    "BNRIND": "NORMAL",
    "SHIFT1": "NORMAL -> NORMAL",
    "ADT": "2013-02-28",
    "ADY": 59,
    "AVISIT": "WEEK 8",
    "AVISITN": 5,
    "ABLFL": "",
    "ANL01FL": "Y",
    "SAFFL": "Y"
  },
  {
    "STUDYID": "CDISCPILOT01",
    "USUBJID": "01-701-003",
    "TRTP": "Placebo",
    "TRTPN": 0,
    "PARAMCD": "SODIUM",
    "PARAM": "Sodium ( mmol/L )",
    "AVAL": 142.21,
    "BASE": 142.33,
    "CHG": -0.12,
    "PCHG": -0.0843,
    "A1LO": 136,
    "A1HI": 145,
    "ANRIND": "NORMAL",
    "BNRIND": "NORMAL",
    "SHIFT1": "NORMAL -> NORMAL",
    "ADT": "2013-01-03",
    "ADY": 3,
    "AVISIT": "BASELINE",
    "AVISITN": 2,
    "ABLFL": "",
    "ANL01FL": "Y",
    "SAFFL": "Y"
  },
  {
    "STUDYID": "CDISCPILOT01",
    "USUBJID": "01-701-003",
    "TRTP": "Placebo",
    "TRTPN": 0,
    "PARAMCD": "SODIUM",
    "PARAM": "Sodium ( mmol/L )",
    "AVAL": 142.6,
    "BASE": 142.33,
    "CHG": 0.27,
    "PCHG": 0.1897,
    "A1LO": 136,
    "A1HI": 145,
    "ANRIND": "NORMAL",
    "BNRIND": "NORMAL",
    "SHIFT1": "NORMAL -> NORMAL",
    "ADT": "2013-02-28",
    "ADY": 59,
    "AVISIT": "WEEK 8",
    "AVISITN": 5,
    "ABLFL": "",
    "ANL01FL": "Y",
    "SAFFL": "Y"
  },
  {
    "STUDYID": "CDISCPILOT01",
    "USUBJID": "01-701-003",
    "TRTP": "Placebo",
    "TRTPN": 0,
    "PARAMCD": "SODIUM",
    "PARAM": "Sodium ( mmol/L )",
    "AVAL": 142.34,
    "BASE": 142.33,
    "CHG": 0.01,
    "PCHG": 0.007,
    "A1LO": 136,
    "A1HI": 145,
    "ANRIND": "NORMAL",
    "BNRIND": "NORMAL",
    "SHIFT1": "NORMAL -> NORMAL",
    "ADT": "2013-06-20",
    "ADY": 171,
    "AVISIT": "WEEK 24",
    "AVISITN": 9,
    "ABLFL": "",
    "ANL01FL": "Y",
    "SAFFL": "Y"
  },
  {
    "STUDYID": "CDISCPILOT01",
    "USUBJID": "01-701-003",
    "TRTP": "Placebo",
    "TRTPN": 0,
    "PARAMCD": "SODIUM",
    "PARAM": "Sodium ( mmol/L )",
    "AVAL": 143.18,
    "BASE": 142.33,
    "CHG": 0.85,
    "PCHG": 0.5972,
    "A1LO": 136,
    "A1HI": 145,
    "ANRIND": "NORMAL",
    "BNRIND": "NORMAL",
    "SHIFT1": "NORMAL -> NORMAL",
    "ADT": "2013-04-25",
    "ADY": 115,
    "AVISIT": "WEEK 16",
    "AVISITN": 7,
    "ABLFL": "",
    "ANL01FL": "Y",
    "SAFFL": "Y"
  },
  {
    "STUDYID": "CDISCPILOT01",
    "USUBJID": "01-701-003",
    "TRTP": "Placebo",
    "TRTPN": 0,
    "PARAMCD": "SODIUM",
    "PARAM": "Sodium ( mmol/L )",
    "AVAL": 142.33,
    "BASE": 142.33,
    "CHG": 0,
    "PCHG": 0,
    "A1LO": 136,
    "A1HI": 145,
    "ANRIND": "NORMAL",
    "BNRIND": "NORMAL",
    "SHIFT1": "NORMAL -> NORMAL",
    "ADT": "2012-12-24",
    "ADY": -8,
    "AVISIT": "SCREENING",
    "AVISITN": 1,
    "ABLFL": "Y",
    "ANL01FL": "Y",
    "SAFFL": "Y"
  },
  {
    "STUDYID": "CDISCPILOT01",
    "USUBJID": "01-701-003",
    "TRTP": "Placebo",
    "TRTPN": 0,
    "PARAMCD": "WBC",
    "PARAM": "White Blood Cells ( 10^9/L )",
    "AVAL": 7.24,
    "BASE": 7.24,
    "CHG": 0,
    "PCHG": 0,
    "A1LO": 4,
    "A1HI": 11,
    "ANRIND": "NORMAL",
    "BNRIND": "NORMAL",
    "SHIFT1": "NORMAL -> NORMAL",
    "ADT": "2012-12-26",
    "ADY": -6,
    "AVISIT": "SCREENING",
    "AVISITN": 1,
    "ABLFL": "Y",
    "ANL01FL": "Y",
    "SAFFL": "Y"
  },
  {
    "STUDYID": "CDISCPILOT01",
    "USUBJID": "01-701-003",
    "TRTP": "Placebo",
    "TRTPN": 0,
    "PARAMCD": "WBC",
    "PARAM": "White Blood Cells ( 10^9/L )",
    "AVAL": 7.26,
    "BASE": 7.24,
    "CHG": 0.02,
    "PCHG": 0.2762,
    "A1LO": 4,
    "A1HI": 11,
    "ANRIND": "NORMAL",
    "BNRIND": "NORMAL",
    "SHIFT1": "NORMAL -> NORMAL",
    "ADT": "2013-04-24",
    "ADY": 114,
    "AVISIT": "WEEK 16",
    "AVISITN": 7,
    "ABLFL": "",
    "ANL01FL": "Y",
    "SAFFL": "Y"
  },
  {
    "STUDYID": "CDISCPILOT01",
    "USUBJID": "01-701-003",
    "TRTP": "Placebo",
    "TRTPN": 0,
    "PARAMCD": "WBC",
    "PARAM": "White Blood Cells ( 10^9/L )",
    "AVAL": 7.08,
    "BASE": 7.24,
    "CHG": -0.16,
    "PCHG": -2.2099,
    "A1LO": 4,
    "A1HI": 11,
    "ANRIND": "NORMAL",
    "BNRIND": "NORMAL",
    "SHIFT1": "NORMAL -> NORMAL",
    "ADT": "2013-01-03",
    "ADY": 3,
    "AVISIT": "BASELINE",
    "AVISITN": 2,
    "ABLFL": "",
    "ANL01FL": "Y",
    "SAFFL": "Y"
  },
  {
    "STUDYID": "CDISCPILOT01",
    "USUBJID": "01-701-003",
    "TRTP": "Placebo",
    "TRTPN": 0,
    "PARAMCD": "WBC",
    "PARAM": "White Blood Cells ( 10^9/L )",
    "AVAL": 7.56,
    "BASE": 7.24,
    "CHG": 0.32,
    "PCHG": 4.4199,
    "A1LO": 4,
    "A1HI": 11,
    "ANRIND": "NORMAL",
    "BNRIND": "NORMAL",
    "SHIFT1": "NORMAL -> NORMAL",
    "ADT": "2013-02-27",
    "ADY": 58,
    "AVISIT": "WEEK 8",
    "AVISITN": 5,
    "ABLFL": "",
    "ANL01FL": "Y",
    "SAFFL": "Y"
  },
  {
    "STUDYID": "CDISCPILOT01",
    "USUBJID": "01-701-003",
    "TRTP": "Placebo",
    "TRTPN": 0,
    "PARAMCD": "WBC",
    "PARAM": "White Blood Cells ( 10^9/L )",
    "AVAL": 7.16,
    "BASE": 7.24,
    "CHG": -0.08,
    "PCHG": -1.105,
    "A1LO": 4,
    "A1HI": 11,
    "ANRIND": "NORMAL",
    "BNRIND": "NORMAL",
    "SHIFT1": "NORMAL -> NORMAL",
    "ADT": "2013-06-19",
    "ADY": 170,
    "AVISIT": "WEEK 24",
    "AVISITN": 9,
    "ABLFL": "",
    "ANL01FL": "Y",
    "SAFFL": "Y"
  },
  {
    "STUDYID": "CDISCPILOT01",
    "USUBJID": "01-701-004",
    "TRTP": "Xanomeline High Dose",
    "TRTPN": 2,
    "PARAMCD": "ALB",
    "PARAM": "Albumin ( g/dL )",
    "AVAL": 3.75,
    "BASE": 3.73,
    "CHG": 0.02,
    "PCHG": 0.5362,
    "A1LO": 3.5,
    "A1HI": 5,
    "ANRIND": "NORMAL",
    "BNRIND": "NORMAL",
    "SHIFT1": "NORMAL -> NORMAL",
    "ADT": "2013-10-21",
    "ADY": 59,
    "AVISIT": "WEEK 8",
    "AVISITN": 5,
    "ABLFL": "",
    "ANL01FL": "Y",
    "SAFFL": "Y"
  },
  {
    "STUDYID": "CDISCPILOT01",
    "USUBJID": "01-701-004",
    "TRTP": "Xanomeline High Dose",
    "TRTPN": 2,
    "PARAMCD": "ALB",
    "PARAM": "Albumin ( g/dL )",
    "AVAL": 3.73,
    "BASE": 3.73,
    "CHG": 0,
    "PCHG": 0,
    "A1LO": 3.5,
    "A1HI": 5,
    "ANRIND": "NORMAL",
    "BNRIND": "NORMAL",
    "SHIFT1": "NORMAL -> NORMAL",
    "ADT": "2013-08-17",
    "ADY": -7,
    "AVISIT": "SCREENING",
    "AVISITN": 1,
    "ABLFL": "Y",
    "ANL01FL": "Y",
    "SAFFL": "Y"
  },
  {
    "STUDYID": "CDISCPILOT01",
    "USUBJID": "01-701-004",
    "TRTP": "Xanomeline High Dose",
    "TRTPN": 2,
    "PARAMCD": "ALB",
    "PARAM": "Albumin ( g/dL )",
    "AVAL": 3.74,
    "BASE": 3.73,
    "CHG": 0.01,
    "PCHG": 0.2681,
    "A1LO": 3.5,
    "A1HI": 5,
    "ANRIND": "NORMAL",
    "BNRIND": "NORMAL",
    "SHIFT1": "NORMAL -> NORMAL",
    "ADT": "2013-08-24",
    "ADY": 1,
    "AVISIT": "BASELINE",
    "AVISITN": 2,
    "ABLFL": "",
    "ANL01FL": "Y",
    "SAFFL": "Y"
  },
  {
    "STUDYID": "CDISCPILOT01",
    "USUBJID": "01-701-004",
    "TRTP": "Xanomeline High Dose",
    "TRTPN": 2,
    "PARAMCD": "ALP",
    "PARAM": "Alkaline Phosphatase ( U/L )",
    "AVAL": 79.49,
    "BASE": 76.75,
    "CHG": 2.74,
    "PCHG": 3.57,
    "A1LO": 44,
    "A1HI": 147,
    "ANRIND": "NORMAL",
    "BNRIND": "NORMAL",
    "SHIFT1": "NORMAL -> NORMAL",
    "ADT": "2013-08-24",
    "ADY": 1,
    "AVISIT": "BASELINE",
    "AVISITN": 2,
    "ABLFL": "",
    "ANL01FL": "Y",
    "SAFFL": "Y"
  },
  {
    "STUDYID": "CDISCPILOT01",
    "USUBJID": "01-701-004",
    "TRTP": "Xanomeline High Dose",
    "TRTPN": 2,
    "PARAMCD": "ALP",
    "PARAM": "Alkaline Phosphatase ( U/L )",
    "AVAL": 73.96,
    "BASE": 76.75,
    "CHG": -2.79,
    "PCHG": -3.6352,
    "A1LO": 44,
    "A1HI": 147,
    "ANRIND": "NORMAL",
    "BNRIND": "NORMAL",
    "SHIFT1": "NORMAL -> NORMAL",
    "ADT": "2013-10-19",
    "ADY": 57,
    "AVISIT": "WEEK 8",
    "AVISITN": 5,
    "ABLFL": "",
    "ANL01FL": "Y",
    "SAFFL": "Y"
  },
  {
    "STUDYID": "CDISCPILOT01",
    "USUBJID": "01-701-004",
    "TRTP": "Xanomeline High Dose",
    "TRTPN": 2,
    "PARAMCD": "ALP",
    "PARAM": "Alkaline Phosphatase ( U/L )",
    "AVAL": 76.75,
    "BASE": 76.75,
    "CHG": 0,
    "PCHG": 0,
    "A1LO": 44,
    "A1HI": 147,
    "ANRIND": "NORMAL",
    "BNRIND": "NORMAL",
    "SHIFT1": "NORMAL -> NORMAL",
    "ADT": "2013-08-17",
    "ADY": -7,
    "AVISIT": "SCREENING",
    "AVISITN": 1,
    "ABLFL": "Y",
    "ANL01FL": "Y",
    "SAFFL": "Y"
  },
  {
    "STUDYID": "CDISCPILOT01",
    "USUBJID": "01-701-004",
    "TRTP": "Xanomeline High Dose",
    "TRTPN": 2,
    "PARAMCD": "ALT",
    "PARAM": "Alanine Aminotransferase ( U/L )",
    "AVAL": 17.99,
    "BASE": 17.99,
    "CHG": 0,
    "PCHG": 0,
    "A1LO": 7,
    "A1HI": 56,
    "ANRIND": "NORMAL",
    "BNRIND": "NORMAL",
    "SHIFT1": "NORMAL -> NORMAL",
    "ADT": "2013-08-18",
    "ADY": -6,
    "AVISIT": "SCREENING",
    "AVISITN": 1,
    "ABLFL": "Y",
    "ANL01FL": "Y",
    "SAFFL": "Y"
  },
  {
    "STUDYID": "CDISCPILOT01",
    "USUBJID": "01-701-004",
    "TRTP": "Xanomeline High Dose",
    "TRTPN": 2,
    "PARAMCD": "ALT",
    "PARAM": "Alanine Aminotransferase ( U/L )",
    "AVAL": 15.58,
    "BASE": 17.99,
    "CHG": -2.41,
    "PCHG": -13.3963,
    "A1LO": 7,
    "A1HI": 56,
    "ANRIND": "NORMAL",
    "BNRIND": "NORMAL",
    "SHIFT1": "NORMAL -> NORMAL",
    "ADT": "2013-10-19",
    "ADY": 57,
    "AVISIT": "WEEK 8",
    "AVISITN": 5,
    "ABLFL": "",
    "ANL01FL": "Y",
    "SAFFL": "Y"
  },
  {
    "STUDYID": "CDISCPILOT01",
    "USUBJID": "01-701-004",
    "TRTP": "Xanomeline High Dose",
    "TRTPN": 2,
    "PARAMCD": "ALT",
    "PARAM": "Alanine Aminotransferase ( U/L )",
    "AVAL": 19.88,
    "BASE": 17.99,
    "CHG": 1.89,
    "PCHG": 10.5058,
    "A1LO": 7,
    "A1HI": 56,
    "ANRIND": "NORMAL",
    "BNRIND": "NORMAL",
    "SHIFT1": "NORMAL -> NORMAL",
    "ADT": "2013-08-24",
    "ADY": 1,
    "AVISIT": "BASELINE",
    "AVISITN": 2,
    "ABLFL": "",
    "ANL01FL": "Y",
    "SAFFL": "Y"
  },
  {
    "STUDYID": "CDISCPILOT01",
    "USUBJID": "01-701-004",
    "TRTP": "Xanomeline High Dose",
    "TRTPN": 2,
    "PARAMCD": "AST",
    "PARAM": "Aspartate Aminotransferase ( U/L )",
    "AVAL": 6,
    "BASE": 5.93,
    "CHG": 0.07,
    "PCHG": 1.1804,
    "A1LO": 10,
    "A1HI": 40,
    "ANRIND": "LOW",
    "BNRIND": "LOW",
    "SHIFT1": "LOW -> LOW",
    "ADT": "2013-08-24",
    "ADY": 1,
    "AVISIT": "BASELINE",
    "AVISITN": 2,
    "ABLFL": "",
    "ANL01FL": "Y",
    "SAFFL": "Y"
  },
  {
    "STUDYID": "CDISCPILOT01",
    "USUBJID": "01-701-004",
    "TRTP": "Xanomeline High Dose",
    "TRTPN": 2,
    "PARAMCD": "AST",
    "PARAM": "Aspartate Aminotransferase ( U/L )",
    "AVAL": 2.75,
    "BASE": 5.93,
    "CHG": -3.18,
    "PCHG": -53.6256,
    "A1LO": 10,
    "A1HI": 40,
    "ANRIND": "LOW",
    "BNRIND": "LOW",
    "SHIFT1": "LOW -> LOW",
    "ADT": "2013-10-20",
    "ADY": 58,
    "AVISIT": "WEEK 8",
    "AVISITN": 5,
    "ABLFL": "",
    "ANL01FL": "Y",
    "SAFFL": "Y"
  },
  {
    "STUDYID": "CDISCPILOT01",
    "USUBJID": "01-701-004",
    "TRTP": "Xanomeline High Dose",
    "TRTPN": 2,
    "PARAMCD": "AST",
    "PARAM": "Aspartate Aminotransferase ( U/L )",
    "AVAL": 5.93,
    "BASE": 5.93,
    "CHG": 0,
    "PCHG": 0,
    "A1LO": 10,
    "A1HI": 40,
    "ANRIND": "LOW",
    "BNRIND": "LOW",
    "SHIFT1": "LOW -> LOW",
    "ADT": "2013-08-17",
    "ADY": -7,
    "AVISIT": "SCREENING",
    "AVISITN": 1,
    "ABLFL": "Y",
    "ANL01FL": "Y",
    "SAFFL": "Y"
  },
  {
    "STUDYID": "CDISCPILOT01",
    "USUBJID": "01-701-004",
    "TRTP": "Xanomeline High Dose",
    "TRTPN": 2,
    "PARAMCD": "BILI",
    "PARAM": "Bilirubin ( mg/dL )",
    "AVAL": 0.44,
    "BASE": 0.41,
    "CHG": 0.03,
    "PCHG": 7.3171,
    "A1LO": 0.1,
    "A1HI": 1.2,
    "ANRIND": "NORMAL",
    "BNRIND": "NORMAL",
    "SHIFT1": "NORMAL -> NORMAL",
    "ADT": "2013-10-20",
    "ADY": 58,
    "AVISIT": "WEEK 8",
    "AVISITN": 5,
    "ABLFL": "",
    "ANL01FL": "Y",
    "SAFFL": "Y"
  },
  {
    "STUDYID": "CDISCPILOT01",
    "USUBJID": "01-701-004",
    "TRTP": "Xanomeline High Dose",
    "TRTPN": 2,
    "PARAMCD": "BILI",
    "PARAM": "Bilirubin ( mg/dL )",
    "AVAL": 0.41,
    "BASE": 0.41,
    "CHG": 0,
    "PCHG": 0,
    "A1LO": 0.1,
    "A1HI": 1.2,
    "ANRIND": "NORMAL",
    "BNRIND": "NORMAL",
    "SHIFT1": "NORMAL -> NORMAL",
    "ADT": "2013-08-16",
    "ADY": -8,
    "AVISIT": "SCREENING",
    "AVISITN": 1,
    "ABLFL": "Y",
    "ANL01FL": "Y",
    "SAFFL": "Y"
  },
  {
    "STUDYID": "CDISCPILOT01",
    "USUBJID": "01-701-004",
    "TRTP": "Xanomeline High Dose",
    "TRTPN": 2,
    "PARAMCD": "BILI",
    "PARAM": "Bilirubin ( mg/dL )",
    "AVAL": 0.42,
    "BASE": 0.41,
    "CHG": 0.01,
    "PCHG": 2.439,
    "A1LO": 0.1,
    "A1HI": 1.2,
    "ANRIND": "NORMAL",
    "BNRIND": "NORMAL",
    "SHIFT1": "NORMAL -> NORMAL",
    "ADT": "2013-08-25",
    "ADY": 2,
    "AVISIT": "BASELINE",
    "AVISITN": 2,
    "ABLFL": "",
    "ANL01FL": "Y",
    "SAFFL": "Y"
  },
  {
    "STUDYID": "CDISCPILOT01",
    "USUBJID": "01-701-004",
    "TRTP": "Xanomeline High Dose",
    "TRTPN": 2,
    "PARAMCD": "BUN",
    "PARAM": "Blood Urea Nitrogen ( mg/dL )",
    "AVAL": 29.23,
    "BASE": 28.23,
    "CHG": 1,
    "PCHG": 3.5423,
    "A1LO": 8,
    "A1HI": 23,
    "ANRIND": "HIGH",
    "BNRIND": "HIGH",
    "SHIFT1": "HIGH -> HIGH",
    "ADT": "2013-08-24",
    "ADY": 1,
    "AVISIT": "BASELINE",
    "AVISITN": 2,
    "ABLFL": "",
    "ANL01FL": "Y",
    "SAFFL": "Y"
  },
  {
    "STUDYID": "CDISCPILOT01",
    "USUBJID": "01-701-004",
    "TRTP": "Xanomeline High Dose",
    "TRTPN": 2,
    "PARAMCD": "BUN",
    "PARAM": "Blood Urea Nitrogen ( mg/dL )",
    "AVAL": 28.15,
    "BASE": 28.23,
    "CHG": -0.08,
    "PCHG": -0.2834,
    "A1LO": 8,
    "A1HI": 23,
    "ANRIND": "HIGH",
    "BNRIND": "HIGH",
    "SHIFT1": "HIGH -> HIGH",
    "ADT": "2013-10-19",
    "ADY": 57,
    "AVISIT": "WEEK 8",
    "AVISITN": 5,
    "ABLFL": "",
    "ANL01FL": "Y",
    "SAFFL": "Y"
  },
  {
    "STUDYID": "CDISCPILOT01",
    "USUBJID": "01-701-004",
    "TRTP": "Xanomeline High Dose",
    "TRTPN": 2,
    "PARAMCD": "BUN",
    "PARAM": "Blood Urea Nitrogen ( mg/dL )",
    "AVAL": 28.23,
    "BASE": 28.23,
    "CHG": 0,
    "PCHG": 0,
    "A1LO": 8,
    "A1HI": 23,
    "ANRIND": "HIGH",
    "BNRIND": "HIGH",
    "SHIFT1": "HIGH -> HIGH",
    "ADT": "2013-08-18",
    "ADY": -6,
    "AVISIT": "SCREENING",
    "AVISITN": 1,
    "ABLFL": "Y",
    "ANL01FL": "Y",
    "SAFFL": "Y"
  },
  {
    "STUDYID": "CDISCPILOT01",
    "USUBJID": "01-701-004",
    "TRTP": "Xanomeline High Dose",
    "TRTPN": 2,
    "PARAMCD": "CHLORIDE",
    "PARAM": "Chloride ( mmol/L )",
    "AVAL": 104.95,
    "BASE": 104.95,
    "CHG": 0,
    "PCHG": 0,
    "A1LO": 98,
    "A1HI": 106,
    "ANRIND": "NORMAL",
    "BNRIND": "NORMAL",
    "SHIFT1": "NORMAL -> NORMAL",
    "ADT": "2013-08-18",
    "ADY": -6,
    "AVISIT": "SCREENING",
    "AVISITN": 1,
    "ABLFL": "Y",
    "ANL01FL": "Y",
    "SAFFL": "Y"
  },
  {
    "STUDYID": "CDISCPILOT01",
    "USUBJID": "01-701-004",
    "TRTP": "Xanomeline High Dose",
    "TRTPN": 2,
    "PARAMCD": "CHLORIDE",
    "PARAM": "Chloride ( mmol/L )",
    "AVAL": 105.06,
    "BASE": 104.95,
    "CHG": 0.11,
    "PCHG": 0.1048,
    "A1LO": 98,
    "A1HI": 106,
    "ANRIND": "NORMAL",
    "BNRIND": "NORMAL",
    "SHIFT1": "NORMAL -> NORMAL",
    "ADT": "2013-08-25",
    "ADY": 2,
    "AVISIT": "BASELINE",
    "AVISITN": 2,
    "ABLFL": "",
    "ANL01FL": "Y",
    "SAFFL": "Y"
  },
  {
    "STUDYID": "CDISCPILOT01",
    "USUBJID": "01-701-004",
    "TRTP": "Xanomeline High Dose",
    "TRTPN": 2,
    "PARAMCD": "CHLORIDE",
    "PARAM": "Chloride ( mmol/L )",
    "AVAL": 104.26,
    "BASE": 104.95,
    "CHG": -0.69,
    "PCHG": -0.6575,
    "A1LO": 98,
    "A1HI": 106,
    "ANRIND": "NORMAL",
    "BNRIND": "NORMAL",
    "SHIFT1": "NORMAL -> NORMAL",
    "ADT": "2013-10-20",
    "ADY": 58,
    "AVISIT": "WEEK 8",
    "AVISITN": 5,
    "ABLFL": "",
    "ANL01FL": "Y",
    "SAFFL": "Y"
  },
  {
    "STUDYID": "CDISCPILOT01",
    "USUBJID": "01-701-004",
    "TRTP": "Xanomeline High Dose",
    "TRTPN": 2,
    "PARAMCD": "CREAT",
    "PARAM": "Creatinine ( mg/dL )",
    "AVAL": 0.86,
    "BASE": 0.88,
    "CHG": -0.02,
    "PCHG": -2.2727,
    "A1LO": 0.7,
    "A1HI": 1.3,
    "ANRIND": "NORMAL",
    "BNRIND": "NORMAL",
    "SHIFT1": "NORMAL -> NORMAL",
    "ADT": "2013-08-26",
    "ADY": 3,
    "AVISIT": "BASELINE",
    "AVISITN": 2,
    "ABLFL": "",
    "ANL01FL": "Y",
    "SAFFL": "Y"
  },
  {
    "STUDYID": "CDISCPILOT01",
    "USUBJID": "01-701-004",
    "TRTP": "Xanomeline High Dose",
    "TRTPN": 2,
    "PARAMCD": "CREAT",
    "PARAM": "Creatinine ( mg/dL )",
    "AVAL": 0.88,
    "BASE": 0.88,
    "CHG": 0,
    "PCHG": 0,
    "A1LO": 0.7,
    "A1HI": 1.3,
    "ANRIND": "NORMAL",
    "BNRIND": "NORMAL",
    "SHIFT1": "NORMAL -> NORMAL",
    "ADT": "2013-08-16",
    "ADY": -8,
    "AVISIT": "SCREENING",
    "AVISITN": 1,
    "ABLFL": "Y",
    "ANL01FL": "Y",
    "SAFFL": "Y"
  },
  {
    "STUDYID": "CDISCPILOT01",
    "USUBJID": "01-701-004",
    "TRTP": "Xanomeline High Dose",
    "TRTPN": 2,
    "PARAMCD": "CREAT",
    "PARAM": "Creatinine ( mg/dL )",
    "AVAL": 0.87,
    "BASE": 0.88,
    "CHG": -0.01,
    "PCHG": -1.1364,
    "A1LO": 0.7,
    "A1HI": 1.3,
    "ANRIND": "NORMAL",
    "BNRIND": "NORMAL",
    "SHIFT1": "NORMAL -> NORMAL",
    "ADT": "2013-10-19",
    "ADY": 57,
    "AVISIT": "WEEK 8",
    "AVISITN": 5,
    "ABLFL": "",
    "ANL01FL": "Y",
    "SAFFL": "Y"
  },
  {
    "STUDYID": "CDISCPILOT01",
    "USUBJID": "01-701-004",
    "TRTP": "Xanomeline High Dose",
    "TRTPN": 2,
    "PARAMCD": "GLUC",
    "PARAM": "Glucose ( mg/dL )",
    "AVAL": 111.26,
    "BASE": 113.5,
    "CHG": -2.24,
    "PCHG": -1.9736,
    "A1LO": 70,
    "A1HI": 110,
    "ANRIND": "HIGH",
    "BNRIND": "HIGH",
    "SHIFT1": "HIGH -> HIGH",
    "ADT": "2013-08-26",
    "ADY": 3,
    "AVISIT": "BASELINE",
    "AVISITN": 2,
    "ABLFL": "",
    "ANL01FL": "Y",
    "SAFFL": "Y"
  },
  {
    "STUDYID": "CDISCPILOT01",
    "USUBJID": "01-701-004",
    "TRTP": "Xanomeline High Dose",
    "TRTPN": 2,
    "PARAMCD": "GLUC",
    "PARAM": "Glucose ( mg/dL )",
    "AVAL": 113.5,
    "BASE": 113.5,
    "CHG": 0,
    "PCHG": 0,
    "A1LO": 70,
    "A1HI": 110,
    "ANRIND": "HIGH",
    "BNRIND": "HIGH",
    "SHIFT1": "HIGH -> HIGH",
    "ADT": "2013-08-18",
    "ADY": -6,
    "AVISIT": "SCREENING",
    "AVISITN": 1,
    "ABLFL": "Y",
    "ANL01FL": "Y",
    "SAFFL": "Y"
  },
  {
    "STUDYID": "CDISCPILOT01",
    "USUBJID": "01-701-004",
    "TRTP": "Xanomeline High Dose",
    "TRTPN": 2,
    "PARAMCD": "GLUC",
    "PARAM": "Glucose ( mg/dL )",
    "AVAL": 115.32,
    "BASE": 113.5,
    "CHG": 1.82,
    "PCHG": 1.6035,
    "A1LO": 70,
    "A1HI": 110,
    "ANRIND": "HIGH",
    "BNRIND": "HIGH",
    "SHIFT1": "HIGH -> HIGH",
    "ADT": "2013-10-21",
    "ADY": 59,
    "AVISIT": "WEEK 8",
    "AVISITN": 5,
    "ABLFL": "",
    "ANL01FL": "Y",
    "SAFFL": "Y"
  },
  {
    "STUDYID": "CDISCPILOT01",
    "USUBJID": "01-701-004",
    "TRTP": "Xanomeline High Dose",
    "TRTPN": 2,
    "PARAMCD": "HCT",
    "PARAM": "Hematocrit ( % )",
    "AVAL": 37.35,
    "BASE": 37.26,
    "CHG": 0.09,
    "PCHG": 0.2415,
    "A1LO": 36,
    "A1HI": 44,
    "ANRIND": "NORMAL",
    "BNRIND": "NORMAL",
    "SHIFT1": "NORMAL -> NORMAL",
    "ADT": "2013-10-20",
    "ADY": 58,
    "AVISIT": "WEEK 8",
    "AVISITN": 5,
    "ABLFL": "",
    "ANL01FL": "Y",
    "SAFFL": "Y"
  },
  {
    "STUDYID": "CDISCPILOT01",
    "USUBJID": "01-701-004",
    "TRTP": "Xanomeline High Dose",
    "TRTPN": 2,
    "PARAMCD": "HCT",
    "PARAM": "Hematocrit ( % )",
    "AVAL": 37.26,
    "BASE": 37.26,
    "CHG": 0,
    "PCHG": 0,
    "A1LO": 36,
    "A1HI": 44,
    "ANRIND": "NORMAL",
    "BNRIND": "NORMAL",
    "SHIFT1": "NORMAL -> NORMAL",
    "ADT": "2013-08-17",
    "ADY": -7,
    "AVISIT": "SCREENING",
    "AVISITN": 1,
    "ABLFL": "Y",
    "ANL01FL": "Y",
    "SAFFL": "Y"
  },
  {
    "STUDYID": "CDISCPILOT01",
    "USUBJID": "01-701-004",
    "TRTP": "Xanomeline High Dose",
    "TRTPN": 2,
    "PARAMCD": "HCT",
    "PARAM": "Hematocrit ( % )",
    "AVAL": 37.8,
    "BASE": 37.26,
    "CHG": 0.54,
    "PCHG": 1.4493,
    "A1LO": 36,
    "A1HI": 44,
    "ANRIND": "NORMAL",
    "BNRIND": "NORMAL",
    "SHIFT1": "NORMAL -> NORMAL",
    "ADT": "2013-08-24",
    "ADY": 1,
    "AVISIT": "BASELINE",
    "AVISITN": 2,
    "ABLFL": "",
    "ANL01FL": "Y",
    "SAFFL": "Y"
  },
  {
    "STUDYID": "CDISCPILOT01",
    "USUBJID": "01-701-004",
    "TRTP": "Xanomeline High Dose",
    "TRTPN": 2,
    "PARAMCD": "HGB",
    "PARAM": "Hemoglobin ( g/dL )",
    "AVAL": 13.64,
    "BASE": 13.64,
    "CHG": 0,
    "PCHG": 0,
    "A1LO": 12,
    "A1HI": 15.5,
    "ANRIND": "NORMAL",
    "BNRIND": "NORMAL",
    "SHIFT1": "NORMAL -> NORMAL",
    "ADT": "2013-08-16",
    "ADY": -8,
    "AVISIT": "SCREENING",
    "AVISITN": 1,
    "ABLFL": "Y",
    "ANL01FL": "Y",
    "SAFFL": "Y"
  },
  {
    "STUDYID": "CDISCPILOT01",
    "USUBJID": "01-701-004",
    "TRTP": "Xanomeline High Dose",
    "TRTPN": 2,
    "PARAMCD": "HGB",
    "PARAM": "Hemoglobin ( g/dL )",
    "AVAL": 13.42,
    "BASE": 13.64,
    "CHG": -0.22,
    "PCHG": -1.6129,
    "A1LO": 12,
    "A1HI": 15.5,
    "ANRIND": "NORMAL",
    "BNRIND": "NORMAL",
    "SHIFT1": "NORMAL -> NORMAL",
    "ADT": "2013-10-19",
    "ADY": 57,
    "AVISIT": "WEEK 8",
    "AVISITN": 5,
    "ABLFL": "",
    "ANL01FL": "Y",
    "SAFFL": "Y"
  },
  {
    "STUDYID": "CDISCPILOT01",
    "USUBJID": "01-701-004",
    "TRTP": "Xanomeline High Dose",
    "TRTPN": 2,
    "PARAMCD": "HGB",
    "PARAM": "Hemoglobin ( g/dL )",
    "AVAL": 13.74,
    "BASE": 13.64,
    "CHG": 0.1,
    "PCHG": 0.7331,
    "A1LO": 12,
    "A1HI": 15.5,
    "ANRIND": "NORMAL",
    "BNRIND": "NORMAL",
    "SHIFT1": "NORMAL -> NORMAL",
    "ADT": "2013-08-26",
    "ADY": 3,
    "AVISIT": "BASELINE",
    "AVISITN": 2,
    "ABLFL": "",
    "ANL01FL": "Y",
    "SAFFL": "Y"
  },
  {
    "STUDYID": "CDISCPILOT01",
    "USUBJID": "01-701-004",
    "TRTP": "Xanomeline High Dose",
    "TRTPN": 2,
    "PARAMCD": "PLT",
    "PARAM": "Platelets ( 10^9/L )",
    "AVAL": 201.39,
    "BASE": 196.58,
    "CHG": 4.81,
    "PCHG": 2.4468,
    "A1LO": 150,
    "A1HI": 400,
    "ANRIND": "NORMAL",
    "BNRIND": "NORMAL",
    "SHIFT1": "NORMAL -> NORMAL",
    "ADT": "2013-10-19",
    "ADY": 57,
    "AVISIT": "WEEK 8",
    "AVISITN": 5,
    "ABLFL": "",
    "ANL01FL": "Y",
    "SAFFL": "Y"
  },
  {
    "STUDYID": "CDISCPILOT01",
    "USUBJID": "01-701-004",
    "TRTP": "Xanomeline High Dose",
    "TRTPN": 2,
    "PARAMCD": "PLT",
    "PARAM": "Platelets ( 10^9/L )",
    "AVAL": 197.35,
    "BASE": 196.58,
    "CHG": 0.77,
    "PCHG": 0.3917,
    "A1LO": 150,
    "A1HI": 400,
    "ANRIND": "NORMAL",
    "BNRIND": "NORMAL",
    "SHIFT1": "NORMAL -> NORMAL",
    "ADT": "2013-08-25",
    "ADY": 2,
    "AVISIT": "BASELINE",
    "AVISITN": 2,
    "ABLFL": "",
    "ANL01FL": "Y",
    "SAFFL": "Y"
  },
  {
    "STUDYID": "CDISCPILOT01",
    "USUBJID": "01-701-004",
    "TRTP": "Xanomeline High Dose",
    "TRTPN": 2,
    "PARAMCD": "PLT",
    "PARAM": "Platelets ( 10^9/L )",
    "AVAL": 196.58,
    "BASE": 196.58,
    "CHG": 0,
    "PCHG": 0,
    "A1LO": 150,
    "A1HI": 400,
    "ANRIND": "NORMAL",
    "BNRIND": "NORMAL",
    "SHIFT1": "NORMAL -> NORMAL",
    "ADT": "2013-08-18",
    "ADY": -6,
    "AVISIT": "SCREENING",
    "AVISITN": 1,
    "ABLFL": "Y",
    "ANL01FL": "Y",
    "SAFFL": "Y"
  },
  {
    "STUDYID": "CDISCPILOT01",
    "USUBJID": "01-701-004",
    "TRTP": "Xanomeline High Dose",
    "TRTPN": 2,
    "PARAMCD": "POTASSIUM",
    "PARAM": "Potassium ( mmol/L )",
    "AVAL": 4.21,
    "BASE": 4.21,
    "CHG": 0,
    "PCHG": 0,
    "A1LO": 3.5,
    "A1HI": 5,
    "ANRIND": "NORMAL",
    "BNRIND": "NORMAL",
    "SHIFT1": "NORMAL -> NORMAL",
    "ADT": "2013-08-18",
    "ADY": -6,
    "AVISIT": "SCREENING",
    "AVISITN": 1,
    "ABLFL": "Y",
    "ANL01FL": "Y",
    "SAFFL": "Y"
  },
  {
    "STUDYID": "CDISCPILOT01",
    "USUBJID": "01-701-004",
    "TRTP": "Xanomeline High Dose",
    "TRTPN": 2,
    "PARAMCD": "POTASSIUM",
    "PARAM": "Potassium ( mmol/L )",
    "AVAL": 4.13,
    "BASE": 4.21,
    "CHG": -0.08,
    "PCHG": -1.9002,
    "A1LO": 3.5,
    "A1HI": 5,
    "ANRIND": "NORMAL",
    "BNRIND": "NORMAL",
    "SHIFT1": "NORMAL -> NORMAL",
    "ADT": "2013-10-19",
    "ADY": 57,
    "AVISIT": "WEEK 8",
    "AVISITN": 5,
    "ABLFL": "",
    "ANL01FL": "Y",
    "SAFFL": "Y"
  },
  {
    "STUDYID": "CDISCPILOT01",
    "USUBJID": "01-701-004",
    "TRTP": "Xanomeline High Dose",
    "TRTPN": 2,
    "PARAMCD": "POTASSIUM",
    "PARAM": "Potassium ( mmol/L )",
    "AVAL": 4.23,
    "BASE": 4.21,
    "CHG": 0.02,
    "PCHG": 0.4751,
    "A1LO": 3.5,
    "A1HI": 5,
    "ANRIND": "NORMAL",
    "BNRIND": "NORMAL",
    "SHIFT1": "NORMAL -> NORMAL",
    "ADT": "2013-08-25",
    "ADY": 2,
    "AVISIT": "BASELINE",
    "AVISITN": 2,
    "ABLFL": "",
    "ANL01FL": "Y",
    "SAFFL": "Y"
  },
  {
    "STUDYID": "CDISCPILOT01",
    "USUBJID": "01-701-004",
    "TRTP": "Xanomeline High Dose",
    "TRTPN": 2,
    "PARAMCD": "RBC",
    "PARAM": "Red Blood Cells ( 10^12/L )",
    "AVAL": 4.16,
    "BASE": 4.23,
    "CHG": -0.07,
    "PCHG": -1.6548,
    "A1LO": 4,
    "A1HI": 5,
    "ANRIND": "NORMAL",
    "BNRIND": "NORMAL",
    "SHIFT1": "NORMAL -> NORMAL",
    "ADT": "2013-08-25",
    "ADY": 2,
    "AVISIT": "BASELINE",
    "AVISITN": 2,
    "ABLFL": "",
    "ANL01FL": "Y",
    "SAFFL": "Y"
  },
  {
    "STUDYID": "CDISCPILOT01",
    "USUBJID": "01-701-004",
    "TRTP": "Xanomeline High Dose",
    "TRTPN": 2,
    "PARAMCD": "RBC",
    "PARAM": "Red Blood Cells ( 10^12/L )",
    "AVAL": 4.23,
    "BASE": 4.23,
    "CHG": 0,
    "PCHG": 0,
    "A1LO": 4,
    "A1HI": 5,
    "ANRIND": "NORMAL",
    "BNRIND": "NORMAL",
    "SHIFT1": "NORMAL -> NORMAL",
    "ADT": "2013-08-17",
    "ADY": -7,
    "AVISIT": "SCREENING",
    "AVISITN": 1,
    "ABLFL": "Y",
    "ANL01FL": "Y",
    "SAFFL": "Y"
  },
  {
    "STUDYID": "CDISCPILOT01",
    "USUBJID": "01-701-004",
    "TRTP": "Xanomeline High Dose",
    "TRTPN": 2,
    "PARAMCD": "RBC",
    "PARAM": "Red Blood Cells ( 10^12/L )",
    "AVAL": 4.17,
    "BASE": 4.23,
    "CHG": -0.06,
    "PCHG": -1.4184,
    "A1LO": 4,
    "A1HI": 5,
    "ANRIND": "NORMAL",
    "BNRIND": "NORMAL",
    "SHIFT1": "NORMAL -> NORMAL",
    "ADT": "2013-10-20",
    "ADY": 58,
    "AVISIT": "WEEK 8",
    "AVISITN": 5,
    "ABLFL": "",
    "ANL01FL": "Y",
    "SAFFL": "Y"
  },
  {
    "STUDYID": "CDISCPILOT01",
    "USUBJID": "01-701-004",
    "TRTP": "Xanomeline High Dose",
    "TRTPN": 2,
    "PARAMCD": "SODIUM",
    "PARAM": "Sodium ( mmol/L )",
    "AVAL": 144.08,
    "BASE": 143.93,
    "CHG": 0.15,
    "PCHG": 0.1042,
    "A1LO": 136,
    "A1HI": 145,
    "ANRIND": "NORMAL",
    "BNRIND": "NORMAL",
    "SHIFT1": "NORMAL -> NORMAL",
    "ADT": "2013-10-21",
    "ADY": 59,
    "AVISIT": "WEEK 8",
    "AVISITN": 5,
    "ABLFL": "",
    "ANL01FL": "Y",
    "SAFFL": "Y"
  },
  {
    "STUDYID": "CDISCPILOT01",
    "USUBJID": "01-701-004",
    "TRTP": "Xanomeline High Dose",
    "TRTPN": 2,
    "PARAMCD": "SODIUM",
    "PARAM": "Sodium ( mmol/L )",
    "AVAL": 143.87,
    "BASE": 143.93,
    "CHG": -0.06,
    "PCHG": -0.0417,
    "A1LO": 136,
    "A1HI": 145,
    "ANRIND": "NORMAL",
    "BNRIND": "NORMAL",
    "SHIFT1": "NORMAL -> NORMAL",
    "ADT": "2013-08-26",
    "ADY": 3,
    "AVISIT": "BASELINE",
    "AVISITN": 2,
    "ABLFL": "",
    "ANL01FL": "Y",
    "SAFFL": "Y"
  },
  {
    "STUDYID": "CDISCPILOT01",
    "USUBJID": "01-701-004",
    "TRTP": "Xanomeline High Dose",
    "TRTPN": 2,
    "PARAMCD": "SODIUM",
    "PARAM": "Sodium ( mmol/L )",
    "AVAL": 143.93,
    "BASE": 143.93,
    "CHG": 0,
    "PCHG": 0,
    "A1LO": 136,
    "A1HI": 145,
    "ANRIND": "NORMAL",
    "BNRIND": "NORMAL",
    "SHIFT1": "NORMAL -> NORMAL",
    "ADT": "2013-08-17",
    "ADY": -7,
    "AVISIT": "SCREENING",
    "AVISITN": 1,
    "ABLFL": "Y",
    "ANL01FL": "Y",
    "SAFFL": "Y"
  },
  {
    "STUDYID": "CDISCPILOT01",
    "USUBJID": "01-701-004",
    "TRTP": "Xanomeline High Dose",
    "TRTPN": 2,
    "PARAMCD": "WBC",
    "PARAM": "White Blood Cells ( 10^9/L )",
    "AVAL": 4.73,
    "BASE": 4.73,
    "CHG": 0,
    "PCHG": 0,
    "A1LO": 4,
    "A1HI": 11,
    "ANRIND": "NORMAL",
    "BNRIND": "NORMAL",
    "SHIFT1": "NORMAL -> NORMAL",
    "ADT": "2013-08-17",
    "ADY": -7,
    "AVISIT": "SCREENING",
    "AVISITN": 1,
    "ABLFL": "Y",
    "ANL01FL": "Y",
    "SAFFL": "Y"
  },
  {
    "STUDYID": "CDISCPILOT01",
    "USUBJID": "01-701-004",
    "TRTP": "Xanomeline High Dose",
    "TRTPN": 2,
    "PARAMCD": "WBC",
    "PARAM": "White Blood Cells ( 10^9/L )",
    "AVAL": 4.89,
    "BASE": 4.73,
    "CHG": 0.16,
    "PCHG": 3.3827,
    "A1LO": 4,
    "A1HI": 11,
    "ANRIND": "NORMAL",
    "BNRIND": "NORMAL",
    "SHIFT1": "NORMAL -> NORMAL",
    "ADT": "2013-08-26",
    "ADY": 3,
    "AVISIT": "BASELINE",
    "AVISITN": 2,
    "ABLFL": "",
    "ANL01FL": "Y",
    "SAFFL": "Y"
  },
  {
    "STUDYID": "CDISCPILOT01",
    "USUBJID": "01-701-004",
    "TRTP": "Xanomeline High Dose",
    "TRTPN": 2,
    "PARAMCD": "WBC",
    "PARAM": "White Blood Cells ( 10^9/L )",
    "AVAL": 4.94,
    "BASE": 4.73,
    "CHG": 0.21,
    "PCHG": 4.4397,
    "A1LO": 4,
    "A1HI": 11,
    "ANRIND": "NORMAL",
    "BNRIND": "NORMAL",
    "SHIFT1": "NORMAL -> NORMAL",
    "ADT": "2013-10-20",
    "ADY": 58,
    "AVISIT": "WEEK 8",
    "AVISITN": 5,
    "ABLFL": "",
    "ANL01FL": "Y",
    "SAFFL": "Y"
  },
  {
    "STUDYID": "CDISCPILOT01",
    "USUBJID": "01-701-005",
    "TRTP": "Placebo",
    "TRTPN": 0,
    "PARAMCD": "ALB",
    "PARAM": "Albumin ( g/dL )",
    "AVAL": 3.74,
    "BASE": 3.67,
    "CHG": 0.07,
    "PCHG": 1.9074,
    "A1LO": 3.5,
    "A1HI": 5,
    "ANRIND": "NORMAL",
    "BNRIND": "NORMAL",
    "SHIFT1": "NORMAL -> NORMAL",
    "ADT": "2013-04-04",
    "ADY": 57,
    "AVISIT": "WEEK 8",
    "AVISITN": 5,
    "ABLFL": "",
    "ANL01FL": "Y",
    "SAFFL": "Y"
  },
  {
    "STUDYID": "CDISCPILOT01",
    "USUBJID": "01-701-005",
    "TRTP": "Placebo",
    "TRTPN": 0,
    "PARAMCD": "ALB",
    "PARAM": "Albumin ( g/dL )",
    "AVAL": 3.67,
    "BASE": 3.67,
    "CHG": 0,
    "PCHG": 0,
    "A1LO": 3.5,
    "A1HI": 5,
    "ANRIND": "NORMAL",
    "BNRIND": "NORMAL",
    "SHIFT1": "NORMAL -> NORMAL",
    "ADT": "2013-02-01",
    "ADY": -6,
    "AVISIT": "SCREENING",
    "AVISITN": 1,
    "ABLFL": "Y",
    "ANL01FL": "Y",
    "SAFFL": "Y"
  },
  {
    "STUDYID": "CDISCPILOT01",
    "USUBJID": "01-701-005",
    "TRTP": "Placebo",
    "TRTPN": 0,
    "PARAMCD": "ALB",
    "PARAM": "Albumin ( g/dL )",
    "AVAL": 3.65,
    "BASE": 3.67,
    "CHG": -0.02,
    "PCHG": -0.545,
    "A1LO": 3.5,
    "A1HI": 5,
    "ANRIND": "NORMAL",
    "BNRIND": "NORMAL",
    "SHIFT1": "NORMAL -> NORMAL",
    "ADT": "2013-05-31",
    "ADY": 114,
    "AVISIT": "WEEK 16",
    "AVISITN": 7,
    "ABLFL": "",
    "ANL01FL": "Y",
    "SAFFL": "Y"
  },
  {
    "STUDYID": "CDISCPILOT01",
    "USUBJID": "01-701-005",
    "TRTP": "Placebo",
    "TRTPN": 0,
    "PARAMCD": "ALB",
    "PARAM": "Albumin ( g/dL )",
    "AVAL": 3.72,
    "BASE": 3.67,
    "CHG": 0.05,
    "PCHG": 1.3624,
    "A1LO": 3.5,
    "A1HI": 5,
    "ANRIND": "NORMAL",
    "BNRIND": "NORMAL",
    "SHIFT1": "NORMAL -> NORMAL",
    "ADT": "2013-07-26",
    "ADY": 170,
    "AVISIT": "WEEK 24",
    "AVISITN": 9,
    "ABLFL": "",
    "ANL01FL": "Y",
    "SAFFL": "Y"
  },
  {
    "STUDYID": "CDISCPILOT01",
    "USUBJID": "01-701-005",
    "TRTP": "Placebo",
    "TRTPN": 0,
    "PARAMCD": "ALB",
    "PARAM": "Albumin ( g/dL )",
    "AVAL": 3.75,
    "BASE": 3.67,
    "CHG": 0.08,
    "PCHG": 2.1798,
    "A1LO": 3.5,
    "A1HI": 5,
    "ANRIND": "NORMAL",
    "BNRIND": "NORMAL",
    "SHIFT1": "NORMAL -> NORMAL",
    "ADT": "2013-02-07",
    "ADY": 1,
    "AVISIT": "BASELINE",
    "AVISITN": 2,
    "ABLFL": "",
    "ANL01FL": "Y",
    "SAFFL": "Y"
  },
  {
    "STUDYID": "CDISCPILOT01",
    "USUBJID": "01-701-005",
    "TRTP": "Placebo",
    "TRTPN": 0,
    "PARAMCD": "ALP",
    "PARAM": "Alkaline Phosphatase ( U/L )",
    "AVAL": 56.58,
    "BASE": 57.88,
    "CHG": -1.3,
    "PCHG": -2.246,
    "A1LO": 44,
    "A1HI": 147,
    "ANRIND": "NORMAL",
    "BNRIND": "NORMAL",
    "SHIFT1": "NORMAL -> NORMAL",
    "ADT": "2013-05-31",
    "ADY": 114,
    "AVISIT": "WEEK 16",
    "AVISITN": 7,
    "ABLFL": "",
    "ANL01FL": "Y",
    "SAFFL": "Y"
  },
  {
    "STUDYID": "CDISCPILOT01",
    "USUBJID": "01-701-005",
    "TRTP": "Placebo",
    "TRTPN": 0,
    "PARAMCD": "ALP",
    "PARAM": "Alkaline Phosphatase ( U/L )",
    "AVAL": 58.57,
    "BASE": 57.88,
    "CHG": 0.69,
    "PCHG": 1.1921,
    "A1LO": 44,
    "A1HI": 147,
    "ANRIND": "NORMAL",
    "BNRIND": "NORMAL",
    "SHIFT1": "NORMAL -> NORMAL",
    "ADT": "2013-07-27",
    "ADY": 171,
    "AVISIT": "WEEK 24",
    "AVISITN": 9,
    "ABLFL": "",
    "ANL01FL": "Y",
    "SAFFL": "Y"
  },
  {
    "STUDYID": "CDISCPILOT01",
    "USUBJID": "01-701-005",
    "TRTP": "Placebo",
    "TRTPN": 0,
    "PARAMCD": "ALP",
    "PARAM": "Alkaline Phosphatase ( U/L )",
    "AVAL": 54.48,
    "BASE": 57.88,
    "CHG": -3.4,
    "PCHG": -5.8742,
    "A1LO": 44,
    "A1HI": 147,
    "ANRIND": "NORMAL",
    "BNRIND": "NORMAL",
    "SHIFT1": "NORMAL -> NORMAL",
    "ADT": "2013-02-08",
    "ADY": 2,
    "AVISIT": "BASELINE",
    "AVISITN": 2,
    "ABLFL": "",
    "ANL01FL": "Y",
    "SAFFL": "Y"
  },
  {
    "STUDYID": "CDISCPILOT01",
    "USUBJID": "01-701-005",
    "TRTP": "Placebo",
    "TRTPN": 0,
    "PARAMCD": "ALP",
    "PARAM": "Alkaline Phosphatase ( U/L )",
    "AVAL": 57.88,
    "BASE": 57.88,
    "CHG": 0,
    "PCHG": 0,
    "A1LO": 44,
    "A1HI": 147,
    "ANRIND": "NORMAL",
    "BNRIND": "NORMAL",
    "SHIFT1": "NORMAL -> NORMAL",
    "ADT": "2013-01-31",
    "ADY": -7,
    "AVISIT": "SCREENING",
    "AVISITN": 1,
    "ABLFL": "Y",
    "ANL01FL": "Y",
    "SAFFL": "Y"
  },
  {
    "STUDYID": "CDISCPILOT01",
    "USUBJID": "01-701-005",
    "TRTP": "Placebo",
    "TRTPN": 0,
    "PARAMCD": "ALP",
    "PARAM": "Alkaline Phosphatase ( U/L )",
    "AVAL": 60.89,
    "BASE": 57.88,
    "CHG": 3.01,
    "PCHG": 5.2004,
    "A1LO": 44,
    "A1HI": 147,
    "ANRIND": "NORMAL",
    "BNRIND": "NORMAL",
    "SHIFT1": "NORMAL -> NORMAL",
    "ADT": "2013-04-06",
    "ADY": 59,
    "AVISIT": "WEEK 8",
    "AVISITN": 5,
    "ABLFL": "",
    "ANL01FL": "Y",
    "SAFFL": "Y"
  },
  {
    "STUDYID": "CDISCPILOT01",
    "USUBJID": "01-701-005",
    "TRTP": "Placebo",
    "TRTPN": 0,
    "PARAMCD": "ALT",
    "PARAM": "Alanine Aminotransferase ( U/L )",
    "AVAL": 27.2,
    "BASE": 27.2,
    "CHG": 0,
    "PCHG": 0,
    "A1LO": 7,
    "A1HI": 56,
    "ANRIND": "NORMAL",
    "BNRIND": "NORMAL",
    "SHIFT1": "NORMAL -> NORMAL",
    "ADT": "2013-02-01",
    "ADY": -6,
    "AVISIT": "SCREENING",
    "AVISITN": 1,
    "ABLFL": "Y",
    "ANL01FL": "Y",
    "SAFFL": "Y"
  },
  {
    "STUDYID": "CDISCPILOT01",
    "USUBJID": "01-701-005",
    "TRTP": "Placebo",
    "TRTPN": 0,
    "PARAMCD": "ALT",
    "PARAM": "Alanine Aminotransferase ( U/L )",
    "AVAL": 26.5,
    "BASE": 27.2,
    "CHG": -0.7,
    "PCHG": -2.5735,
    "A1LO": 7,
    "A1HI": 56,
    "ANRIND": "NORMAL",
    "BNRIND": "NORMAL",
    "SHIFT1": "NORMAL -> NORMAL",
    "ADT": "2013-06-01",
    "ADY": 115,
    "AVISIT": "WEEK 16",
    "AVISITN": 7,
    "ABLFL": "",
    "ANL01FL": "Y",
    "SAFFL": "Y"
  },
  {
    "STUDYID": "CDISCPILOT01",
    "USUBJID": "01-701-005",
    "TRTP": "Placebo",
    "TRTPN": 0,
    "PARAMCD": "ALT",
    "PARAM": "Alanine Aminotransferase ( U/L )",
    "AVAL": 29.88,
    "BASE": 27.2,
    "CHG": 2.68,
    "PCHG": 9.8529,
    "A1LO": 7,
    "A1HI": 56,
    "ANRIND": "NORMAL",
    "BNRIND": "NORMAL",
    "SHIFT1": "NORMAL -> NORMAL",
    "ADT": "2013-07-27",
    "ADY": 171,
    "AVISIT": "WEEK 24",
    "AVISITN": 9,
    "ABLFL": "",
    "ANL01FL": "Y",
    "SAFFL": "Y"
  },
  {
    "STUDYID": "CDISCPILOT01",
    "USUBJID": "01-701-005",
    "TRTP": "Placebo",
    "TRTPN": 0,
    "PARAMCD": "ALT",
    "PARAM": "Alanine Aminotransferase ( U/L )",
    "AVAL": 28.95,
    "BASE": 27.2,
    "CHG": 1.75,
    "PCHG": 6.4338,
    "A1LO": 7,
    "A1HI": 56,
    "ANRIND": "NORMAL",
    "BNRIND": "NORMAL",
    "SHIFT1": "NORMAL -> NORMAL",
    "ADT": "2013-02-08",
    "ADY": 2,
    "AVISIT": "BASELINE",
    "AVISITN": 2,
    "ABLFL": "",
    "ANL01FL": "Y",
    "SAFFL": "Y"
  },
  {
    "STUDYID": "CDISCPILOT01",
    "USUBJID": "01-701-005",
    "TRTP": "Placebo",
    "TRTPN": 0,
    "PARAMCD": "ALT",
    "PARAM": "Alanine Aminotransferase ( U/L )",
    "AVAL": 30.98,
    "BASE": 27.2,
    "CHG": 3.78,
    "PCHG": 13.8971,
    "A1LO": 7,
    "A1HI": 56,
    "ANRIND": "NORMAL",
    "BNRIND": "NORMAL",
    "SHIFT1": "NORMAL -> NORMAL",
    "ADT": "2013-04-06",
    "ADY": 59,
    "AVISIT": "WEEK 8",
    "AVISITN": 5,
    "ABLFL": "",
    "ANL01FL": "Y",
    "SAFFL": "Y"
  },
  {
    "STUDYID": "CDISCPILOT01",
    "USUBJID": "01-701-005",
    "TRTP": "Placebo",
    "TRTPN": 0,
    "PARAMCD": "AST",
    "PARAM": "Aspartate Aminotransferase ( U/L )",
    "AVAL": 22.46,
    "BASE": 22.27,
    "CHG": 0.19,
    "PCHG": 0.8532,
    "A1LO": 10,
    "A1HI": 40,
    "ANRIND": "NORMAL",
    "BNRIND": "NORMAL",
    "SHIFT1": "NORMAL -> NORMAL",
    "ADT": "2013-06-01",
    "ADY": 115,
    "AVISIT": "WEEK 16",
    "AVISITN": 7,
    "ABLFL": "",
    "ANL01FL": "Y",
    "SAFFL": "Y"
  },
  {
    "STUDYID": "CDISCPILOT01",
    "USUBJID": "01-701-005",
    "TRTP": "Placebo",
    "TRTPN": 0,
    "PARAMCD": "AST",
    "PARAM": "Aspartate Aminotransferase ( U/L )",
    "AVAL": 22.27,
    "BASE": 22.27,
    "CHG": 0,
    "PCHG": 0,
    "A1LO": 10,
    "A1HI": 40,
    "ANRIND": "NORMAL",
    "BNRIND": "NORMAL",
    "SHIFT1": "NORMAL -> NORMAL",
    "ADT": "2013-01-30",
    "ADY": -8,
    "AVISIT": "SCREENING",
    "AVISITN": 1,
    "ABLFL": "Y",
    "ANL01FL": "Y",
    "SAFFL": "Y"
  },
  {
    "STUDYID": "CDISCPILOT01",
    "USUBJID": "01-701-005",
    "TRTP": "Placebo",
    "TRTPN": 0,
    "PARAMCD": "AST",
    "PARAM": "Aspartate Aminotransferase ( U/L )",
    "AVAL": 22.21,
    "BASE": 22.27,
    "CHG": -0.06,
    "PCHG": -0.2694,
    "A1LO": 10,
    "A1HI": 40,
    "ANRIND": "NORMAL",
    "BNRIND": "NORMAL",
    "SHIFT1": "NORMAL -> NORMAL",
    "ADT": "2013-02-07",
    "ADY": 1,
    "AVISIT": "BASELINE",
    "AVISITN": 2,
    "ABLFL": "",
    "ANL01FL": "Y",
    "SAFFL": "Y"
  },
  {
    "STUDYID": "CDISCPILOT01",
    "USUBJID": "01-701-005",
    "TRTP": "Placebo",
    "TRTPN": 0,
    "PARAMCD": "AST",
    "PARAM": "Aspartate Aminotransferase ( U/L )",
    "AVAL": 21.18,
    "BASE": 22.27,
    "CHG": -1.09,
    "PCHG": -4.8945,
    "A1LO": 10,
    "A1HI": 40,
    "ANRIND": "NORMAL",
    "BNRIND": "NORMAL",
    "SHIFT1": "NORMAL -> NORMAL",
    "ADT": "2013-07-25",
    "ADY": 169,
    "AVISIT": "WEEK 24",
    "AVISITN": 9,
    "ABLFL": "",
    "ANL01FL": "Y",
    "SAFFL": "Y"
  },
  {
    "STUDYID": "CDISCPILOT01",
    "USUBJID": "01-701-005",
    "TRTP": "Placebo",
    "TRTPN": 0,
    "PARAMCD": "AST",
    "PARAM": "Aspartate Aminotransferase ( U/L )",
    "AVAL": 21.69,
    "BASE": 22.27,
    "CHG": -0.58,
    "PCHG": -2.6044,
    "A1LO": 10,
    "A1HI": 40,
    "ANRIND": "NORMAL",
    "BNRIND": "NORMAL",
    "SHIFT1": "NORMAL -> NORMAL",
    "ADT": "2013-04-06",
    "ADY": 59,
    "AVISIT": "WEEK 8",
    "AVISITN": 5,
    "ABLFL": "",
    "ANL01FL": "Y",
    "SAFFL": "Y"
  },
  {
    "STUDYID": "CDISCPILOT01",
    "USUBJID": "01-701-005",
    "TRTP": "Placebo",
    "TRTPN": 0,
    "PARAMCD": "BILI",
    "PARAM": "Bilirubin ( mg/dL )",
    "AVAL": 0.45,
    "BASE": 0.44,
    "CHG": 0.01,
    "PCHG": 2.2727,
    "A1LO": 0.1,
    "A1HI": 1.2,
    "ANRIND": "NORMAL",
    "BNRIND": "NORMAL",
    "SHIFT1": "NORMAL -> NORMAL",
    "ADT": "2013-04-05",
    "ADY": 58,
    "AVISIT": "WEEK 8",
    "AVISITN": 5,
    "ABLFL": "",
    "ANL01FL": "Y",
    "SAFFL": "Y"
  },
  {
    "STUDYID": "CDISCPILOT01",
    "USUBJID": "01-701-005",
    "TRTP": "Placebo",
    "TRTPN": 0,
    "PARAMCD": "BILI",
    "PARAM": "Bilirubin ( mg/dL )",
    "AVAL": 0.43,
    "BASE": 0.44,
    "CHG": -0.01,
    "PCHG": -2.2727,
    "A1LO": 0.1,
    "A1HI": 1.2,
    "ANRIND": "NORMAL",
    "BNRIND": "NORMAL",
    "SHIFT1": "NORMAL -> NORMAL",
    "ADT": "2013-07-26",
    "ADY": 170,
    "AVISIT": "WEEK 24",
    "AVISITN": 9,
    "ABLFL": "",
    "ANL01FL": "Y",
    "SAFFL": "Y"
  },
  {
    "STUDYID": "CDISCPILOT01",
    "USUBJID": "01-701-005",
    "TRTP": "Placebo",
    "TRTPN": 0,
    "PARAMCD": "BILI",
    "PARAM": "Bilirubin ( mg/dL )",
    "AVAL": 0.41,
    "BASE": 0.44,
    "CHG": -0.03,
    "PCHG": -6.8182,
    "A1LO": 0.1,
    "A1HI": 1.2,
    "ANRIND": "NORMAL",
    "BNRIND": "NORMAL",
    "SHIFT1": "NORMAL -> NORMAL",
    "ADT": "2013-06-01",
    "ADY": 115,
    "AVISIT": "WEEK 16",
    "AVISITN": 7,
    "ABLFL": "",
    "ANL01FL": "Y",
    "SAFFL": "Y"
  },
  {
    "STUDYID": "CDISCPILOT01",
    "USUBJID": "01-701-005",
    "TRTP": "Placebo",
    "TRTPN": 0,
    "PARAMCD": "BILI",
    "PARAM": "Bilirubin ( mg/dL )",
    "AVAL": 0.44,
    "BASE": 0.44,
    "CHG": 0,
    "PCHG": 0,
    "A1LO": 0.1,
    "A1HI": 1.2,
    "ANRIND": "NORMAL",
    "BNRIND": "NORMAL",
    "SHIFT1": "NORMAL -> NORMAL",
    "ADT": "2013-02-01",
    "ADY": -6,
    "AVISIT": "SCREENING",
    "AVISITN": 1,
    "ABLFL": "Y",
    "ANL01FL": "Y",
    "SAFFL": "Y"
  },
  {
    "STUDYID": "CDISCPILOT01",
    "USUBJID": "01-701-005",
    "TRTP": "Placebo",
    "TRTPN": 0,
    "PARAMCD": "BILI",
    "PARAM": "Bilirubin ( mg/dL )",
    "AVAL": 0.41,
    "BASE": 0.44,
    "CHG": -0.03,
    "PCHG": -6.8182,
    "A1LO": 0.1,
    "A1HI": 1.2,
    "ANRIND": "NORMAL",
    "BNRIND": "NORMAL",
    "SHIFT1": "NORMAL -> NORMAL",
    "ADT": "2013-02-08",
    "ADY": 2,
    "AVISIT": "BASELINE",
    "AVISITN": 2,
    "ABLFL": "",
    "ANL01FL": "Y",
    "SAFFL": "Y"
  },
  {
    "STUDYID": "CDISCPILOT01",
    "USUBJID": "01-701-005",
    "TRTP": "Placebo",
    "TRTPN": 0,
    "PARAMCD": "BUN",
    "PARAM": "Blood Urea Nitrogen ( mg/dL )",
    "AVAL": 23.39,
    "BASE": 24.49,
    "CHG": -1.1,
    "PCHG": -4.4916,
    "A1LO": 8,
    "A1HI": 23,
    "ANRIND": "HIGH",
    "BNRIND": "HIGH",
    "SHIFT1": "HIGH -> HIGH",
    "ADT": "2013-02-07",
    "ADY": 1,
    "AVISIT": "BASELINE",
    "AVISITN": 2,
    "ABLFL": "",
    "ANL01FL": "Y",
    "SAFFL": "Y"
  },
  {
    "STUDYID": "CDISCPILOT01",
    "USUBJID": "01-701-005",
    "TRTP": "Placebo",
    "TRTPN": 0,
    "PARAMCD": "BUN",
    "PARAM": "Blood Urea Nitrogen ( mg/dL )",
    "AVAL": 24.73,
    "BASE": 24.49,
    "CHG": 0.24,
    "PCHG": 0.98,
    "A1LO": 8,
    "A1HI": 23,
    "ANRIND": "HIGH",
    "BNRIND": "HIGH",
    "SHIFT1": "HIGH -> HIGH",
    "ADT": "2013-05-30",
    "ADY": 113,
    "AVISIT": "WEEK 16",
    "AVISITN": 7,
    "ABLFL": "",
    "ANL01FL": "Y",
    "SAFFL": "Y"
  },
  {
    "STUDYID": "CDISCPILOT01",
    "USUBJID": "01-701-005",
    "TRTP": "Placebo",
    "TRTPN": 0,
    "PARAMCD": "BUN",
    "PARAM": "Blood Urea Nitrogen ( mg/dL )",
    "AVAL": 24.3,
    "BASE": 24.49,
    "CHG": -0.19,
    "PCHG": -0.7758,
    "A1LO": 8,
    "A1HI": 23,
    "ANRIND": "HIGH",
    "BNRIND": "HIGH",
    "SHIFT1": "HIGH -> HIGH",
    "ADT": "2013-04-05",
    "ADY": 58,
    "AVISIT": "WEEK 8",
    "AVISITN": 5,
    "ABLFL": "",
    "ANL01FL": "Y",
    "SAFFL": "Y"
  },
  {
    "STUDYID": "CDISCPILOT01",
    "USUBJID": "01-701-005",
    "TRTP": "Placebo",
    "TRTPN": 0,
    "PARAMCD": "BUN",
    "PARAM": "Blood Urea Nitrogen ( mg/dL )",
    "AVAL": 26.68,
    "BASE": 24.49,
    "CHG": 2.19,
    "PCHG": 8.9424,
    "A1LO": 8,
    "A1HI": 23,
    "ANRIND": "HIGH",
    "BNRIND": "HIGH",
    "SHIFT1": "HIGH -> HIGH",
    "ADT": "2013-07-25",
    "ADY": 169,
    "AVISIT": "WEEK 24",
    "AVISITN": 9,
    "ABLFL": "",
    "ANL01FL": "Y",
    "SAFFL": "Y"
  },
  {
    "STUDYID": "CDISCPILOT01",
    "USUBJID": "01-701-005",
    "TRTP": "Placebo",
    "TRTPN": 0,
    "PARAMCD": "BUN",
    "PARAM": "Blood Urea Nitrogen ( mg/dL )",
    "AVAL": 24.49,
    "BASE": 24.49,
    "CHG": 0,
    "PCHG": 0,
    "A1LO": 8,
    "A1HI": 23,
    "ANRIND": "HIGH",
    "BNRIND": "HIGH",
    "SHIFT1": "HIGH -> HIGH",
    "ADT": "2013-02-01",
    "ADY": -6,
    "AVISIT": "SCREENING",
    "AVISITN": 1,
    "ABLFL": "Y",
    "ANL01FL": "Y",
    "SAFFL": "Y"
  },
  {
    "STUDYID": "CDISCPILOT01",
    "USUBJID": "01-701-005",
    "TRTP": "Placebo",
    "TRTPN": 0,
    "PARAMCD": "CHLORIDE",
    "PARAM": "Chloride ( mmol/L )",
    "AVAL": 99.78,
    "BASE": 99.78,
    "CHG": 0,
    "PCHG": 0,
    "A1LO": 98,
    "A1HI": 106,
    "ANRIND": "NORMAL",
    "BNRIND": "NORMAL",
    "SHIFT1": "NORMAL -> NORMAL",
    "ADT": "2013-01-30",
    "ADY": -8,
    "AVISIT": "SCREENING",
    "AVISITN": 1,
    "ABLFL": "Y",
    "ANL01FL": "Y",
    "SAFFL": "Y"
  },
  {
    "STUDYID": "CDISCPILOT01",
    "USUBJID": "01-701-005",
    "TRTP": "Placebo",
    "TRTPN": 0,
    "PARAMCD": "CHLORIDE",
    "PARAM": "Chloride ( mmol/L )",
    "AVAL": 100.01,
    "BASE": 99.78,
    "CHG": 0.23,
    "PCHG": 0.2305,
    "A1LO": 98,
    "A1HI": 106,
    "ANRIND": "NORMAL",
    "BNRIND": "NORMAL",
    "SHIFT1": "NORMAL -> NORMAL",
    "ADT": "2013-04-05",
    "ADY": 58,
    "AVISIT": "WEEK 8",
    "AVISITN": 5,
    "ABLFL": "",
    "ANL01FL": "Y",
    "SAFFL": "Y"
  },
  {
    "STUDYID": "CDISCPILOT01",
    "USUBJID": "01-701-005",
    "TRTP": "Placebo",
    "TRTPN": 0,
    "PARAMCD": "CHLORIDE",
    "PARAM": "Chloride ( mmol/L )",
    "AVAL": 99.71,
    "BASE": 99.78,
    "CHG": -0.07,
    "PCHG": -0.0702,
    "A1LO": 98,
    "A1HI": 106,
    "ANRIND": "NORMAL",
    "BNRIND": "NORMAL",
    "SHIFT1": "NORMAL -> NORMAL",
    "ADT": "2013-05-30",
    "ADY": 113,
    "AVISIT": "WEEK 16",
    "AVISITN": 7,
    "ABLFL": "",
    "ANL01FL": "Y",
    "SAFFL": "Y"
  },
  {
    "STUDYID": "CDISCPILOT01",
    "USUBJID": "01-701-005",
    "TRTP": "Placebo",
    "TRTPN": 0,
    "PARAMCD": "CHLORIDE",
    "PARAM": "Chloride ( mmol/L )",
    "AVAL": 99.99,
    "BASE": 99.78,
    "CHG": 0.21,
    "PCHG": 0.2105,
    "A1LO": 98,
    "A1HI": 106,
    "ANRIND": "NORMAL",
    "BNRIND": "NORMAL",
    "SHIFT1": "NORMAL -> NORMAL",
    "ADT": "2013-02-09",
    "ADY": 3,
    "AVISIT": "BASELINE",
    "AVISITN": 2,
    "ABLFL": "",
    "ANL01FL": "Y",
    "SAFFL": "Y"
  },
  {
    "STUDYID": "CDISCPILOT01",
    "USUBJID": "01-701-005",
    "TRTP": "Placebo",
    "TRTPN": 0,
    "PARAMCD": "CHLORIDE",
    "PARAM": "Chloride ( mmol/L )",
    "AVAL": 100.04,
    "BASE": 99.78,
    "CHG": 0.26,
    "PCHG": 0.2606,
    "A1LO": 98,
    "A1HI": 106,
    "ANRIND": "NORMAL",
    "BNRIND": "NORMAL",
    "SHIFT1": "NORMAL -> NORMAL",
    "ADT": "2013-07-26",
    "ADY": 170,
    "AVISIT": "WEEK 24",
    "AVISITN": 9,
    "ABLFL": "",
    "ANL01FL": "Y",
    "SAFFL": "Y"
  },
  {
    "STUDYID": "CDISCPILOT01",
    "USUBJID": "01-701-005",
    "TRTP": "Placebo",
    "TRTPN": 0,
    "PARAMCD": "CREAT",
    "PARAM": "Creatinine ( mg/dL )",
    "AVAL": 0.91,
    "BASE": 0.84,
    "CHG": 0.07,
    "PCHG": 8.3333,
    "A1LO": 0.7,
    "A1HI": 1.3,
    "ANRIND": "NORMAL",
    "BNRIND": "NORMAL",
    "SHIFT1": "NORMAL -> NORMAL",
    "ADT": "2013-04-04",
    "ADY": 57,
    "AVISIT": "WEEK 8",
    "AVISITN": 5,
    "ABLFL": "",
    "ANL01FL": "Y",
    "SAFFL": "Y"
  },
  {
    "STUDYID": "CDISCPILOT01",
    "USUBJID": "01-701-005",
    "TRTP": "Placebo",
    "TRTPN": 0,
    "PARAMCD": "CREAT",
    "PARAM": "Creatinine ( mg/dL )",
    "AVAL": 0.88,
    "BASE": 0.84,
    "CHG": 0.04,
    "PCHG": 4.7619,
    "A1LO": 0.7,
    "A1HI": 1.3,
    "ANRIND": "NORMAL",
    "BNRIND": "NORMAL",
    "SHIFT1": "NORMAL -> NORMAL",
    "ADT": "2013-05-30",
    "ADY": 113,
    "AVISIT": "WEEK 16",
    "AVISITN": 7,
    "ABLFL": "",
    "ANL01FL": "Y",
    "SAFFL": "Y"
  },
  {
    "STUDYID": "CDISCPILOT01",
    "USUBJID": "01-701-005",
    "TRTP": "Placebo",
    "TRTPN": 0,
    "PARAMCD": "CREAT",
    "PARAM": "Creatinine ( mg/dL )",
    "AVAL": 0.84,
    "BASE": 0.84,
    "CHG": 0,
    "PCHG": 0,
    "A1LO": 0.7,
    "A1HI": 1.3,
    "ANRIND": "NORMAL",
    "BNRIND": "NORMAL",
    "SHIFT1": "NORMAL -> NORMAL",
    "ADT": "2013-01-31",
    "ADY": -7,
    "AVISIT": "SCREENING",
    "AVISITN": 1,
    "ABLFL": "Y",
    "ANL01FL": "Y",
    "SAFFL": "Y"
  },
  {
    "STUDYID": "CDISCPILOT01",
    "USUBJID": "01-701-005",
    "TRTP": "Placebo",
    "TRTPN": 0,
    "PARAMCD": "CREAT",
    "PARAM": "Creatinine ( mg/dL )",
    "AVAL": 0.87,
    "BASE": 0.84,
    "CHG": 0.03,
    "PCHG": 3.5714,
    "A1LO": 0.7,
    "A1HI": 1.3,
    "ANRIND": "NORMAL",
    "BNRIND": "NORMAL",
    "SHIFT1": "NORMAL -> NORMAL",
    "ADT": "2013-02-08",
    "ADY": 2,
    "AVISIT": "BASELINE",
    "AVISITN": 2,
    "ABLFL": "",
    "ANL01FL": "Y",
    "SAFFL": "Y"
  },
  {
    "STUDYID": "CDISCPILOT01",
    "USUBJID": "01-701-005",
    "TRTP": "Placebo",
    "TRTPN": 0,
    "PARAMCD": "CREAT",
    "PARAM": "Creatinine ( mg/dL )",
    "AVAL": 0.81,
    "BASE": 0.84,
    "CHG": -0.03,
    "PCHG": -3.5714,
    "A1LO": 0.7,
    "A1HI": 1.3,
    "ANRIND": "NORMAL",
    "BNRIND": "NORMAL",
    "SHIFT1": "NORMAL -> NORMAL",
    "ADT": "2013-07-25",
    "ADY": 169,
    "AVISIT": "WEEK 24",
    "AVISITN": 9,
    "ABLFL": "",
    "ANL01FL": "Y",
    "SAFFL": "Y"
  },
  {
    "STUDYID": "CDISCPILOT01",
    "USUBJID": "01-701-005",
    "TRTP": "Placebo",
    "TRTPN": 0,
    "PARAMCD": "GLUC",
    "PARAM": "Glucose ( mg/dL )",
    "AVAL": 104.63,
    "BASE": 104.63,
    "CHG": 0,
    "PCHG": 0,
    "A1LO": 70,
    "A1HI": 110,
    "ANRIND": "NORMAL",
    "BNRIND": "NORMAL",
    "SHIFT1": "NORMAL -> NORMAL",
    "ADT": "2013-01-31",
    "ADY": -7,
    "AVISIT": "SCREENING",
    "AVISITN": 1,
    "ABLFL": "Y",
    "ANL01FL": "Y",
    "SAFFL": "Y"
  },
  {
    "STUDYID": "CDISCPILOT01",
    "USUBJID": "01-701-005",
    "TRTP": "Placebo",
    "TRTPN": 0,
    "PARAMCD": "GLUC",
    "PARAM": "Glucose ( mg/dL )",
    "AVAL": 104.8,
    "BASE": 104.63,
    "CHG": 0.17,
    "PCHG": 0.1625,
    "A1LO": 70,
    "A1HI": 110,
    "ANRIND": "NORMAL",
    "BNRIND": "NORMAL",
    "SHIFT1": "NORMAL -> NORMAL",
    "ADT": "2013-02-09",
    "ADY": 3,
    "AVISIT": "BASELINE",
    "AVISITN": 2,
    "ABLFL": "",
    "ANL01FL": "Y",
    "SAFFL": "Y"
  },
  {
    "STUDYID": "CDISCPILOT01",
    "USUBJID": "01-701-005",
    "TRTP": "Placebo",
    "TRTPN": 0,
    "PARAMCD": "GLUC",
    "PARAM": "Glucose ( mg/dL )",
    "AVAL": 100.57,
    "BASE": 104.63,
    "CHG": -4.06,
    "PCHG": -3.8803,
    "A1LO": 70,
    "A1HI": 110,
    "ANRIND": "NORMAL",
    "BNRIND": "NORMAL",
    "SHIFT1": "NORMAL -> NORMAL",
    "ADT": "2013-05-31",
    "ADY": 114,
    "AVISIT": "WEEK 16",
    "AVISITN": 7,
    "ABLFL": "",
    "ANL01FL": "Y",
    "SAFFL": "Y"
  },
  {
    "STUDYID": "CDISCPILOT01",
    "USUBJID": "01-701-005",
    "TRTP": "Placebo",
    "TRTPN": 0,
    "PARAMCD": "GLUC",
    "PARAM": "Glucose ( mg/dL )",
    "AVAL": 104.82,
    "BASE": 104.63,
    "CHG": 0.19,
    "PCHG": 0.1816,
    "A1LO": 70,
    "A1HI": 110,
    "ANRIND": "NORMAL",
    "BNRIND": "NORMAL",
    "SHIFT1": "NORMAL -> NORMAL",
    "ADT": "2013-04-05",
    "ADY": 58,
    "AVISIT": "WEEK 8",
    "AVISITN": 5,
    "ABLFL": "",
    "ANL01FL": "Y",
    "SAFFL": "Y"
  },
  {
    "STUDYID": "CDISCPILOT01",
    "USUBJID": "01-701-005",
    "TRTP": "Placebo",
    "TRTPN": 0,
    "PARAMCD": "GLUC",
    "PARAM": "Glucose ( mg/dL )",
    "AVAL": 103.31,
    "BASE": 104.63,
    "CHG": -1.32,
    "PCHG": -1.2616,
    "A1LO": 70,
    "A1HI": 110,
    "ANRIND": "NORMAL",
    "BNRIND": "NORMAL",
    "SHIFT1": "NORMAL -> NORMAL",
    "ADT": "2013-07-25",
    "ADY": 169,
    "AVISIT": "WEEK 24",
    "AVISITN": 9,
    "ABLFL": "",
    "ANL01FL": "Y",
    "SAFFL": "Y"
  },
  {
    "STUDYID": "CDISCPILOT01",
    "USUBJID": "01-701-005",
    "TRTP": "Placebo",
    "TRTPN": 0,
    "PARAMCD": "HCT",
    "PARAM": "Hematocrit ( % )",
    "AVAL": 40.1,
    "BASE": 40.4,
    "CHG": -0.3,
    "PCHG": -0.7426,
    "A1LO": 36,
    "A1HI": 44,
    "ANRIND": "NORMAL",
    "BNRIND": "NORMAL",
    "SHIFT1": "NORMAL -> NORMAL",
    "ADT": "2013-07-25",
    "ADY": 169,
    "AVISIT": "WEEK 24",
    "AVISITN": 9,
    "ABLFL": "",
    "ANL01FL": "Y",
    "SAFFL": "Y"
  },
  {
    "STUDYID": "CDISCPILOT01",
    "USUBJID": "01-701-005",
    "TRTP": "Placebo",
    "TRTPN": 0,
    "PARAMCD": "HCT",
    "PARAM": "Hematocrit ( % )",
    "AVAL": 40.4,
    "BASE": 40.4,
    "CHG": 0,
    "PCHG": 0,
    "A1LO": 36,
    "A1HI": 44,
    "ANRIND": "NORMAL",
    "BNRIND": "NORMAL",
    "SHIFT1": "NORMAL -> NORMAL",
    "ADT": "2013-02-01",
    "ADY": -6,
    "AVISIT": "SCREENING",
    "AVISITN": 1,
    "ABLFL": "Y",
    "ANL01FL": "Y",
    "SAFFL": "Y"
  },
  {
    "STUDYID": "CDISCPILOT01",
    "USUBJID": "01-701-005",
    "TRTP": "Placebo",
    "TRTPN": 0,
    "PARAMCD": "HCT",
    "PARAM": "Hematocrit ( % )",
    "AVAL": 39.84,
    "BASE": 40.4,
    "CHG": -0.56,
    "PCHG": -1.3861,
    "A1LO": 36,
    "A1HI": 44,
    "ANRIND": "NORMAL",
    "BNRIND": "NORMAL",
    "SHIFT1": "NORMAL -> NORMAL",
    "ADT": "2013-04-04",
    "ADY": 57,
    "AVISIT": "WEEK 8",
    "AVISITN": 5,
    "ABLFL": "",
    "ANL01FL": "Y",
    "SAFFL": "Y"
  },
  {
    "STUDYID": "CDISCPILOT01",
    "USUBJID": "01-701-005",
    "TRTP": "Placebo",
    "TRTPN": 0,
    "PARAMCD": "HCT",
    "PARAM": "Hematocrit ( % )",
    "AVAL": 40.48,
    "BASE": 40.4,
    "CHG": 0.08,
    "PCHG": 0.198,
    "A1LO": 36,
    "A1HI": 44,
    "ANRIND": "NORMAL",
    "BNRIND": "NORMAL",
    "SHIFT1": "NORMAL -> NORMAL",
    "ADT": "2013-02-07",
    "ADY": 1,
    "AVISIT": "BASELINE",
    "AVISITN": 2,
    "ABLFL": "",
    "ANL01FL": "Y",
    "SAFFL": "Y"
  },
  {
    "STUDYID": "CDISCPILOT01",
    "USUBJID": "01-701-005",
    "TRTP": "Placebo",
    "TRTPN": 0,
    "PARAMCD": "HCT",
    "PARAM": "Hematocrit ( % )",
    "AVAL": 40.54,
    "BASE": 40.4,
    "CHG": 0.14,
    "PCHG": 0.3465,
    "A1LO": 36,
    "A1HI": 44,
    "ANRIND": "NORMAL",
    "BNRIND": "NORMAL",
    "SHIFT1": "NORMAL -> NORMAL",
    "ADT": "2013-05-30",
    "ADY": 113,
    "AVISIT": "WEEK 16",
    "AVISITN": 7,
    "ABLFL": "",
    "ANL01FL": "Y",
    "SAFFL": "Y"
  },
  {
    "STUDYID": "CDISCPILOT01",
    "USUBJID": "01-701-005",
    "TRTP": "Placebo",
    "TRTPN": 0,
    "PARAMCD": "HGB",
    "PARAM": "Hemoglobin ( g/dL )",
    "AVAL": 12,
    "BASE": 12,
    "CHG": 0,
    "PCHG": 0,
    "A1LO": 12,
    "A1HI": 15.5,
    "ANRIND": "NORMAL",
    "BNRIND": "NORMAL",
    "SHIFT1": "NORMAL -> NORMAL",
    "ADT": "2013-01-30",
    "ADY": -8,
    "AVISIT": "SCREENING",
    "AVISITN": 1,
    "ABLFL": "Y",
    "ANL01FL": "Y",
    "SAFFL": "Y"
  },
  {
    "STUDYID": "CDISCPILOT01",
    "USUBJID": "01-701-005",
    "TRTP": "Placebo",
    "TRTPN": 0,
    "PARAMCD": "HGB",
    "PARAM": "Hemoglobin ( g/dL )",
    "AVAL": 12.1,
    "BASE": 12,
    "CHG": 0.1,
    "PCHG": 0.8333,
    "A1LO": 12,
    "A1HI": 15.5,
    "ANRIND": "NORMAL",
    "BNRIND": "NORMAL",
    "SHIFT1": "NORMAL -> NORMAL",
    "ADT": "2013-04-04",
    "ADY": 57,
    "AVISIT": "WEEK 8",
    "AVISITN": 5,
    "ABLFL": "",
    "ANL01FL": "Y",
    "SAFFL": "Y"
  },
  {
    "STUDYID": "CDISCPILOT01",
    "USUBJID": "01-701-005",
    "TRTP": "Placebo",
    "TRTPN": 0,
    "PARAMCD": "HGB",
    "PARAM": "Hemoglobin ( g/dL )",
    "AVAL": 12.05,
    "BASE": 12,
    "CHG": 0.05,
    "PCHG": 0.4167,
    "A1LO": 12,
    "A1HI": 15.5,
    "ANRIND": "NORMAL",
    "BNRIND": "NORMAL",
    "SHIFT1": "NORMAL -> NORMAL",
    "ADT": "2013-02-08",
    "ADY": 2,
    "AVISIT": "BASELINE",
    "AVISITN": 2,
    "ABLFL": "",
    "ANL01FL": "Y",
    "SAFFL": "Y"
  },
  {
    "STUDYID": "CDISCPILOT01",
    "USUBJID": "01-701-005",
    "TRTP": "Placebo",
    "TRTPN": 0,
    "PARAMCD": "HGB",
    "PARAM": "Hemoglobin ( g/dL )",
    "AVAL": 11.74,
    "BASE": 12,
    "CHG": -0.26,
    "PCHG": -2.1667,
    "A1LO": 12,
    "A1HI": 15.5,
    "ANRIND": "LOW",
    "BNRIND": "NORMAL",
    "SHIFT1": "NORMAL -> LOW",
    "ADT": "2013-05-30",
    "ADY": 113,
    "AVISIT": "WEEK 16",
    "AVISITN": 7,
    "ABLFL": "",
    "ANL01FL": "Y",
    "SAFFL": "Y"
  },
  {
    "STUDYID": "CDISCPILOT01",
    "USUBJID": "01-701-005",
    "TRTP": "Placebo",
    "TRTPN": 0,
    "PARAMCD": "HGB",
    "PARAM": "Hemoglobin ( g/dL )",
    "AVAL": 12.03,
    "BASE": 12,
    "CHG": 0.03,
    "PCHG": 0.25,
    "A1LO": 12,
    "A1HI": 15.5,
    "ANRIND": "NORMAL",
    "BNRIND": "NORMAL",
    "SHIFT1": "NORMAL -> NORMAL",
    "ADT": "2013-07-25",
    "ADY": 169,
    "AVISIT": "WEEK 24",
    "AVISITN": 9,
    "ABLFL": "",
    "ANL01FL": "Y",
    "SAFFL": "Y"
  },
  {
    "STUDYID": "CDISCPILOT01",
    "USUBJID": "01-701-005",
    "TRTP": "Placebo",
    "TRTPN": 0,
    "PARAMCD": "PLT",
    "PARAM": "Platelets ( 10^9/L )",
    "AVAL": 176.12,
    "BASE": 176.41,
    "CHG": -0.29,
    "PCHG": -0.1644,
    "A1LO": 150,
    "A1HI": 400,
    "ANRIND": "NORMAL",
    "BNRIND": "NORMAL",
    "SHIFT1": "NORMAL -> NORMAL",
    "ADT": "2013-07-26",
    "ADY": 170,
    "AVISIT": "WEEK 24",
    "AVISITN": 9,
    "ABLFL": "",
    "ANL01FL": "Y",
    "SAFFL": "Y"
  },
  {
    "STUDYID": "CDISCPILOT01",
    "USUBJID": "01-701-005",
    "TRTP": "Placebo",
    "TRTPN": 0,
    "PARAMCD": "PLT",
    "PARAM": "Platelets ( 10^9/L )",
    "AVAL": 181.39,
    "BASE": 176.41,
    "CHG": 4.98,
    "PCHG": 2.823,
    "A1LO": 150,
    "A1HI": 400,
    "ANRIND": "NORMAL",
    "BNRIND": "NORMAL",
    "SHIFT1": "NORMAL -> NORMAL",
    "ADT": "2013-02-07",
    "ADY": 1,
    "AVISIT": "BASELINE",
    "AVISITN": 2,
    "ABLFL": "",
    "ANL01FL": "Y",
    "SAFFL": "Y"
  },
  {
    "STUDYID": "CDISCPILOT01",
    "USUBJID": "01-701-005",
    "TRTP": "Placebo",
    "TRTPN": 0,
    "PARAMCD": "PLT",
    "PARAM": "Platelets ( 10^9/L )",
    "AVAL": 176.41,
    "BASE": 176.41,
    "CHG": 0,
    "PCHG": 0,
    "A1LO": 150,
    "A1HI": 400,
    "ANRIND": "NORMAL",
    "BNRIND": "NORMAL",
    "SHIFT1": "NORMAL -> NORMAL",
    "ADT": "2013-01-31",
    "ADY": -7,
    "AVISIT": "SCREENING",
    "AVISITN": 1,
    "ABLFL": "Y",
    "ANL01FL": "Y",
    "SAFFL": "Y"
  },
  {
    "STUDYID": "CDISCPILOT01",
    "USUBJID": "01-701-005",
    "TRTP": "Placebo",
    "TRTPN": 0,
    "PARAMCD": "PLT",
    "PARAM": "Platelets ( 10^9/L )",
    "AVAL": 176.88,
    "BASE": 176.41,
    "CHG": 0.47,
    "PCHG": 0.2664,
    "A1LO": 150,
    "A1HI": 400,
    "ANRIND": "NORMAL",
    "BNRIND": "NORMAL",
    "SHIFT1": "NORMAL -> NORMAL",
    "ADT": "2013-04-04",
    "ADY": 57,
    "AVISIT": "WEEK 8",
    "AVISITN": 5,
    "ABLFL": "",
    "ANL01FL": "Y",
    "SAFFL": "Y"
  },
  {
    "STUDYID": "CDISCPILOT01",
    "USUBJID": "01-701-005",
    "TRTP": "Placebo",
    "TRTPN": 0,
    "PARAMCD": "PLT",
    "PARAM": "Platelets ( 10^9/L )",
    "AVAL": 185.2,
    "BASE": 176.41,
    "CHG": 8.79,
    "PCHG": 4.9827,
    "A1LO": 150,
    "A1HI": 400,
    "ANRIND": "NORMAL",
    "BNRIND": "NORMAL",
    "SHIFT1": "NORMAL -> NORMAL",
    "ADT": "2013-06-01",
    "ADY": 115,
    "AVISIT": "WEEK 16",
    "AVISITN": 7,
    "ABLFL": "",
    "ANL01FL": "Y",
    "SAFFL": "Y"
  },
  {
    "STUDYID": "CDISCPILOT01",
    "USUBJID": "01-701-005",
    "TRTP": "Placebo",
    "TRTPN": 0,
    "PARAMCD": "POTASSIUM",
    "PARAM": "Potassium ( mmol/L )",
    "AVAL": 4.01,
    "BASE": 3.98,
    "CHG": 0.03,
    "PCHG": 0.7538,
    "A1LO": 3.5,
    "A1HI": 5,
    "ANRIND": "NORMAL",
    "BNRIND": "NORMAL",
    "SHIFT1": "NORMAL -> NORMAL",
    "ADT": "2013-04-04",
    "ADY": 57,
    "AVISIT": "WEEK 8",
    "AVISITN": 5,
    "ABLFL": "",
    "ANL01FL": "Y",
    "SAFFL": "Y"
  },
  {
    "STUDYID": "CDISCPILOT01",
    "USUBJID": "01-701-005",
    "TRTP": "Placebo",
    "TRTPN": 0,
    "PARAMCD": "POTASSIUM",
    "PARAM": "Potassium ( mmol/L )",
    "AVAL": 3.98,
    "BASE": 3.98,
    "CHG": 0,
    "PCHG": 0,
    "A1LO": 3.5,
    "A1HI": 5,
    "ANRIND": "NORMAL",
    "BNRIND": "NORMAL",
    "SHIFT1": "NORMAL -> NORMAL",
    "ADT": "2013-01-31",
    "ADY": -7,
    "AVISIT": "SCREENING",
    "AVISITN": 1,
    "ABLFL": "Y",
    "ANL01FL": "Y",
    "SAFFL": "Y"
  },
  {
    "STUDYID": "CDISCPILOT01",
    "USUBJID": "01-701-005",
    "TRTP": "Placebo",
    "TRTPN": 0,
    "PARAMCD": "POTASSIUM",
    "PARAM": "Potassium ( mmol/L )",
    "AVAL": 3.97,
    "BASE": 3.98,
    "CHG": -0.01,
    "PCHG": -0.2513,
    "A1LO": 3.5,
    "A1HI": 5,
    "ANRIND": "NORMAL",
    "BNRIND": "NORMAL",
    "SHIFT1": "NORMAL -> NORMAL",
    "ADT": "2013-02-09",
    "ADY": 3,
    "AVISIT": "BASELINE",
    "AVISITN": 2,
    "ABLFL": "",
    "ANL01FL": "Y",
    "SAFFL": "Y"
  },
  {
    "STUDYID": "CDISCPILOT01",
    "USUBJID": "01-701-005",
    "TRTP": "Placebo",
    "TRTPN": 0,
    "PARAMCD": "POTASSIUM",
    "PARAM": "Potassium ( mmol/L )",
    "AVAL": 4.06,
    "BASE": 3.98,
    "CHG": 0.08,
    "PCHG": 2.0101,
    "A1LO": 3.5,
    "A1HI": 5,
    "ANRIND": "NORMAL",
    "BNRIND": "NORMAL",
    "SHIFT1": "NORMAL -> NORMAL",
    "ADT": "2013-05-31",
    "ADY": 114,
    "AVISIT": "WEEK 16",
    "AVISITN": 7,
    "ABLFL": "",
    "ANL01FL": "Y",
    "SAFFL": "Y"
  },
  {
    "STUDYID": "CDISCPILOT01",
    "USUBJID": "01-701-005",
    "TRTP": "Placebo",
    "TRTPN": 0,
    "PARAMCD": "POTASSIUM",
    "PARAM": "Potassium ( mmol/L )",
    "AVAL": 4.02,
    "BASE": 3.98,
    "CHG": 0.04,
    "PCHG": 1.005,
    "A1LO": 3.5,
    "A1HI": 5,
    "ANRIND": "NORMAL",
    "BNRIND": "NORMAL",
    "SHIFT1": "NORMAL -> NORMAL",
    "ADT": "2013-07-25",
    "ADY": 169,
    "AVISIT": "WEEK 24",
    "AVISITN": 9,
    "ABLFL": "",
    "ANL01FL": "Y",
    "SAFFL": "Y"
  },
  {
    "STUDYID": "CDISCPILOT01",
    "USUBJID": "01-701-005",
    "TRTP": "Placebo",
    "TRTPN": 0,
    "PARAMCD": "RBC",
    "PARAM": "Red Blood Cells ( 10^12/L )",
    "AVAL": 3.9,
    "BASE": 3.9,
    "CHG": 0,
    "PCHG": 0,
    "A1LO": 4,
    "A1HI": 5,
    "ANRIND": "LOW",
    "BNRIND": "LOW",
    "SHIFT1": "LOW -> LOW",
    "ADT": "2013-02-01",
    "ADY": -6,
    "AVISIT": "SCREENING",
    "AVISITN": 1,
    "ABLFL": "Y",
    "ANL01FL": "Y",
    "SAFFL": "Y"
  },
  {
    "STUDYID": "CDISCPILOT01",
    "USUBJID": "01-701-005",
    "TRTP": "Placebo",
    "TRTPN": 0,
    "PARAMCD": "RBC",
    "PARAM": "Red Blood Cells ( 10^12/L )",
    "AVAL": 3.78,
    "BASE": 3.9,
    "CHG": -0.12,
    "PCHG": -3.0769,
    "A1LO": 4,
    "A1HI": 5,
    "ANRIND": "LOW",
    "BNRIND": "LOW",
    "SHIFT1": "LOW -> LOW",
    "ADT": "2013-02-08",
    "ADY": 2,
    "AVISIT": "BASELINE",
    "AVISITN": 2,
    "ABLFL": "",
    "ANL01FL": "Y",
    "SAFFL": "Y"
  },
  {
    "STUDYID": "CDISCPILOT01",
    "USUBJID": "01-701-005",
    "TRTP": "Placebo",
    "TRTPN": 0,
    "PARAMCD": "RBC",
    "PARAM": "Red Blood Cells ( 10^12/L )",
    "AVAL": 4.07,
    "BASE": 3.9,
    "CHG": 0.17,
    "PCHG": 4.359,
    "A1LO": 4,
    "A1HI": 5,
    "ANRIND": "NORMAL",
    "BNRIND": "LOW",
    "SHIFT1": "LOW -> NORMAL",
    "ADT": "2013-05-31",
    "ADY": 114,
    "AVISIT": "WEEK 16",
    "AVISITN": 7,
    "ABLFL": "",
    "ANL01FL": "Y",
    "SAFFL": "Y"
  },
  {
    "STUDYID": "CDISCPILOT01",
    "USUBJID": "01-701-005",
    "TRTP": "Placebo",
    "TRTPN": 0,
    "PARAMCD": "RBC",
    "PARAM": "Red Blood Cells ( 10^12/L )",
    "AVAL": 3.85,
    "BASE": 3.9,
    "CHG": -0.05,
    "PCHG": -1.2821,
    "A1LO": 4,
    "A1HI": 5,
    "ANRIND": "LOW",
    "BNRIND": "LOW",
    "SHIFT1": "LOW -> LOW",
    "ADT": "2013-07-27",
    "ADY": 171,
    "AVISIT": "WEEK 24",
    "AVISITN": 9,
    "ABLFL": "",
    "ANL01FL": "Y",
    "SAFFL": "Y"
  },
  {
    "STUDYID": "CDISCPILOT01",
    "USUBJID": "01-701-005",
    "TRTP": "Placebo",
    "TRTPN": 0,
    "PARAMCD": "RBC",
    "PARAM": "Red Blood Cells ( 10^12/L )",
    "AVAL": 3.83,
    "BASE": 3.9,
    "CHG": -0.07,
    "PCHG": -1.7949,
    "A1LO": 4,
    "A1HI": 5,
    "ANRIND": "LOW",
    "BNRIND": "LOW",
    "SHIFT1": "LOW -> LOW",
    "ADT": "2013-04-04",
    "ADY": 57,
    "AVISIT": "WEEK 8",
    "AVISITN": 5,
    "ABLFL": "",
    "ANL01FL": "Y",
    "SAFFL": "Y"
  },
  {
    "STUDYID": "CDISCPILOT01",
    "USUBJID": "01-701-005",
    "TRTP": "Placebo",
    "TRTPN": 0,
    "PARAMCD": "SODIUM",
    "PARAM": "Sodium ( mmol/L )",
    "AVAL": 141.5,
    "BASE": 141.06,
    "CHG": 0.44,
    "PCHG": 0.3119,
    "A1LO": 136,
    "A1HI": 145,
    "ANRIND": "NORMAL",
    "BNRIND": "NORMAL",
    "SHIFT1": "NORMAL -> NORMAL",
    "ADT": "2013-02-09",
    "ADY": 3,
    "AVISIT": "BASELINE",
    "AVISITN": 2,
    "ABLFL": "",
    "ANL01FL": "Y",
    "SAFFL": "Y"
  },
  {
    "STUDYID": "CDISCPILOT01",
    "USUBJID": "01-701-005",
    "TRTP": "Placebo",
    "TRTPN": 0,
    "PARAMCD": "SODIUM",
    "PARAM": "Sodium ( mmol/L )",
    "AVAL": 140.3,
    "BASE": 141.06,
    "CHG": -0.76,
    "PCHG": -0.5388,
    "A1LO": 136,
    "A1HI": 145,
    "ANRIND": "NORMAL",
    "BNRIND": "NORMAL",
    "SHIFT1": "NORMAL -> NORMAL",
    "ADT": "2013-04-06",
    "ADY": 59,
    "AVISIT": "WEEK 8",
    "AVISITN": 5,
    "ABLFL": "",
    "ANL01FL": "Y",
    "SAFFL": "Y"
  },
  {
    "STUDYID": "CDISCPILOT01",
    "USUBJID": "01-701-005",
    "TRTP": "Placebo",
    "TRTPN": 0,
    "PARAMCD": "SODIUM",
    "PARAM": "Sodium ( mmol/L )",
    "AVAL": 141.19,
    "BASE": 141.06,
    "CHG": 0.13,
    "PCHG": 0.0922,
    "A1LO": 136,
    "A1HI": 145,
    "ANRIND": "NORMAL",
    "BNRIND": "NORMAL",
    "SHIFT1": "NORMAL -> NORMAL",
    "ADT": "2013-07-26",
    "ADY": 170,
    "AVISIT": "WEEK 24",
    "AVISITN": 9,
    "ABLFL": "",
    "ANL01FL": "Y",
    "SAFFL": "Y"
  },
  {
    "STUDYID": "CDISCPILOT01",
    "USUBJID": "01-701-005",
    "TRTP": "Placebo",
    "TRTPN": 0,
    "PARAMCD": "SODIUM",
    "PARAM": "Sodium ( mmol/L )",
    "AVAL": 141.27,
    "BASE": 141.06,
    "CHG": 0.21,
    "PCHG": 0.1489,
    "A1LO": 136,
    "A1HI": 145,
    "ANRIND": "NORMAL",
    "BNRIND": "NORMAL",
    "SHIFT1": "NORMAL -> NORMAL",
    "ADT": "2013-05-31",
    "ADY": 114,
    "AVISIT": "WEEK 16",
    "AVISITN": 7,
    "ABLFL": "",
    "ANL01FL": "Y",
    "SAFFL": "Y"
  },
  {
    "STUDYID": "CDISCPILOT01",
    "USUBJID": "01-701-005",
    "TRTP": "Placebo",
    "TRTPN": 0,
    "PARAMCD": "SODIUM",
    "PARAM": "Sodium ( mmol/L )",
    "AVAL": 141.06,
    "BASE": 141.06,
    "CHG": 0,
    "PCHG": 0,
    "A1LO": 136,
    "A1HI": 145,
    "ANRIND": "NORMAL",
    "BNRIND": "NORMAL",
    "SHIFT1": "NORMAL -> NORMAL",
    "ADT": "2013-02-01",
    "ADY": -6,
    "AVISIT": "SCREENING",
    "AVISITN": 1,
    "ABLFL": "Y",
    "ANL01FL": "Y",
    "SAFFL": "Y"
  },
  {
    "STUDYID": "CDISCPILOT01",
    "USUBJID": "01-701-005",
    "TRTP": "Placebo",
    "TRTPN": 0,
    "PARAMCD": "WBC",
    "PARAM": "White Blood Cells ( 10^9/L )",
    "AVAL": 7.53,
    "BASE": 7.53,
    "CHG": 0,
    "PCHG": 0,
    "A1LO": 4,
    "A1HI": 11,
    "ANRIND": "NORMAL",
    "BNRIND": "NORMAL",
    "SHIFT1": "NORMAL -> NORMAL",
    "ADT": "2013-01-30",
    "ADY": -8,
    "AVISIT": "SCREENING",
    "AVISITN": 1,
    "ABLFL": "Y",
    "ANL01FL": "Y",
    "SAFFL": "Y"
  },
  {
    "STUDYID": "CDISCPILOT01",
    "USUBJID": "01-701-005",
    "TRTP": "Placebo",
    "TRTPN": 0,
    "PARAMCD": "WBC",
    "PARAM": "White Blood Cells ( 10^9/L )",
    "AVAL": 7.52,
    "BASE": 7.53,
    "CHG": -0.01,
    "PCHG": -0.1328,
    "A1LO": 4,
    "A1HI": 11,
    "ANRIND": "NORMAL",
    "BNRIND": "NORMAL",
    "SHIFT1": "NORMAL -> NORMAL",
    "ADT": "2013-05-30",
    "ADY": 113,
    "AVISIT": "WEEK 16",
    "AVISITN": 7,
    "ABLFL": "",
    "ANL01FL": "Y",
    "SAFFL": "Y"
  },
  {
    "STUDYID": "CDISCPILOT01",
    "USUBJID": "01-701-005",
    "TRTP": "Placebo",
    "TRTPN": 0,
    "PARAMCD": "WBC",
    "PARAM": "White Blood Cells ( 10^9/L )",
    "AVAL": 7.26,
    "BASE": 7.53,
    "CHG": -0.27,
    "PCHG": -3.5857,
    "A1LO": 4,
    "A1HI": 11,
    "ANRIND": "NORMAL",
    "BNRIND": "NORMAL",
    "SHIFT1": "NORMAL -> NORMAL",
    "ADT": "2013-02-08",
    "ADY": 2,
    "AVISIT": "BASELINE",
    "AVISITN": 2,
    "ABLFL": "",
    "ANL01FL": "Y",
    "SAFFL": "Y"
  },
  {
    "STUDYID": "CDISCPILOT01",
    "USUBJID": "01-701-005",
    "TRTP": "Placebo",
    "TRTPN": 0,
    "PARAMCD": "WBC",
    "PARAM": "White Blood Cells ( 10^9/L )",
    "AVAL": 7.69,
    "BASE": 7.53,
    "CHG": 0.16,
    "PCHG": 2.1248,
    "A1LO": 4,
    "A1HI": 11,
    "ANRIND": "NORMAL",
    "BNRIND": "NORMAL",
    "SHIFT1": "NORMAL -> NORMAL",
    "ADT": "2013-04-05",
    "ADY": 58,
    "AVISIT": "WEEK 8",
    "AVISITN": 5,
    "ABLFL": "",
    "ANL01FL": "Y",
    "SAFFL": "Y"
  },
  {
    "STUDYID": "CDISCPILOT01",
    "USUBJID": "01-701-005",
    "TRTP": "Placebo",
    "TRTPN": 0,
    "PARAMCD": "WBC",
    "PARAM": "White Blood Cells ( 10^9/L )",
    "AVAL": 7.15,
    "BASE": 7.53,
    "CHG": -0.38,
    "PCHG": -5.0465,
    "A1LO": 4,
    "A1HI": 11,
    "ANRIND": "NORMAL",
    "BNRIND": "NORMAL",
    "SHIFT1": "NORMAL -> NORMAL",
    "ADT": "2013-07-26",
    "ADY": 170,
    "AVISIT": "WEEK 24",
    "AVISITN": 9,
    "ABLFL": "",
    "ANL01FL": "Y",
    "SAFFL": "Y"
  },
  {
    "STUDYID": "CDISCPILOT01",
    "USUBJID": "01-701-006",
    "TRTP": "Placebo",
    "TRTPN": 0,
    "PARAMCD": "ALB",
    "PARAM": "Albumin ( g/dL )",
    "AVAL": 4,
    "BASE": 4.03,
    "CHG": -0.03,
    "PCHG": -0.7444,
    "A1LO": 3.5,
    "A1HI": 5,
    "ANRIND": "NORMAL",
    "BNRIND": "NORMAL",
    "SHIFT1": "NORMAL -> NORMAL",
    "ADT": "2013-08-23",
    "ADY": 58,
    "AVISIT": "WEEK 8",
    "AVISITN": 5,
    "ABLFL": "",
    "ANL01FL": "Y",
    "SAFFL": "Y"
  },
  {
    "STUDYID": "CDISCPILOT01",
    "USUBJID": "01-701-006",
    "TRTP": "Placebo",
    "TRTPN": 0,
    "PARAMCD": "ALB",
    "PARAM": "Albumin ( g/dL )",
    "AVAL": 4.03,
    "BASE": 4.03,
    "CHG": 0,
    "PCHG": 0,
    "A1LO": 3.5,
    "A1HI": 5,
    "ANRIND": "NORMAL",
    "BNRIND": "NORMAL",
    "SHIFT1": "NORMAL -> NORMAL",
    "ADT": "2013-06-20",
    "ADY": -7,
    "AVISIT": "SCREENING",
    "AVISITN": 1,
    "ABLFL": "Y",
    "ANL01FL": "Y",
    "SAFFL": "Y"
  },
  {
    "STUDYID": "CDISCPILOT01",
    "USUBJID": "01-701-006",
    "TRTP": "Placebo",
    "TRTPN": 0,
    "PARAMCD": "ALB",
    "PARAM": "Albumin ( g/dL )",
    "AVAL": 4.07,
    "BASE": 4.03,
    "CHG": 0.04,
    "PCHG": 0.9926,
    "A1LO": 3.5,
    "A1HI": 5,
    "ANRIND": "NORMAL",
    "BNRIND": "NORMAL",
    "SHIFT1": "NORMAL -> NORMAL",
    "ADT": "2013-10-17",
    "ADY": 113,
    "AVISIT": "WEEK 16",
    "AVISITN": 7,
    "ABLFL": "",
    "ANL01FL": "Y",
    "SAFFL": "Y"
  },
  {
    "STUDYID": "CDISCPILOT01",
    "USUBJID": "01-701-006",
    "TRTP": "Placebo",
    "TRTPN": 0,
    "PARAMCD": "ALB",
    "PARAM": "Albumin ( g/dL )",
    "AVAL": 4.08,
    "BASE": 4.03,
    "CHG": 0.05,
    "PCHG": 1.2407,
    "A1LO": 3.5,
    "A1HI": 5,
    "ANRIND": "NORMAL",
    "BNRIND": "NORMAL",
    "SHIFT1": "NORMAL -> NORMAL",
    "ADT": "2013-12-12",
    "ADY": 169,
    "AVISIT": "WEEK 24",
    "AVISITN": 9,
    "ABLFL": "",
    "ANL01FL": "Y",
    "SAFFL": "Y"
  },
  {
    "STUDYID": "CDISCPILOT01",
    "USUBJID": "01-701-006",
    "TRTP": "Placebo",
    "TRTPN": 0,
    "PARAMCD": "ALB",
    "PARAM": "Albumin ( g/dL )",
    "AVAL": 4.01,
    "BASE": 4.03,
    "CHG": -0.02,
    "PCHG": -0.4963,
    "A1LO": 3.5,
    "A1HI": 5,
    "ANRIND": "NORMAL",
    "BNRIND": "NORMAL",
    "SHIFT1": "NORMAL -> NORMAL",
    "ADT": "2013-06-27",
    "ADY": 1,
    "AVISIT": "BASELINE",
    "AVISITN": 2,
    "ABLFL": "",
    "ANL01FL": "Y",
    "SAFFL": "Y"
  },
  {
    "STUDYID": "CDISCPILOT01",
    "USUBJID": "01-701-006",
    "TRTP": "Placebo",
    "TRTPN": 0,
    "PARAMCD": "ALP",
    "PARAM": "Alkaline Phosphatase ( U/L )",
    "AVAL": 85.1,
    "BASE": 82.57,
    "CHG": 2.53,
    "PCHG": 3.0641,
    "A1LO": 44,
    "A1HI": 147,
    "ANRIND": "NORMAL",
    "BNRIND": "NORMAL",
    "SHIFT1": "NORMAL -> NORMAL",
    "ADT": "2013-10-16",
    "ADY": 112,
    "AVISIT": "WEEK 16",
    "AVISITN": 7,
    "ABLFL": "",
    "ANL01FL": "Y",
    "SAFFL": "Y"
  },
  {
    "STUDYID": "CDISCPILOT01",
    "USUBJID": "01-701-006",
    "TRTP": "Placebo",
    "TRTPN": 0,
    "PARAMCD": "ALP",
    "PARAM": "Alkaline Phosphatase ( U/L )",
    "AVAL": 79.3,
    "BASE": 82.57,
    "CHG": -3.27,
    "PCHG": -3.9603,
    "A1LO": 44,
    "A1HI": 147,
    "ANRIND": "NORMAL",
    "BNRIND": "NORMAL",
    "SHIFT1": "NORMAL -> NORMAL",
    "ADT": "2013-12-12",
    "ADY": 169,
    "AVISIT": "WEEK 24",
    "AVISITN": 9,
    "ABLFL": "",
    "ANL01FL": "Y",
    "SAFFL": "Y"
  },
  {
    "STUDYID": "CDISCPILOT01",
    "USUBJID": "01-701-006",
    "TRTP": "Placebo",
    "TRTPN": 0,
    "PARAMCD": "ALP",
    "PARAM": "Alkaline Phosphatase ( U/L )",
    "AVAL": 78.62,
    "BASE": 82.57,
    "CHG": -3.95,
    "PCHG": -4.7838,
    "A1LO": 44,
    "A1HI": 147,
    "ANRIND": "NORMAL",
    "BNRIND": "NORMAL",
    "SHIFT1": "NORMAL -> NORMAL",
    "ADT": "2013-06-26",
    "ADY": -1,
    "AVISIT": "BASELINE",
    "AVISITN": 2,
    "ABLFL": "",
    "ANL01FL": "Y",
    "SAFFL": "Y"
  },
  {
    "STUDYID": "CDISCPILOT01",
    "USUBJID": "01-701-006",
    "TRTP": "Placebo",
    "TRTPN": 0,
    "PARAMCD": "ALP",
    "PARAM": "Alkaline Phosphatase ( U/L )",
    "AVAL": 82.57,
    "BASE": 82.57,
    "CHG": 0,
    "PCHG": 0,
    "A1LO": 44,
    "A1HI": 147,
    "ANRIND": "NORMAL",
    "BNRIND": "NORMAL",
    "SHIFT1": "NORMAL -> NORMAL",
    "ADT": "2013-06-18",
    "ADY": -9,
    "AVISIT": "SCREENING",
    "AVISITN": 1,
    "ABLFL": "Y",
    "ANL01FL": "Y",
    "SAFFL": "Y"
  },
  {
    "STUDYID": "CDISCPILOT01",
    "USUBJID": "01-701-006",
    "TRTP": "Placebo",
    "TRTPN": 0,
    "PARAMCD": "ALP",
    "PARAM": "Alkaline Phosphatase ( U/L )",
    "AVAL": 82.04,
    "BASE": 82.57,
    "CHG": -0.53,
    "PCHG": -0.6419,
    "A1LO": 44,
    "A1HI": 147,
    "ANRIND": "NORMAL",
    "BNRIND": "NORMAL",
    "SHIFT1": "NORMAL -> NORMAL",
    "ADT": "2013-08-22",
    "ADY": 57,
    "AVISIT": "WEEK 8",
    "AVISITN": 5,
    "ABLFL": "",
    "ANL01FL": "Y",
    "SAFFL": "Y"
  },
  {
    "STUDYID": "CDISCPILOT01",
    "USUBJID": "01-701-006",
    "TRTP": "Placebo",
    "TRTPN": 0,
    "PARAMCD": "ALT",
    "PARAM": "Alanine Aminotransferase ( U/L )",
    "AVAL": 14.4,
    "BASE": 14.4,
    "CHG": 0,
    "PCHG": 0,
    "A1LO": 7,
    "A1HI": 56,
    "ANRIND": "NORMAL",
    "BNRIND": "NORMAL",
    "SHIFT1": "NORMAL -> NORMAL",
    "ADT": "2013-06-18",
    "ADY": -9,
    "AVISIT": "SCREENING",
    "AVISITN": 1,
    "ABLFL": "Y",
    "ANL01FL": "Y",
    "SAFFL": "Y"
  },
  {
    "STUDYID": "CDISCPILOT01",
    "USUBJID": "01-701-006",
    "TRTP": "Placebo",
    "TRTPN": 0,
    "PARAMCD": "ALT",
    "PARAM": "Alanine Aminotransferase ( U/L )",
    "AVAL": 12.69,
    "BASE": 14.4,
    "CHG": -1.71,
    "PCHG": -11.875,
    "A1LO": 7,
    "A1HI": 56,
    "ANRIND": "NORMAL",
    "BNRIND": "NORMAL",
    "SHIFT1": "NORMAL -> NORMAL",
    "ADT": "2013-10-17",
    "ADY": 113,
    "AVISIT": "WEEK 16",
    "AVISITN": 7,
    "ABLFL": "",
    "ANL01FL": "Y",
    "SAFFL": "Y"
  },
  {
    "STUDYID": "CDISCPILOT01",
    "USUBJID": "01-701-006",
    "TRTP": "Placebo",
    "TRTPN": 0,
    "PARAMCD": "ALT",
    "PARAM": "Alanine Aminotransferase ( U/L )",
    "AVAL": 12.27,
    "BASE": 14.4,
    "CHG": -2.13,
    "PCHG": -14.7917,
    "A1LO": 7,
    "A1HI": 56,
    "ANRIND": "NORMAL",
    "BNRIND": "NORMAL",
    "SHIFT1": "NORMAL -> NORMAL",
    "ADT": "2013-12-11",
    "ADY": 168,
    "AVISIT": "WEEK 24",
    "AVISITN": 9,
    "ABLFL": "",
    "ANL01FL": "Y",
    "SAFFL": "Y"
  },
  {
    "STUDYID": "CDISCPILOT01",
    "USUBJID": "01-701-006",
    "TRTP": "Placebo",
    "TRTPN": 0,
    "PARAMCD": "ALT",
    "PARAM": "Alanine Aminotransferase ( U/L )",
    "AVAL": 15.26,
    "BASE": 14.4,
    "CHG": 0.86,
    "PCHG": 5.9722,
    "A1LO": 7,
    "A1HI": 56,
    "ANRIND": "NORMAL",
    "BNRIND": "NORMAL",
    "SHIFT1": "NORMAL -> NORMAL",
    "ADT": "2013-06-27",
    "ADY": 1,
    "AVISIT": "BASELINE",
    "AVISITN": 2,
    "ABLFL": "",
    "ANL01FL": "Y",
    "SAFFL": "Y"
  },
  {
    "STUDYID": "CDISCPILOT01",
    "USUBJID": "01-701-006",
    "TRTP": "Placebo",
    "TRTPN": 0,
    "PARAMCD": "ALT",
    "PARAM": "Alanine Aminotransferase ( U/L )",
    "AVAL": 14.55,
    "BASE": 14.4,
    "CHG": 0.15,
    "PCHG": 1.0417,
    "A1LO": 7,
    "A1HI": 56,
    "ANRIND": "NORMAL",
    "BNRIND": "NORMAL",
    "SHIFT1": "NORMAL -> NORMAL",
    "ADT": "2013-08-23",
    "ADY": 58,
    "AVISIT": "WEEK 8",
    "AVISITN": 5,
    "ABLFL": "",
    "ANL01FL": "Y",
    "SAFFL": "Y"
  },
  {
    "STUDYID": "CDISCPILOT01",
    "USUBJID": "01-701-006",
    "TRTP": "Placebo",
    "TRTPN": 0,
    "PARAMCD": "AST",
    "PARAM": "Aspartate Aminotransferase ( U/L )",
    "AVAL": 26.43,
    "BASE": 26.05,
    "CHG": 0.38,
    "PCHG": 1.4587,
    "A1LO": 10,
    "A1HI": 40,
    "ANRIND": "NORMAL",
    "BNRIND": "NORMAL",
    "SHIFT1": "NORMAL -> NORMAL",
    "ADT": "2013-10-17",
    "ADY": 113,
    "AVISIT": "WEEK 16",
    "AVISITN": 7,
    "ABLFL": "",
    "ANL01FL": "Y",
    "SAFFL": "Y"
  },
  {
    "STUDYID": "CDISCPILOT01",
    "USUBJID": "01-701-006",
    "TRTP": "Placebo",
    "TRTPN": 0,
    "PARAMCD": "AST",
    "PARAM": "Aspartate Aminotransferase ( U/L )",
    "AVAL": 26.05,
    "BASE": 26.05,
    "CHG": 0,
    "PCHG": 0,
    "A1LO": 10,
    "A1HI": 40,
    "ANRIND": "NORMAL",
    "BNRIND": "NORMAL",
    "SHIFT1": "NORMAL -> NORMAL",
    "ADT": "2013-06-18",
    "ADY": -9,
    "AVISIT": "SCREENING",
    "AVISITN": 1,
    "ABLFL": "Y",
    "ANL01FL": "Y",
    "SAFFL": "Y"
  },
  {
    "STUDYID": "CDISCPILOT01",
    "USUBJID": "01-701-006",
    "TRTP": "Placebo",
    "TRTPN": 0,
    "PARAMCD": "AST",
    "PARAM": "Aspartate Aminotransferase ( U/L )",
    "AVAL": 26.65,
    "BASE": 26.05,
    "CHG": 0.6,
    "PCHG": 2.3033,
    "A1LO": 10,
    "A1HI": 40,
    "ANRIND": "NORMAL",
    "BNRIND": "NORMAL",
    "SHIFT1": "NORMAL -> NORMAL",
    "ADT": "2013-06-26",
    "ADY": -1,
    "AVISIT": "BASELINE",
    "AVISITN": 2,
    "ABLFL": "",
    "ANL01FL": "Y",
    "SAFFL": "Y"
  },
  {
    "STUDYID": "CDISCPILOT01",
    "USUBJID": "01-701-006",
    "TRTP": "Placebo",
    "TRTPN": 0,
    "PARAMCD": "AST",
    "PARAM": "Aspartate Aminotransferase ( U/L )",
    "AVAL": 25.83,
    "BASE": 26.05,
    "CHG": -0.22,
    "PCHG": -0.8445,
    "A1LO": 10,
    "A1HI": 40,
    "ANRIND": "NORMAL",
    "BNRIND": "NORMAL",
    "SHIFT1": "NORMAL -> NORMAL",
    "ADT": "2013-12-13",
    "ADY": 170,
    "AVISIT": "WEEK 24",
    "AVISITN": 9,
    "ABLFL": "",
    "ANL01FL": "Y",
    "SAFFL": "Y"
  },
  {
    "STUDYID": "CDISCPILOT01",
    "USUBJID": "01-701-006",
    "TRTP": "Placebo",
    "TRTPN": 0,
    "PARAMCD": "AST",
    "PARAM": "Aspartate Aminotransferase ( U/L )",
    "AVAL": 26.72,
    "BASE": 26.05,
    "CHG": 0.67,
    "PCHG": 2.572,
    "A1LO": 10,
    "A1HI": 40,
    "ANRIND": "NORMAL",
    "BNRIND": "NORMAL",
    "SHIFT1": "NORMAL -> NORMAL",
    "ADT": "2013-08-23",
    "ADY": 58,
    "AVISIT": "WEEK 8",
    "AVISITN": 5,
    "ABLFL": "",
    "ANL01FL": "Y",
    "SAFFL": "Y"
  },
  {
    "STUDYID": "CDISCPILOT01",
    "USUBJID": "01-701-006",
    "TRTP": "Placebo",
    "TRTPN": 0,
    "PARAMCD": "BILI",
    "PARAM": "Bilirubin ( mg/dL )",
    "AVAL": 0.41,
    "BASE": 0.35,
    "CHG": 0.06,
    "PCHG": 17.1429,
    "A1LO": 0.1,
    "A1HI": 1.2,
    "ANRIND": "NORMAL",
    "BNRIND": "NORMAL",
    "SHIFT1": "NORMAL -> NORMAL",
    "ADT": "2013-08-21",
    "ADY": 56,
    "AVISIT": "WEEK 8",
    "AVISITN": 5,
    "ABLFL": "",
    "ANL01FL": "Y",
    "SAFFL": "Y"
  },
  {
    "STUDYID": "CDISCPILOT01",
    "USUBJID": "01-701-006",
    "TRTP": "Placebo",
    "TRTPN": 0,
    "PARAMCD": "BILI",
    "PARAM": "Bilirubin ( mg/dL )",
    "AVAL": 0.37,
    "BASE": 0.35,
    "CHG": 0.02,
    "PCHG": 5.7143,
    "A1LO": 0.1,
    "A1HI": 1.2,
    "ANRIND": "NORMAL",
    "BNRIND": "NORMAL",
    "SHIFT1": "NORMAL -> NORMAL",
    "ADT": "2013-12-12",
    "ADY": 169,
    "AVISIT": "WEEK 24",
    "AVISITN": 9,
    "ABLFL": "",
    "ANL01FL": "Y",
    "SAFFL": "Y"
  },
  {
    "STUDYID": "CDISCPILOT01",
    "USUBJID": "01-701-006",
    "TRTP": "Placebo",
    "TRTPN": 0,
    "PARAMCD": "BILI",
    "PARAM": "Bilirubin ( mg/dL )",
    "AVAL": 0.34,
    "BASE": 0.35,
    "CHG": -0.01,
    "PCHG": -2.8571,
    "A1LO": 0.1,
    "A1HI": 1.2,
    "ANRIND": "NORMAL",
    "BNRIND": "NORMAL",
    "SHIFT1": "NORMAL -> NORMAL",
    "ADT": "2013-10-17",
    "ADY": 113,
    "AVISIT": "WEEK 16",
    "AVISITN": 7,
    "ABLFL": "",
    "ANL01FL": "Y",
    "SAFFL": "Y"
  },
  {
    "STUDYID": "CDISCPILOT01",
    "USUBJID": "01-701-006",
    "TRTP": "Placebo",
    "TRTPN": 0,
    "PARAMCD": "BILI",
    "PARAM": "Bilirubin ( mg/dL )",
    "AVAL": 0.35,
    "BASE": 0.35,
    "CHG": 0,
    "PCHG": 0,
    "A1LO": 0.1,
    "A1HI": 1.2,
    "ANRIND": "NORMAL",
    "BNRIND": "NORMAL",
    "SHIFT1": "NORMAL -> NORMAL",
    "ADT": "2013-06-20",
    "ADY": -7,
    "AVISIT": "SCREENING",
    "AVISITN": 1,
    "ABLFL": "Y",
    "ANL01FL": "Y",
    "SAFFL": "Y"
  },
  {
    "STUDYID": "CDISCPILOT01",
    "USUBJID": "01-701-006",
    "TRTP": "Placebo",
    "TRTPN": 0,
    "PARAMCD": "BILI",
    "PARAM": "Bilirubin ( mg/dL )",
    "AVAL": 0.35,
    "BASE": 0.35,
    "CHG": 0,
    "PCHG": 0,
    "A1LO": 0.1,
    "A1HI": 1.2,
    "ANRIND": "NORMAL",
    "BNRIND": "NORMAL",
    "SHIFT1": "NORMAL -> NORMAL",
    "ADT": "2013-06-27",
    "ADY": 1,
    "AVISIT": "BASELINE",
    "AVISITN": 2,
    "ABLFL": "",
    "ANL01FL": "Y",
    "SAFFL": "Y"
  },
  {
    "STUDYID": "CDISCPILOT01",
    "USUBJID": "01-701-006",
    "TRTP": "Placebo",
    "TRTPN": 0,
    "PARAMCD": "BUN",
    "PARAM": "Blood Urea Nitrogen ( mg/dL )",
    "AVAL": 16.92,
    "BASE": 15.67,
    "CHG": 1.25,
    "PCHG": 7.977,
    "A1LO": 8,
    "A1HI": 23,
    "ANRIND": "NORMAL",
    "BNRIND": "NORMAL",
    "SHIFT1": "NORMAL -> NORMAL",
    "ADT": "2013-06-27",
    "ADY": 1,
    "AVISIT": "BASELINE",
    "AVISITN": 2,
    "ABLFL": "",
    "ANL01FL": "Y",
    "SAFFL": "Y"
  },
  {
    "STUDYID": "CDISCPILOT01",
    "USUBJID": "01-701-006",
    "TRTP": "Placebo",
    "TRTPN": 0,
    "PARAMCD": "BUN",
    "PARAM": "Blood Urea Nitrogen ( mg/dL )",
    "AVAL": 14.83,
    "BASE": 15.67,
    "CHG": -0.84,
    "PCHG": -5.3606,
    "A1LO": 8,
    "A1HI": 23,
    "ANRIND": "NORMAL",
    "BNRIND": "NORMAL",
    "SHIFT1": "NORMAL -> NORMAL",
    "ADT": "2013-10-17",
    "ADY": 113,
    "AVISIT": "WEEK 16",
    "AVISITN": 7,
    "ABLFL": "",
    "ANL01FL": "Y",
    "SAFFL": "Y"
  },
  {
    "STUDYID": "CDISCPILOT01",
    "USUBJID": "01-701-006",
    "TRTP": "Placebo",
    "TRTPN": 0,
    "PARAMCD": "BUN",
    "PARAM": "Blood Urea Nitrogen ( mg/dL )",
    "AVAL": 16.22,
    "BASE": 15.67,
    "CHG": 0.55,
    "PCHG": 3.5099,
    "A1LO": 8,
    "A1HI": 23,
    "ANRIND": "NORMAL",
    "BNRIND": "NORMAL",
    "SHIFT1": "NORMAL -> NORMAL",
    "ADT": "2013-08-22",
    "ADY": 57,
    "AVISIT": "WEEK 8",
    "AVISITN": 5,
    "ABLFL": "",
    "ANL01FL": "Y",
    "SAFFL": "Y"
  },
  {
    "STUDYID": "CDISCPILOT01",
    "USUBJID": "01-701-006",
    "TRTP": "Placebo",
    "TRTPN": 0,
    "PARAMCD": "BUN",
    "PARAM": "Blood Urea Nitrogen ( mg/dL )",
    "AVAL": 16,
    "BASE": 15.67,
    "CHG": 0.33,
    "PCHG": 2.1059,
    "A1LO": 8,
    "A1HI": 23,
    "ANRIND": "NORMAL",
    "BNRIND": "NORMAL",
    "SHIFT1": "NORMAL -> NORMAL",
    "ADT": "2013-12-11",
    "ADY": 168,
    "AVISIT": "WEEK 24",
    "AVISITN": 9,
    "ABLFL": "",
    "ANL01FL": "Y",
    "SAFFL": "Y"
  },
  {
    "STUDYID": "CDISCPILOT01",
    "USUBJID": "01-701-006",
    "TRTP": "Placebo",
    "TRTPN": 0,
    "PARAMCD": "BUN",
    "PARAM": "Blood Urea Nitrogen ( mg/dL )",
    "AVAL": 15.67,
    "BASE": 15.67,
    "CHG": 0,
    "PCHG": 0,
    "A1LO": 8,
    "A1HI": 23,
    "ANRIND": "NORMAL",
    "BNRIND": "NORMAL",
    "SHIFT1": "NORMAL -> NORMAL",
    "ADT": "2013-06-19",
    "ADY": -8,
    "AVISIT": "SCREENING",
    "AVISITN": 1,
    "ABLFL": "Y",
    "ANL01FL": "Y",
    "SAFFL": "Y"
  },
  {
    "STUDYID": "CDISCPILOT01",
    "USUBJID": "01-701-006",
    "TRTP": "Placebo",
    "TRTPN": 0,
    "PARAMCD": "CHLORIDE",
    "PARAM": "Chloride ( mmol/L )",
    "AVAL": 102.11,
    "BASE": 102.11,
    "CHG": 0,
    "PCHG": 0,
    "A1LO": 98,
    "A1HI": 106,
    "ANRIND": "NORMAL",
    "BNRIND": "NORMAL",
    "SHIFT1": "NORMAL -> NORMAL",
    "ADT": "2013-06-20",
