[
  {
    "STUDYID": "CDISCPILOT01",
    "USUBJID": "01-701-001",
    "SUBJID": 1,
    "SITEID": 701,
    "TRT01P": "Xanomeline Low Dose",
    "TRT01PN": 1,
    "TRT01A": "Xanomeline Low Dose",
    "TRT01AN": 1,
    "AGE": 70,
    "AGEGR1": "65-80",
    "AGEGR1N": 2,
    "SEX": "F",
    "SEXN": 2,
    "RACE": "WHITE",
    "ETHNIC": "NOT HISPANIC OR LATINO",
    "COUNTRY": "USA",
    "MMSETOT": 21,
    "MMSEGRP": "Mild (20-24)",
    "MMSEGRPN": 3,
    "DISDUR": 81.8,
    "EDUCYR": 10,
    "RANDDT": "2013-06-18",
    "TRTSDT": "2013-06-18",
    "TRTEDT": "2013-12-02",
    "TRTDURD": 168,
    "CUMDOSE": 8698.2,
    "COMPLFL": "Y",
    "DCTREAS": "COMPLETED",
    "EOSSTT": "DISCONTINUED",
    "DCSREAS": "WITHDREW CONSENT",
    "SAFFL": "Y",
    "ITTFL": "Y",
    "EFFFL": "Y"
  },
  {
    "STUDYID": "CDISCPILOT01",
    "USUBJID": "01-701-002",
    "SUBJID": 2,
    "SITEID": 701,
    "TRT01P": "Xanomeline Low Dose",
    "TRT01PN": 1,
    "TRT01A": "Xanomeline Low Dose",
    "TRT01AN": 1,
    "AGE": 68,
    "AGEGR1": "65-80",
    "AGEGR1N": 2,
    "SEX": "F",
    "SEXN": 2,
    "RACE": "BLACK OR AFRICAN AMERICAN",
    "ETHNIC": "NOT HISPANIC OR LATINO",
    "COUNTRY": "USA",
    "MMSETOT": 19,
    "MMSEGRP": "Moderate (15-19)",
    "MMSEGRPN": 2,
    "DISDUR": 32.7,
    "EDUCYR": 12,
    "RANDDT": "2013-03-31",
    "TRTSDT": "2013-03-31",
    "TRTEDT": "2013-09-14",
    "TRTDURD": 168,
    "CUMDOSE": 8882.2,
    "COMPLFL": "Y",
    "DCTREAS": "COMPLETED",
    "EOSSTT": "DISCONTINUED",
    "DCSREAS": "WITHDREW CONSENT",
    "SAFFL": "Y",
    "ITTFL": "Y",
    "EFFFL": "Y"
  },
  {
    "STUDYID": "CDISCPILOT01",
    "USUBJID": "01-701-003",
    "SUBJID": 3,
    "SITEID": 701,
    "TRT01P": "Placebo",
    "TRT01PN": 0,
    "TRT01A": "Placebo",
    "TRT01AN": 0,
    "AGE": 82,
    "AGEGR1": ">80",
    "AGEGR1N": 3,
    "SEX": "F",
    "SEXN": 2,
    "RACE": "WHITE",
    "ETHNIC": "NOT HISPANIC OR LATINO",
    "COUNTRY": "USA",
    "MMSETOT": 24,
    "MMSEGRP": "Mild (20-24)",
    "MMSEGRPN": 3,
    "DISDUR": 9.4,
    "EDUCYR": 11,
    "RANDDT": "2013-01-01",
    "TRTSDT": "2013-01-01",
    "TRTEDT": "2013-06-17",
    "TRTDURD": 168,
    "CUMDOSE": 0,
    "COMPLFL": "Y",
    "DCTREAS": "COMPLETED",
    "EOSSTT": "COMPLETED",
    "DCSREAS": "COMPLETED",
    "SAFFL": "Y",
    "ITTFL": "Y",
    "EFFFL": "Y"
  },
  {
    "STUDYID": "CDISCPILOT01",
    "USUBJID": "01-701-004",
    "SUBJID": 4,
    "SITEID": 701,
    "TRT01P": "Xanomeline High Dose",
    "TRT01PN": 2,
    "TRT01A": "Xanomeline High Dose",
    "TRT01AN": 2,
    "AGE": 87,
    "AGEGR1": ">80",
    "AGEGR1N": 3,
    "SEX": "F",
    "SEXN": 2,
    "RACE": "HISPANIC OR LATINO",
    "ETHNIC": "NOT HISPANIC OR LATINO",
    "COUNTRY": "USA",
    "MMSETOT": 24,
    "MMSEGRP": "Mild (20-24)",
    "MMSEGRPN": 3,
    "DISDUR": 60.9,
    "EDUCYR": 6,
    "RANDDT": "2013-08-24",
    "TRTSDT": "2013-08-24",
    "TRTEDT": "2013-11-15",
    "TRTDURD": 84,
    "CUMDOSE": 6586.2,
    "COMPLFL": "N",
    "DCTREAS": "ADVERSE EVENT",
    "EOSSTT": "DISCONTINUED",
    "DCSREAS": "ADVERSE EVENT",
    "SAFFL": "Y",
    "ITTFL": "Y",
    "EFFFL": "Y"
  },
  {
    "STUDYID": "CDISCPILOT01",
    "USUBJID": "01-701-005",
    "SUBJID": 5,
    "SITEID": 701,
    "TRT01P": "Placebo",
    "TRT01PN": 0,
    "TRT01A": "Placebo",
    "TRT01AN": 0,
    "AGE": 89,
    "AGEGR1": ">80",
    "AGEGR1N": 3,
    "SEX": "F",
    "SEXN": 2,
    "RACE": "WHITE",
    "ETHNIC": "HISPANIC OR LATINO",
    "COUNTRY": "USA",
    "MMSETOT": 18,
    "MMSEGRP": "Moderate (15-19)",
    "MMSEGRPN": 2,
    "DISDUR": 97.3,
    "EDUCYR": 10,
    "RANDDT": "2013-02-07",
    "TRTSDT": "2013-02-07",
    "TRTEDT": "2013-07-24",
    "TRTDURD": 168,
    "CUMDOSE": 0,
    "COMPLFL": "Y",
    "DCTREAS": "COMPLETED",
    "EOSSTT": "COMPLETED",
    "DCSREAS": "COMPLETED",
    "SAFFL": "Y",
    "ITTFL": "Y",
    "EFFFL": "Y"
  },
  {
    "STUDYID": "CDISCPILOT01",
    "USUBJID": "01-701-006",
    "SUBJID": 6,
    "SITEID": 701,
    "TRT01P": "Placebo",
    "TRT01PN": 0,
    "TRT01A": "Placebo",
    "TRT01AN": 0,
    "AGE": 76,
    "AGEGR1": "65-80",
    "AGEGR1N": 2,
    "SEX": "F",
    "SEXN": 2,
    "RACE": "WHITE",
    "ETHNIC": "HISPANIC OR LATINO",
    "COUNTRY": "USA",
    "MMSETOT": 14,
    "MMSEGRP": "Severe (0-14)",
    "MMSEGRPN": 1,
    "DISDUR": 77.5,
    "EDUCYR": 14,
    "RANDDT": "2013-06-27",
    "TRTSDT": "2013-06-27",
    "TRTEDT": "2013-12-11",
    "TRTDURD": 168,
    "CUMDOSE": 0,
    "COMPLFL": "Y",
    "DCTREAS": "COMPLETED",
    "EOSSTT": "COMPLETED",
    "DCSREAS": "COMPLETED",
    "SAFFL": "Y",
    "ITTFL": "Y",
    "EFFFL": "Y"
  },
  {
    "STUDYID": "CDISCPILOT01",
    "USUBJID": "01-701-007",
    "SUBJID": 7,
    "SITEID": 701,
    "TRT01P": "Placebo",
    "TRT01PN": 0,
    "TRT01A": "Placebo",
    "TRT01AN": 0,
    "AGE": 65,
    "AGEGR1": "65-80",
    "AGEGR1N": 2,
    "SEX": "F",
    "SEXN": 2,
    "RACE": "WHITE",
    "ETHNIC": "NOT HISPANIC OR LATINO",
    "COUNTRY": "USA",
    "MMSETOT": 22,
    "MMSEGRP": "Mild (20-24)",
    "MMSEGRPN": 3,
    "DISDUR": 64.2,
    "EDUCYR": 9,
    "RANDDT": "2013-07-16",
    "TRTSDT": "2013-07-16",
    "TRTEDT": "2013-12-30",
    "TRTDURD": 168,
    "CUMDOSE": 0,
    "COMPLFL": "Y",
    "DCTREAS": "COMPLETED",
    "EOSSTT": "COMPLETED",
    "DCSREAS": "COMPLETED",
    "SAFFL": "Y",
    "ITTFL": "Y",
    "EFFFL": "Y"
  },
  {
    "STUDYID": "CDISCPILOT01",
    "USUBJID": "01-701-008",
    "SUBJID": 8,
    "SITEID": 701,
    "TRT01P": "Xanomeline Low Dose",
    "TRT01PN": 1,
    "TRT01A": "Xanomeline Low Dose",
    "TRT01AN": 1,
    "AGE": 76,
    "AGEGR1": "65-80",
    "AGEGR1N": 2,
    "SEX": "M",
    "SEXN": 1,
    "RACE": "BLACK OR AFRICAN AMERICAN",
    "ETHNIC": "NOT HISPANIC OR LATINO",
    "COUNTRY": "USA",
    "MMSETOT": 13,
    "MMSEGRP": "Severe (0-14)",
    "MMSEGRPN": 1,
    "DISDUR": 113.4,
    "EDUCYR": 8,
    "RANDDT": "2013-11-24",
    "TRTSDT": "2013-11-24",
    "TRTEDT": "2014-05-10",
    "TRTDURD": 168,
    "CUMDOSE": 8891.9,
    "COMPLFL": "Y",
    "DCTREAS": "COMPLETED",
    "EOSSTT": "COMPLETED",
    "DCSREAS": "COMPLETED",
    "SAFFL": "Y",
    "ITTFL": "Y",
    "EFFFL": "Y"
  },
  {
    "STUDYID": "CDISCPILOT01",
    "USUBJID": "01-701-009",
    "SUBJID": 9,
    "SITEID": 701,
    "TRT01P": "Xanomeline Low Dose",
    "TRT01PN": 1,
    "TRT01A": "Xanomeline Low Dose",
    "TRT01AN": 1,
    "AGE": 57,
    "AGEGR1": "<65",
    "AGEGR1N": 1,
    "SEX": "F",
    "SEXN": 2,
    "RACE": "WHITE",
    "ETHNIC": "NOT HISPANIC OR LATINO",
    "COUNTRY": "USA",
    "MMSETOT": 19,
    "MMSEGRP": "Moderate (15-19)",
    "MMSEGRPN": 2,
    "DISDUR": 11,
    "EDUCYR": 13,
    "RANDDT": "2013-06-08",
    "TRTSDT": "2013-06-08",
    "TRTEDT": "2013-07-12",
    "TRTDURD": 35,
    "CUMDOSE": 1876.7,
    "COMPLFL": "N",
    "DCTREAS": "ADVERSE EVENT",
    "EOSSTT": "DISCONTINUED",
    "DCSREAS": "ADVERSE EVENT",
    "SAFFL": "Y",
    "ITTFL": "Y",
    "EFFFL": "Y"
  },
  {
    "STUDYID": "CDISCPILOT01",
    "USUBJID": "01-701-010",
    "SUBJID": 10,
    "SITEID": 701,
    "TRT01P": "Xanomeline Low Dose",
    "TRT01PN": 1,
    "TRT01A": "Xanomeline Low Dose",
    "TRT01AN": 1,
    "AGE": 59,
    "AGEGR1": "<65",
    "AGEGR1N": 1,
    "SEX": "M",
    "SEXN": 1,
    "RACE": "WHITE",
    "ETHNIC": "NOT HISPANIC OR LATINO",
    "COUNTRY": "USA",
    "MMSETOT": 20,
    "MMSEGRP": "Mild (20-24)",
    "MMSEGRPN": 3,
    "DISDUR": 35.4,
    "EDUCYR": 10,
    "RANDDT": "2013-12-03",
    "TRTSDT": "2013-12-03",
    "TRTEDT": "2014-05-19",
    "TRTDURD": 168,
    "CUMDOSE": 8953,
    "COMPLFL": "N",
    "DCTREAS": "WITHDREW CONSENT",
    "EOSSTT": "DISCONTINUED",
    "DCSREAS": "WITHDREW CONSENT",
    "SAFFL": "Y",
    "ITTFL": "Y",
    "EFFFL": "Y"
  },
  {
    "STUDYID": "CDISCPILOT01",
    "USUBJID": "01-701-011",
    "SUBJID": 11,
    "SITEID": 701,
    "TRT01P": "Xanomeline High Dose",
    "TRT01PN": 2,
    "TRT01A": "Xanomeline High Dose",
    "TRT01AN": 2,
    "AGE": 76,
    "AGEGR1": "65-80",
    "AGEGR1N": 2,
    "SEX": "F",
    "SEXN": 2,
    "RACE": "WHITE",
    "ETHNIC": "NOT HISPANIC OR LATINO",
    "COUNTRY": "USA",
    "MMSETOT": 17,
    "MMSEGRP": "Moderate (15-19)",
    "MMSEGRPN": 2,
    "DISDUR": 76.3,
    "EDUCYR": 18,
    "RANDDT": "2013-08-01",
    "TRTSDT": "2013-08-01",
    "TRTEDT": "2014-01-15",
    "TRTDURD": 168,
    "CUMDOSE": 13052.5,
    "COMPLFL": "Y",
    "DCTREAS": "COMPLETED",
    "EOSSTT": "COMPLETED",
    "DCSREAS": "COMPLETED",
    "SAFFL": "Y",
    "ITTFL": "Y",
    "EFFFL": "Y"
  },
  {
    "STUDYID": "CDISCPILOT01",
    "USUBJID": "01-701-012",
    "SUBJID": 12,
    "SITEID": 701,
    "TRT01P": "Placebo",
    "TRT01PN": 0,
    "TRT01A": "Placebo",
    "TRT01AN": 0,
    "AGE": 67,
    "AGEGR1": "65-80",
    "AGEGR1N": 2,
    "SEX": "M",
    "SEXN": 1,
    "RACE": "WHITE",
    "ETHNIC": "NOT HISPANIC OR LATINO",
    "COUNTRY": "USA",
    "MMSETOT": 22,
    "MMSEGRP": "Mild (20-24)",
    "MMSEGRPN": 3,
    "DISDUR": 21.8,
    "EDUCYR": 14,
    "RANDDT": "2013-03-09",
    "TRTSDT": "2013-03-09",
    "TRTEDT": "2013-08-23",
    "TRTDURD": 168,
    "CUMDOSE": 0,
    "COMPLFL": "Y",
    "DCTREAS": "COMPLETED",
    "EOSSTT": "COMPLETED",
    "DCSREAS": "COMPLETED",
    "SAFFL": "Y",
    "ITTFL": "Y",
    "EFFFL": "Y"
  },
  {
    "STUDYID": "CDISCPILOT01",
    "USUBJID": "01-701-013",
    "SUBJID": 13,
    "SITEID": 701,
    "TRT01P": "Xanomeline High Dose",
    "TRT01PN": 2,
    "TRT01A": "Xanomeline High Dose",
    "TRT01AN": 2,
    "AGE": 79,
    "AGEGR1": "65-80",
    "AGEGR1N": 2,
    "SEX": "F",
    "SEXN": 2,
    "RACE": "WHITE",
    "ETHNIC": "NOT HISPANIC OR LATINO",
    "COUNTRY": "USA",
    "MMSETOT": 15,
    "MMSEGRP": "Moderate (15-19)",
    "MMSEGRPN": 2,
    "DISDUR": 9.2,
    "EDUCYR": 11,
    "RANDDT": "2013-10-22",
    "TRTSDT": "2013-10-22",
    "TRTEDT": "2014-01-06",
    "TRTDURD": 77,
    "CUMDOSE": 6110.5,
    "COMPLFL": "N",
    "DCTREAS": "ADVERSE EVENT",
    "EOSSTT": "DISCONTINUED",
    "DCSREAS": "ADVERSE EVENT",
    "SAFFL": "Y",
    "ITTFL": "Y",
    "EFFFL": "Y"
  },
  {
    "STUDYID": "CDISCPILOT01",
    "USUBJID": "01-701-014",
    "SUBJID": 14,
    "SITEID": 701,
    "TRT01P": "Xanomeline Low Dose",
    "TRT01PN": 1,
    "TRT01A": "Xanomeline Low Dose",
    "TRT01AN": 1,
    "AGE": 79,
    "AGEGR1": "65-80",
    "AGEGR1N": 2,
    "SEX": "F",
    "SEXN": 2,
    "RACE": "HISPANIC OR LATINO",
    "ETHNIC": "NOT HISPANIC OR LATINO",
    "COUNTRY": "USA",
    "MMSETOT": 16,
    "MMSEGRP": "Moderate (15-19)",
    "MMSEGRPN": 2,
    "DISDUR": 15.4,
    "EDUCYR": 12,
    "RANDDT": "2013-12-08",
    "TRTSDT": "2013-12-08",
    "TRTEDT": "2014-05-17",
    "TRTDURD": 161,
    "CUMDOSE": 8347.2,
    "COMPLFL": "N",
    "DCTREAS": "ADVERSE EVENT",
    "EOSSTT": "DISCONTINUED",
    "DCSREAS": "ADVERSE EVENT",
    "SAFFL": "Y",
    "ITTFL": "Y",
    "EFFFL": "Y"
  },
  {
    "STUDYID": "CDISCPILOT01",
    "USUBJID": "01-701-015",
    "SUBJID": 15,
    "SITEID": 701,
    "TRT01P": "Placebo",
    "TRT01PN": 0,
    "TRT01A": "Placebo",
    "TRT01AN": 0,
    "AGE": 80,
    "AGEGR1": ">80",
    "AGEGR1N": 3,
    "SEX": "M",
    "SEXN": 1,
    "RACE": "WHITE",
    "ETHNIC": "NOT HISPANIC OR LATINO",
    "COUNTRY": "USA",
    "MMSETOT": 22,
    "MMSEGRP": "Mild (20-24)",
    "MMSEGRPN": 3,
    "DISDUR": 7.3,
    "EDUCYR": 9,
    "RANDDT": "2013-07-01",
    "TRTSDT": "2013-07-01",
    "TRTEDT": "2013-12-15",
    "TRTDURD": 168,
    "CUMDOSE": 0,
    "COMPLFL": "Y",
    "DCTREAS": "COMPLETED",
    "EOSSTT": "COMPLETED",
    "DCSREAS": "COMPLETED",
    "SAFFL": "Y",
    "ITTFL": "Y",
    "EFFFL": "Y"
  },
  {
    "STUDYID": "CDISCPILOT01",
    "USUBJID": "01-701-016",
    "SUBJID": 16,
    "SITEID": 701,
    "TRT01P": "Xanomeline High Dose",
    "TRT01PN": 2,
    "TRT01A": "Xanomeline High Dose",
    "TRT01AN": 2,
    "AGE": 63,
    "AGEGR1": "<65",
    "AGEGR1N": 1,
    "SEX": "F",
    "SEXN": 2,
    "RACE": "WHITE",
    "ETHNIC": "NOT HISPANIC OR LATINO",
    "COUNTRY": "USA",
    "MMSETOT": 14,
    "MMSEGRP": "Severe (0-14)",
    "MMSEGRPN": 1,
    "DISDUR": 49.3,
    "EDUCYR": 12,
    "RANDDT": "2013-09-14",
    "TRTSDT": "2013-09-14",
    "TRTEDT": "2014-02-28",
    "TRTDURD": 168,
    "CUMDOSE": 13377,
    "COMPLFL": "Y",
    "DCTREAS": "COMPLETED",
    "EOSSTT": "COMPLETED",
    "DCSREAS": "COMPLETED",
    "SAFFL": "Y",
    "ITTFL": "Y",
    "EFFFL": "Y"
  },
  {
    "STUDYID": "CDISCPILOT01",
    "USUBJID": "01-701-017",
    "SUBJID": 17,
    "SITEID": 701,
    "TRT01P": "Placebo",
    "TRT01PN": 0,
    "TRT01A": "Placebo",
    "TRT01AN": 0,
    "AGE": 71,
    "AGEGR1": "65-80",
    "AGEGR1N": 2,
    "SEX": "F",
    "SEXN": 2,
    "RACE": "WHITE",
    "ETHNIC": "NOT HISPANIC OR LATINO",
    "COUNTRY": "USA",
    "MMSETOT": 16,
    "MMSEGRP": "Moderate (15-19)",
    "MMSEGRPN": 2,
    "DISDUR": 39.4,
    "EDUCYR": 11,
    "RANDDT": "2013-05-29",
    "TRTSDT": "2013-05-29",
    "TRTEDT": "2013-11-12",
    "TRTDURD": 168,
    "CUMDOSE": 0,
    "COMPLFL": "Y",
    "DCTREAS": "COMPLETED",
    "EOSSTT": "COMPLETED",
    "DCSREAS": "COMPLETED",
    "SAFFL": "Y",
    "ITTFL": "Y",
    "EFFFL": "Y"
  },
  {
    "STUDYID": "CDISCPILOT01",
    "USUBJID": "01-701-018",
    "SUBJID": 18,
    "SITEID": 701,
    "TRT01P": "Placebo",
    "TRT01PN": 0,
    "TRT01A": "Placebo",
    "TRT01AN": 0,
    "AGE": 69,
    "AGEGR1": "65-80",
    "AGEGR1N": 2,
    "SEX": "F",
    "SEXN": 2,
    "RACE": "WHITE",
    "ETHNIC": "NOT HISPANIC OR LATINO",
    "COUNTRY": "USA",
    "MMSETOT": 14,
    "MMSEGRP": "Severe (0-14)",
    "MMSEGRPN": 1,
    "DISDUR": 90.6,
    "EDUCYR": 8,
    "RANDDT": "2013-04-14",
    "TRTSDT": "2013-04-14",
    "TRTEDT": "2013-09-28",
    "TRTDURD": 168,
    "CUMDOSE": 0,
    "COMPLFL": "Y",
    "DCTREAS": "COMPLETED",
    "EOSSTT": "COMPLETED",
    "DCSREAS": "COMPLETED",
    "SAFFL": "Y",
    "ITTFL": "Y",
    "EFFFL": "Y"
  },
  {
    "STUDYID": "CDISCPILOT01",
    "USUBJID": "01-701-019",
    "SUBJID": 19,
    "SITEID": 701,
    "TRT01P": "Xanomeline High Dose",
    "TRT01PN": 2,
    "TRT01A": "Xanomeline High Dose",
    "TRT01AN": 2,
    "AGE": 84,
    "AGEGR1": ">80",
    "AGEGR1N": 3,
    "SEX": "F",
    "SEXN": 2,
    "RACE": "WHITE",
    "ETHNIC": "NOT HISPANIC OR LATINO",
    "COUNTRY": "USA",
    "MMSETOT": 23,
    "MMSEGRP": "Mild (20-24)",
    "MMSEGRPN": 3,
    "DISDUR": 30.7,
    "EDUCYR": 14,
    "RANDDT": "2013-04-14",
    "TRTSDT": "2013-04-14",
    "TRTEDT": "2013-05-04",
    "TRTDURD": 21,
    "CUMDOSE": 1666.1,
    "COMPLFL": "N",
    "DCTREAS": "ADVERSE EVENT",
    "EOSSTT": "DISCONTINUED",
    "DCSREAS": "ADVERSE EVENT",
    "SAFFL": "Y",
    "ITTFL": "Y",
    "EFFFL": "Y"
  },
  {
    "STUDYID": "CDISCPILOT01",
    "USUBJID": "01-701-020",
    "SUBJID": 20,
    "SITEID": 701,
    "TRT01P": "Xanomeline Low Dose",
    "TRT01PN": 1,
    "TRT01A": "Xanomeline Low Dose",
    "TRT01AN": 1,
    "AGE": 73,
    "AGEGR1": "65-80",
    "AGEGR1N": 2,
    "SEX": "F",
    "SEXN": 2,
    "RACE": "WHITE",
    "ETHNIC": "NOT HISPANIC OR LATINO",
    "COUNTRY": "USA",
    "MMSETOT": 15,
    "MMSEGRP": "Moderate (15-19)",
    "MMSEGRPN": 2,
    "DISDUR": 54,
    "EDUCYR": 14,
    "RANDDT": "2013-04-10",
    "TRTSDT": "2013-04-10",
    "TRTEDT": "2013-09-24",
    "TRTDURD": 168,
    "CUMDOSE": 9068.4,
    "COMPLFL": "Y",
    "DCTREAS": "COMPLETED",
    "EOSSTT": "COMPLETED",
    "DCSREAS": "COMPLETED",
    "SAFFL": "Y",
    "ITTFL": "Y",
    "EFFFL": "Y"
  },
  {
    "STUDYID": "CDISCPILOT01",
    "USUBJID": "01-701-021",
    "SUBJID": 21,
    "SITEID": 701,
    "TRT01P": "Placebo",
    "TRT01PN": 0,
    "TRT01A": "Placebo",
    "TRT01AN": 0,
    "AGE": 62,
    "AGEGR1": "<65",
    "AGEGR1N": 1,
    "SEX": "M",
    "SEXN": 1,
    "RACE": "WHITE",
    "ETHNIC": "HISPANIC OR LATINO",
    "COUNTRY": "USA",
    "MMSETOT": 18,
    "MMSEGRP": "Moderate (15-19)",
    "MMSEGRPN": 2,
    "DISDUR": 50.9,
    "EDUCYR": 10,
    "RANDDT": "2013-04-13",
    "TRTSDT": "2013-04-13",
    "TRTEDT": "2013-09-27",
    "TRTDURD": 168,
    "CUMDOSE": 0,
    "COMPLFL": "Y",
    "DCTREAS": "COMPLETED",
    "EOSSTT": "COMPLETED",
    "DCSREAS": "COMPLETED",
    "SAFFL": "Y",
    "ITTFL": "Y",
    "EFFFL": "Y"
  },
  {
    "STUDYID": "CDISCPILOT01",
    "USUBJID": "01-701-022",
    "SUBJID": 22,
    "SITEID": 701,
    "TRT01P": "Xanomeline High Dose",
    "TRT01PN": 2,
    "TRT01A": "Xanomeline High Dose",
    "TRT01AN": 2,
    "AGE": 82,
    "AGEGR1": ">80",
    "AGEGR1N": 3,
    "SEX": "F",
    "SEXN": 2,
    "RACE": "WHITE",
    "ETHNIC": "NOT HISPANIC OR LATINO",
    "COUNTRY": "USA",
    "MMSETOT": 19,
    "MMSEGRP": "Moderate (15-19)",
    "MMSEGRPN": 2,
    "DISDUR": 85.2,
    "EDUCYR": 18,
    "RANDDT": "2013-09-30",
    "TRTSDT": "2013-09-30",
    "TRTEDT": "2014-03-16",
    "TRTDURD": 168,
    "CUMDOSE": 13296.1,
    "COMPLFL": "Y",
    "DCTREAS": "COMPLETED",
    "EOSSTT": "COMPLETED",
    "DCSREAS": "COMPLETED",
    "SAFFL": "Y",
    "ITTFL": "Y",
    "EFFFL": "Y"
  },
  {
    "STUDYID": "CDISCPILOT01",
    "USUBJID": "01-701-023",
    "SUBJID": 23,
    "SITEID": 701,
    "TRT01P": "Xanomeline High Dose",
    "TRT01PN": 2,
    "TRT01A": "Xanomeline High Dose",
    "TRT01AN": 2,
    "AGE": 73,
    "AGEGR1": "65-80",
    "AGEGR1N": 2,
    "SEX": "M",
    "SEXN": 1,
    "RACE": "WHITE",
    "ETHNIC": "NOT HISPANIC OR LATINO",
    "COUNTRY": "USA",
    "MMSETOT": 23,
    "MMSEGRP": "Mild (20-24)",
    "MMSEGRPN": 3,
    "DISDUR": 57.4,
    "EDUCYR": 17,
    "RANDDT": "2013-07-26",
    "TRTSDT": "2013-07-26",
    "TRTEDT": "2014-01-09",
    "TRTDURD": 168,
    "CUMDOSE": 13505.7,
    "COMPLFL": "Y",
    "DCTREAS": "COMPLETED",
    "EOSSTT": "COMPLETED",
    "DCSREAS": "COMPLETED",
    "SAFFL": "Y",
    "ITTFL": "Y",
    "EFFFL": "Y"
  },
  {
    "STUDYID": "CDISCPILOT01",
    "USUBJID": "01-701-024",
    "SUBJID": 24,
    "SITEID": 701,
    "TRT01P": "Placebo",
    "TRT01PN": 0,
    "TRT01A": "Placebo",
    "TRT01AN": 0,
    "AGE": 83,
    "AGEGR1": ">80",
    "AGEGR1N": 3,
    "SEX": "M",
    "SEXN": 1,
    "RACE": "WHITE",
    "ETHNIC": "NOT HISPANIC OR LATINO",
    "COUNTRY": "USA",
    "MMSETOT": 15,
    "MMSEGRP": "Moderate (15-19)",
    "MMSEGRPN": 2,
    "DISDUR": 43,
    "EDUCYR": 6,
    "RANDDT": "2013-12-20",
    "TRTSDT": "2013-12-20",
    "TRTEDT": "2014-06-05",
    "TRTDURD": 168,
    "CUMDOSE": 0,
    "COMPLFL": "Y",
    "DCTREAS": "COMPLETED",
    "EOSSTT": "DISCONTINUED",
    "DCSREAS": "WITHDREW CONSENT",
    "SAFFL": "Y",
    "ITTFL": "Y",
    "EFFFL": "Y"
  },
  {
    "STUDYID": "CDISCPILOT01",
    "USUBJID": "01-701-025",
    "SUBJID": 25,
    "SITEID": 701,
    "TRT01P": "Placebo",
    "TRT01PN": 0,
    "TRT01A": "Placebo",
    "TRT01AN": 0,
    "AGE": 58,
    "AGEGR1": "<65",
    "AGEGR1N": 1,
    "SEX": "F",
    "SEXN": 2,
    "RACE": "HISPANIC OR LATINO",
    "ETHNIC": "NOT HISPANIC OR LATINO",
    "COUNTRY": "USA",
    "MMSETOT": 24,
    "MMSEGRP": "Mild (20-24)",
    "MMSEGRPN": 3,
    "DISDUR": 28,
    "EDUCYR": 13,
    "RANDDT": "2013-11-23",
    "TRTSDT": "2013-11-23",
    "TRTEDT": "2014-05-09",
    "TRTDURD": 168,
    "CUMDOSE": 0,
    "COMPLFL": "Y",
    "DCTREAS": "COMPLETED",
    "EOSSTT": "COMPLETED",
    "DCSREAS": "COMPLETED",
    "SAFFL": "Y",
    "ITTFL": "Y",
    "EFFFL": "Y"
  },
  {
    "STUDYID": "CDISCPILOT01",
    "USUBJID": "01-701-026",
    "SUBJID": 26,
    "SITEID": 701,
    "TRT01P": "Xanomeline Low Dose",
    "TRT01PN": 1,
    "TRT01A": "Xanomeline Low Dose",
    "TRT01AN": 1,
    "AGE": 84,
    "AGEGR1": ">80",
    "AGEGR1N": 3,
    "SEX": "F",
    "SEXN": 2,
    "RACE": "WHITE",
    "ETHNIC": "NOT HISPANIC OR LATINO",
    "COUNTRY": "USA",
    "MMSETOT": 10,
    "MMSEGRP": "Severe (0-14)",
    "MMSEGRPN": 1,
    "DISDUR": 2,
    "EDUCYR": 12,
    "RANDDT": "2013-03-06",
    "TRTSDT": "2013-03-06",
    "TRTEDT": "2013-08-20",
    "TRTDURD": 168,
    "CUMDOSE": 9018.5,
    "COMPLFL": "Y",
    "DCTREAS": "COMPLETED",
    "EOSSTT": "COMPLETED",
    "DCSREAS": "COMPLETED",
    "SAFFL": "Y",
    "ITTFL": "Y",
    "EFFFL": "Y"
  },
  {
    "STUDYID": "CDISCPILOT01",
    "USUBJID": "01-701-027",
    "SUBJID": 27,
    "SITEID": 701,
    "TRT01P": "Xanomeline High Dose",
    "TRT01PN": 2,
    "TRT01A": "Xanomeline High Dose",
    "TRT01AN": 2,
    "AGE": 83,
    "AGEGR1": ">80",
    "AGEGR1N": 3,
    "SEX": "M",
    "SEXN": 1,
    "RACE": "WHITE",
    "ETHNIC": "NOT HISPANIC OR LATINO",
    "COUNTRY": "USA",
    "MMSETOT": 14,
    "MMSEGRP": "Severe (0-14)",
    "MMSEGRPN": 1,
    "DISDUR": 95.8,
    "EDUCYR": 12,
    "RANDDT": "2013-11-28",
    "TRTSDT": "2013-11-28",
    "TRTEDT": "2014-02-05",
    "TRTDURD": 70,
    "CUMDOSE": 5611.2,
    "COMPLFL": "N",
    "DCTREAS": "ADVERSE EVENT",
    "EOSSTT": "DISCONTINUED",
    "DCSREAS": "ADVERSE EVENT",
    "SAFFL": "Y",
    "ITTFL": "Y",
    "EFFFL": "Y"
  },
  {
    "STUDYID": "CDISCPILOT01",
    "USUBJID": "01-701-028",
    "SUBJID": 28,
    "SITEID": 701,
    "TRT01P": "Xanomeline High Dose",
    "TRT01PN": 2,
    "TRT01A": "Xanomeline High Dose",
    "TRT01AN": 2,
    "AGE": 68,
    "AGEGR1": "65-80",
    "AGEGR1N": 2,
    "SEX": "F",
    "SEXN": 2,
    "RACE": "WHITE",
    "ETHNIC": "HISPANIC OR LATINO",
    "COUNTRY": "USA",
    "MMSETOT": 24,
    "MMSEGRP": "Mild (20-24)",
    "MMSEGRPN": 3,
    "DISDUR": 62.7,
    "EDUCYR": 9,
    "RANDDT": "2013-07-27",
    "TRTSDT": "2013-07-27",
    "TRTEDT": "2014-01-10",
    "TRTDURD": 168,
    "CUMDOSE": 13034.6,
    "COMPLFL": "Y",
    "DCTREAS": "COMPLETED",
    "EOSSTT": "COMPLETED",
    "DCSREAS": "COMPLETED",
    "SAFFL": "Y",
    "ITTFL": "Y",
    "EFFFL": "Y"
  },
  {
    "STUDYID": "CDISCPILOT01",
    "USUBJID": "01-701-029",
    "SUBJID": 29,
    "SITEID": 701,
    "TRT01P": "Xanomeline High Dose",
    "TRT01PN": 2,
    "TRT01A": "Xanomeline High Dose",
    "TRT01AN": 2,
    "AGE": 74,
    "AGEGR1": "65-80",
    "AGEGR1N": 2,
    "SEX": "F",
    "SEXN": 2,
    "RACE": "WHITE",
    "ETHNIC": "NOT HISPANIC OR LATINO",
    "COUNTRY": "USA",
    "MMSETOT": 19,
    "MMSEGRP": "Moderate (15-19)",
    "MMSEGRPN": 2,
    "DISDUR": 57,
    "EDUCYR": 14,
    "RANDDT": "2013-10-29",
    "TRTSDT": "2013-10-29",
    "TRTEDT": "2013-12-02",
    "TRTDURD": 35,
    "CUMDOSE": 2697.3,
    "COMPLFL": "N",
    "DCTREAS": "PROTOCOL CRITERIA NOT MET",
    "EOSSTT": "DISCONTINUED",
    "DCSREAS": "PROTOCOL CRITERIA NOT MET",
    "SAFFL": "Y",
    "ITTFL": "Y",
    "EFFFL": "Y"
  },
  {
    "STUDYID": "CDISCPILOT01",
    "USUBJID": "01-701-030",
    "SUBJID": 30,
    "SITEID": 701,
    "TRT01P": "Xanomeline Low Dose",
    "TRT01PN": 1,
    "TRT01A": "Xanomeline Low Dose",
    "TRT01AN": 1,
    "AGE": 72,
    "AGEGR1": "65-80",
    "AGEGR1N": 2,
    "SEX": "F",
    "SEXN": 2,
    "RACE": "WHITE",
    "ETHNIC": "NOT HISPANIC OR LATINO",
    "COUNTRY": "USA",
    "MMSETOT": 14,
    "MMSEGRP": "Severe (0-14)",
    "MMSEGRPN": 1,
    "DISDUR": 17.5,
    "EDUCYR": 10,
    "RANDDT": "2013-06-30",
    "TRTSDT": "2013-06-30",
    "TRTEDT": "2013-12-14",
    "TRTDURD": 168,
    "CUMDOSE": 9025.5,
    "COMPLFL": "Y",
    "DCTREAS": "COMPLETED",
    "EOSSTT": "DISCONTINUED",
    "DCSREAS": "OTHER",
    "SAFFL": "Y",
    "ITTFL": "Y",
    "EFFFL": "Y"
  },
  {
    "STUDYID": "CDISCPILOT01",
    "USUBJID": "01-701-031",
    "SUBJID": 31,
    "SITEID": 701,
    "TRT01P": "Xanomeline High Dose",
    "TRT01PN": 2,
    "TRT01A": "Xanomeline High Dose",
    "TRT01AN": 2,
    "AGE": 79,
    "AGEGR1": "65-80",
    "AGEGR1N": 2,
    "SEX": "F",
    "SEXN": 2,
    "RACE": "HISPANIC OR LATINO",
    "ETHNIC": "NOT HISPANIC OR LATINO",
    "COUNTRY": "USA",
    "MMSETOT": 23,
    "MMSEGRP": "Mild (20-24)",
    "MMSEGRPN": 3,
    "DISDUR": 47.3,
    "EDUCYR": 14,
    "RANDDT": "2013-09-16",
    "TRTSDT": "2013-09-16",
    "TRTEDT": "2013-10-13",
    "TRTDURD": 28,
    "CUMDOSE": 2225.9,
    "COMPLFL": "N",
    "DCTREAS": "ADVERSE EVENT",
    "EOSSTT": "DISCONTINUED",
    "DCSREAS": "ADVERSE EVENT",
    "SAFFL": "Y",
    "ITTFL": "Y",
    "EFFFL": "Y"
  },
  {
    "STUDYID": "CDISCPILOT01",
    "USUBJID": "01-701-032",
    "SUBJID": 32,
    "SITEID": 701,
    "TRT01P": "Xanomeline High Dose",
    "TRT01PN": 2,
    "TRT01A": "Xanomeline High Dose",
    "TRT01AN": 2,
    "AGE": 74,
    "AGEGR1": "65-80",
    "AGEGR1N": 2,
    "SEX": "M",
    "SEXN": 1,
    "RACE": "WHITE",
    "ETHNIC": "NOT HISPANIC OR LATINO",
    "COUNTRY": "USA",
    "MMSETOT": 19,
    "MMSEGRP": "Moderate (15-19)",
    "MMSEGRPN": 2,
    "DISDUR": 63.1,
    "EDUCYR": 9,
    "RANDDT": "2013-03-15",
    "TRTSDT": "2013-03-15",
    "TRTEDT": "2013-03-28",
    "TRTDURD": 14,
    "CUMDOSE": 1109.8,
    "COMPLFL": "N",
    "DCTREAS": "LACK OF EFFICACY",
    "EOSSTT": "DISCONTINUED",
    "DCSREAS": "LACK OF EFFICACY",
    "SAFFL": "Y",
    "ITTFL": "Y",
    "EFFFL": "Y"
  },
  {
    "STUDYID": "CDISCPILOT01",
    "USUBJID": "01-701-033",
    "SUBJID": 33,
    "SITEID": 701,
    "TRT01P": "Xanomeline Low Dose",
    "TRT01PN": 1,
    "TRT01A": "Xanomeline Low Dose",
    "TRT01AN": 1,
    "AGE": 60,
    "AGEGR1": "<65",
    "AGEGR1N": 1,
    "SEX": "F",
    "SEXN": 2,
    "RACE": "WHITE",
    "ETHNIC": "NOT HISPANIC OR LATINO",
    "COUNTRY": "USA",
    "MMSETOT": 10,
    "MMSEGRP": "Severe (0-14)",
    "MMSEGRPN": 1,
    "DISDUR": 6.7,
    "EDUCYR": 9,
    "RANDDT": "2013-11-06",
    "TRTSDT": "2013-11-06",
    "TRTEDT": "2014-04-22",
    "TRTDURD": 168,
    "CUMDOSE": 8762.3,
    "COMPLFL": "Y",
    "DCTREAS": "COMPLETED",
    "EOSSTT": "COMPLETED",
    "DCSREAS": "COMPLETED",
    "SAFFL": "Y",
    "ITTFL": "Y",
    "EFFFL": "Y"
  },
  {
    "STUDYID": "CDISCPILOT01",
    "USUBJID": "01-701-034",
    "SUBJID": 34,
    "SITEID": 701,
    "TRT01P": "Xanomeline Low Dose",
    "TRT01PN": 1,
    "TRT01A": "Xanomeline Low Dose",
    "TRT01AN": 1,
    "AGE": 83,
    "AGEGR1": ">80",
    "AGEGR1N": 3,
    "SEX": "F",
    "SEXN": 2,
    "RACE": "WHITE",
    "ETHNIC": "NOT HISPANIC OR LATINO",
    "COUNTRY": "USA",
    "MMSETOT": 15,
    "MMSEGRP": "Moderate (15-19)",
    "MMSEGRPN": 2,
    "DISDUR": 52.3,
    "EDUCYR": 13,
    "RANDDT": "2013-08-15",
    "TRTSDT": "2013-08-15",
    "TRTEDT": "2014-01-29",
    "TRTDURD": 168,
    "CUMDOSE": 8757.1,
    "COMPLFL": "Y",
    "DCTREAS": "COMPLETED",
    "EOSSTT": "COMPLETED",
    "DCSREAS": "COMPLETED",
    "SAFFL": "Y",
    "ITTFL": "Y",
    "EFFFL": "Y"
  },
  {
    "STUDYID": "CDISCPILOT01",
    "USUBJID": "01-701-035",
    "SUBJID": 35,
    "SITEID": 701,
    "TRT01P": "Xanomeline High Dose",
    "TRT01PN": 2,
    "TRT01A": "Xanomeline High Dose",
    "TRT01AN": 2,
    "AGE": 79,
    "AGEGR1": "65-80",
    "AGEGR1N": 2,
    "SEX": "F",
    "SEXN": 2,
    "RACE": "WHITE",
    "ETHNIC": "NOT HISPANIC OR LATINO",
    "COUNTRY": "USA",
    "MMSETOT": 12,
    "MMSEGRP": "Severe (0-14)",
    "MMSEGRPN": 1,
    "DISDUR": 2,
    "EDUCYR": 8,
    "RANDDT": "2013-04-25",
    "TRTSDT": "2013-04-25",
    "TRTEDT": "2013-10-09",
    "TRTDURD": 168,
    "CUMDOSE": 12952.9,
    "COMPLFL": "Y",
    "DCTREAS": "COMPLETED",
    "EOSSTT": "COMPLETED",
    "DCSREAS": "COMPLETED",
    "SAFFL": "Y",
    "ITTFL": "Y",
    "EFFFL": "Y"
  },
  {
    "STUDYID": "CDISCPILOT01",
    "USUBJID": "01-701-036",
    "SUBJID": 36,
    "SITEID": 701,
    "TRT01P": "Xanomeline Low Dose",
    "TRT01PN": 1,
    "TRT01A": "Xanomeline Low Dose",
    "TRT01AN": 1,
    "AGE": 76,
    "AGEGR1": "65-80",
    "AGEGR1N": 2,
    "SEX": "F",
    "SEXN": 2,
    "RACE": "WHITE",
    "ETHNIC": "NOT HISPANIC OR LATINO",
    "COUNTRY": "USA",
    "MMSETOT": 21,
    "MMSEGRP": "Mild (20-24)",
    "MMSEGRPN": 3,
    "DISDUR": 75,
    "EDUCYR": 13,
    "RANDDT": "2013-08-16",
    "TRTSDT": "2013-08-16",
    "TRTEDT": "2013-09-19",
    "TRTDURD": 35,
    "CUMDOSE": 1814.4,
    "COMPLFL": "N",
    "DCTREAS": "ADVERSE EVENT",
    "EOSSTT": "DISCONTINUED",
    "DCSREAS": "ADVERSE EVENT",
    "SAFFL": "Y",
    "ITTFL": "Y",
    "EFFFL": "Y"
  },
  {
    "STUDYID": "CDISCPILOT01",
    "USUBJID": "01-701-037",
    "SUBJID": 37,
    "SITEID": 701,
    "TRT01P": "Xanomeline Low Dose",
    "TRT01PN": 1,
    "TRT01A": "Xanomeline Low Dose",
    "TRT01AN": 1,
    "AGE": 70,
    "AGEGR1": "65-80",
    "AGEGR1N": 2,
    "SEX": "M",
    "SEXN": 1,
    "RACE": "WHITE",
    "ETHNIC": "NOT HISPANIC OR LATINO",
    "COUNTRY": "USA",
    "MMSETOT": 24,
    "MMSEGRP": "Mild (20-24)",
    "MMSEGRPN": 3,
    "DISDUR": 69.4,
    "EDUCYR": 12,
    "RANDDT": "2013-01-05",
    "TRTSDT": "2013-01-05",
    "TRTEDT": "2013-06-21",
    "TRTDURD": 168,
    "CUMDOSE": 8930.3,
    "COMPLFL": "Y",
    "DCTREAS": "COMPLETED",
    "EOSSTT": "COMPLETED",
    "DCSREAS": "COMPLETED",
    "SAFFL": "Y",
    "ITTFL": "Y",
    "EFFFL": "Y"
  },
  {
    "STUDYID": "CDISCPILOT01",
    "USUBJID": "01-701-038",
    "SUBJID": 38,
    "SITEID": 701,
    "TRT01P": "Xanomeline High Dose",
    "TRT01PN": 2,
    "TRT01A": "Xanomeline High Dose",
    "TRT01AN": 2,
    "AGE": 68,
    "AGEGR1": "65-80",
    "AGEGR1N": 2,
    "SEX": "M",
    "SEXN": 1,
    "RACE": "WHITE",
    "ETHNIC": "NOT HISPANIC OR LATINO",
    "COUNTRY": "USA",
    "MMSETOT": 20,
    "MMSEGRP": "Mild (20-24)",
    "MMSEGRPN": 3,
    "DISDUR": 2,
    "EDUCYR": 15,
    "RANDDT": "2013-06-14",
    "TRTSDT": "2013-06-14",
    "TRTEDT": "2013-08-08",
    "TRTDURD": 56,
    "CUMDOSE": 4474.9,
    "COMPLFL": "N",
    "DCTREAS": "ADVERSE EVENT",
    "EOSSTT": "DISCONTINUED",
    "DCSREAS": "ADVERSE EVENT",
    "SAFFL": "Y",
    "ITTFL": "Y",
    "EFFFL": "Y"
  },
  {
    "STUDYID": "CDISCPILOT01",
    "USUBJID": "01-701-039",
    "SUBJID": 39,
    "SITEID": 701,
    "TRT01P": "Xanomeline High Dose",
    "TRT01PN": 2,
    "TRT01A": "Xanomeline High Dose",
    "TRT01AN": 2,
    "AGE": 75,
    "AGEGR1": "65-80",
    "AGEGR1N": 2,
    "SEX": "M",
    "SEXN": 1,
    "RACE": "WHITE",
    "ETHNIC": "NOT HISPANIC OR LATINO",
    "COUNTRY": "USA",
    "MMSETOT": 14,
    "MMSEGRP": "Severe (0-14)",
    "MMSEGRPN": 1,
    "DISDUR": 65.1,
    "EDUCYR": 12,
    "RANDDT": "2013-04-27",
    "TRTSDT": "2013-04-27",
    "TRTEDT": "2013-05-24",
    "TRTDURD": 28,
    "CUMDOSE": 2250,
    "COMPLFL": "N",
    "DCTREAS": "ADVERSE EVENT",
    "EOSSTT": "DISCONTINUED",
    "DCSREAS": "ADVERSE EVENT",
    "SAFFL": "Y",
    "ITTFL": "Y",
    "EFFFL": "Y"
  },
  {
    "STUDYID": "CDISCPILOT01",
    "USUBJID": "01-701-040",
    "SUBJID": 40,
    "SITEID": 701,
    "TRT01P": "Xanomeline Low Dose",
    "TRT01PN": 1,
    "TRT01A": "Xanomeline Low Dose",
    "TRT01AN": 1,
    "AGE": 82,
    "AGEGR1": ">80",
    "AGEGR1N": 3,
    "SEX": "F",
    "SEXN": 2,
    "RACE": "WHITE",
    "ETHNIC": "NOT HISPANIC OR LATINO",
    "COUNTRY": "USA",
    "MMSETOT": 17,
    "MMSEGRP": "Moderate (15-19)",
    "MMSEGRPN": 2,
    "DISDUR": 49.6,
    "EDUCYR": 16,
    "RANDDT": "2013-10-03",
    "TRTSDT": "2013-10-03",
    "TRTEDT": "2013-10-30",
    "TRTDURD": 28,
    "CUMDOSE": 1494.7,
    "COMPLFL": "N",
    "DCTREAS": "SPONSOR DECISION",
    "EOSSTT": "DISCONTINUED",
    "DCSREAS": "SPONSOR DECISION",
    "SAFFL": "Y",
    "ITTFL": "Y",
    "EFFFL": "Y"
  },
  {
    "STUDYID": "CDISCPILOT01",
    "USUBJID": "01-701-041",
    "SUBJID": 41,
    "SITEID": 701,
    "TRT01P": "Xanomeline High Dose",
    "TRT01PN": 2,
    "TRT01A": "Xanomeline High Dose",
    "TRT01AN": 2,
    "AGE": 64,
    "AGEGR1": "<65",
    "AGEGR1N": 1,
    "SEX": "M",
    "SEXN": 1,
    "RACE": "WHITE",
    "ETHNIC": "NOT HISPANIC OR LATINO",
    "COUNTRY": "USA",
    "MMSETOT": 14,
    "MMSEGRP": "Severe (0-14)",
    "MMSEGRPN": 1,
    "DISDUR": 53,
    "EDUCYR": 20,
    "RANDDT": "2013-11-06",
    "TRTSDT": "2013-11-06",
    "TRTEDT": "2014-04-22",
    "TRTDURD": 168,
    "CUMDOSE": 12994.9,
    "COMPLFL": "N",
    "DCTREAS": "ADVERSE EVENT",
    "EOSSTT": "DISCONTINUED",
    "DCSREAS": "ADVERSE EVENT",
    "SAFFL": "Y",
    "ITTFL": "Y",
    "EFFFL": "Y"
  },
  {
    "STUDYID": "CDISCPILOT01",
    "USUBJID": "01-701-042",
    "SUBJID": 42,
    "SITEID": 701,
    "TRT01P": "Placebo",
    "TRT01PN": 0,
    "TRT01A": "Placebo",
    "TRT01AN": 0,
    "AGE": 72,
    "AGEGR1": "65-80",
    "AGEGR1N": 2,
    "SEX": "M",
    "SEXN": 1,
    "RACE": "WHITE",
    "ETHNIC": "NOT HISPANIC OR LATINO",
    "COUNTRY": "USA",
    "MMSETOT": 13,
    "MMSEGRP": "Severe (0-14)",
    "MMSEGRPN": 1,
    "DISDUR": 50.1,
    "EDUCYR": 6,
    "RANDDT": "2013-09-03",
    "TRTSDT": "2013-09-03",
    "TRTEDT": "2014-02-17",
    "TRTDURD": 168,
    "CUMDOSE": 0,
    "COMPLFL": "Y",
    "DCTREAS": "COMPLETED",
    "EOSSTT": "COMPLETED",
    "DCSREAS": "COMPLETED",
    "SAFFL": "Y",
    "ITTFL": "Y",
    "EFFFL": "Y"
  },
  {
    "STUDYID": "CDISCPILOT01",
    "USUBJID": "01-701-043",
    "SUBJID": 43,
    "SITEID": 701,
    "TRT01P": "Xanomeline High Dose",
    "TRT01PN": 2,
    "TRT01A": "Xanomeline High Dose",
    "TRT01AN": 2,
    "AGE": 80,
    "AGEGR1": ">80",
    "AGEGR1N": 3,
    "SEX": "F",
    "SEXN": 2,
    "RACE": "WHITE",
    "ETHNIC": "NOT HISPANIC OR LATINO",
    "COUNTRY": "USA",
    "MMSETOT": 17,
    "MMSEGRP": "Moderate (15-19)",
    "MMSEGRPN": 2,
    "DISDUR": 71.7,
    "EDUCYR": 14,
    "RANDDT": "2013-06-15",
    "TRTSDT": "2013-06-15",
    "TRTEDT": "2013-06-28",
    "TRTDURD": 14,
    "CUMDOSE": 1083.6,
    "COMPLFL": "N",
    "DCTREAS": "PROTOCOL CRITERIA NOT MET",
    "EOSSTT": "DISCONTINUED",
    "DCSREAS": "PROTOCOL CRITERIA NOT MET",
    "SAFFL": "Y",
    "ITTFL": "Y",
    "EFFFL": "Y"
  },
  {
    "STUDYID": "CDISCPILOT01",
    "USUBJID": "01-703-001",
    "SUBJID": 1,
    "SITEID": 703,
    "TRT01P": "Placebo",
    "TRT01PN": 0,
    "TRT01A": "Placebo",
    "TRT01AN": 0,
    "AGE": 70,
    "AGEGR1": "65-80",
    "AGEGR1N": 2,
    "SEX": "M",
    "SEXN": 1,
    "RACE": "WHITE",
    "ETHNIC": "NOT HISPANIC OR LATINO",
    "COUNTRY": "USA",
    "MMSETOT": 21,
    "MMSEGRP": "Mild (20-24)",
    "MMSEGRPN": 3,
    "DISDUR": 41.2,
    "EDUCYR": 13,
    "RANDDT": "2013-01-12",
    "TRTSDT": "2013-01-12",
    "TRTEDT": "2013-06-28",
    "TRTDURD": 168,
    "CUMDOSE": 0,
    "COMPLFL": "Y",
    "DCTREAS": "COMPLETED",
    "EOSSTT": "COMPLETED",
    "DCSREAS": "COMPLETED",
    "SAFFL": "Y",
    "ITTFL": "Y",
    "EFFFL": "Y"
  },
  {
    "STUDYID": "CDISCPILOT01",
    "USUBJID": "01-703-002",
    "SUBJID": 2,
    "SITEID": 703,
    "TRT01P": "Xanomeline High Dose",
    "TRT01PN": 2,
    "TRT01A": "Xanomeline High Dose",
    "TRT01AN": 2,
    "AGE": 72,
    "AGEGR1": "65-80",
    "AGEGR1N": 2,
    "SEX": "F",
    "SEXN": 2,
    "RACE": "WHITE",
    "ETHNIC": "NOT HISPANIC OR LATINO",
    "COUNTRY": "USA",
    "MMSETOT": 20,
    "MMSEGRP": "Mild (20-24)",
    "MMSEGRPN": 3,
    "DISDUR": 37.9,
    "EDUCYR": 9,
    "RANDDT": "2013-02-03",
    "TRTSDT": "2013-02-03",
    "TRTEDT": "2013-06-29",
    "TRTDURD": 147,
    "CUMDOSE": 11475.1,
    "COMPLFL": "N",
    "DCTREAS": "ADVERSE EVENT",
    "EOSSTT": "DISCONTINUED",
    "DCSREAS": "ADVERSE EVENT",
    "SAFFL": "Y",
    "ITTFL": "Y",
    "EFFFL": "Y"
  },
  {
    "STUDYID": "CDISCPILOT01",
    "USUBJID": "01-703-003",
    "SUBJID": 3,
    "SITEID": 703,
    "TRT01P": "Xanomeline High Dose",
    "TRT01PN": 2,
    "TRT01A": "Xanomeline High Dose",
    "TRT01AN": 2,
    "AGE": 78,
    "AGEGR1": "65-80",
    "AGEGR1N": 2,
    "SEX": "F",
    "SEXN": 2,
    "RACE": "WHITE",
    "ETHNIC": "NOT HISPANIC OR LATINO",
    "COUNTRY": "USA",
    "MMSETOT": 24,
    "MMSEGRP": "Mild (20-24)",
    "MMSEGRPN": 3,
    "DISDUR": 49.1,
    "EDUCYR": 7,
    "RANDDT": "2013-08-12",
    "TRTSDT": "2013-08-12",
    "TRTEDT": "2014-01-26",
    "TRTDURD": 168,
    "CUMDOSE": 13201.3,
    "COMPLFL": "Y",
    "DCTREAS": "COMPLETED",
    "EOSSTT": "COMPLETED",
    "DCSREAS": "COMPLETED",
    "SAFFL": "Y",
    "ITTFL": "Y",
    "EFFFL": "Y"
  },
  {
    "STUDYID": "CDISCPILOT01",
    "USUBJID": "01-703-004",
    "SUBJID": 4,
    "SITEID": 703,
    "TRT01P": "Placebo",
    "TRT01PN": 0,
    "TRT01A": "Placebo",
    "TRT01AN": 0,
    "AGE": 75,
    "AGEGR1": "65-80",
    "AGEGR1N": 2,
    "SEX": "F",
    "SEXN": 2,
    "RACE": "WHITE",
    "ETHNIC": "NOT HISPANIC OR LATINO",
    "COUNTRY": "USA",
    "MMSETOT": 15,
    "MMSEGRP": "Moderate (15-19)",
    "MMSEGRPN": 2,
    "DISDUR": 57.5,
    "EDUCYR": 13,
    "RANDDT": "2013-07-30",
    "TRTSDT": "2013-07-30",
    "TRTEDT": "2013-12-23",
    "TRTDURD": 147,
    "CUMDOSE": 0,
    "COMPLFL": "N",
    "DCTREAS": "WITHDREW CONSENT",
    "EOSSTT": "DISCONTINUED",
    "DCSREAS": "WITHDREW CONSENT",
    "SAFFL": "Y",
    "ITTFL": "Y",
    "EFFFL": "Y"
  },
  {
    "STUDYID": "CDISCPILOT01",
    "USUBJID": "01-703-005",
    "SUBJID": 5,
    "SITEID": 703,
    "TRT01P": "Xanomeline Low Dose",
    "TRT01PN": 1,
    "TRT01A": "Xanomeline Low Dose",
    "TRT01AN": 1,
    "AGE": 66,
    "AGEGR1": "65-80",
    "AGEGR1N": 2,
    "SEX": "M",
    "SEXN": 1,
    "RACE": "WHITE",
    "ETHNIC": "NOT HISPANIC OR LATINO",
    "COUNTRY": "USA",
    "MMSETOT": 21,
    "MMSEGRP": "Mild (20-24)",
    "MMSEGRPN": 3,
    "DISDUR": 19.9,
    "EDUCYR": 12,
    "RANDDT": "2013-03-05",
    "TRTSDT": "2013-03-05",
    "TRTEDT": "2013-04-29",
    "TRTDURD": 56,
    "CUMDOSE": 3016.9,
    "COMPLFL": "N",
    "DCTREAS": "ADVERSE EVENT",
    "EOSSTT": "DISCONTINUED",
    "DCSREAS": "ADVERSE EVENT",
    "SAFFL": "Y",
    "ITTFL": "Y",
    "EFFFL": "Y"
  },
  {
    "STUDYID": "CDISCPILOT01",
    "USUBJID": "01-703-006",
    "SUBJID": 6,
    "SITEID": 703,
    "TRT01P": "Placebo",
    "TRT01PN": 0,
    "TRT01A": "Placebo",
    "TRT01AN": 0,
    "AGE": 85,
    "AGEGR1": ">80",
    "AGEGR1N": 3,
    "SEX": "F",
    "SEXN": 2,
    "RACE": "WHITE",
    "ETHNIC": "NOT HISPANIC OR LATINO",
    "COUNTRY": "USA",
    "MMSETOT": 15,
    "MMSEGRP": "Moderate (15-19)",
    "MMSEGRPN": 2,
    "DISDUR": 28.6,
    "EDUCYR": 12,
    "RANDDT": "2013-07-24",
    "TRTSDT": "2013-07-24",
    "TRTEDT": "2013-09-03",
    "TRTDURD": 42,
    "CUMDOSE": 0,
    "COMPLFL": "N",
    "DCTREAS": "WITHDREW CONSENT",
    "EOSSTT": "DISCONTINUED",
    "DCSREAS": "WITHDREW CONSENT",
    "SAFFL": "Y",
    "ITTFL": "Y",
    "EFFFL": "Y"
  },
  {
    "STUDYID": "CDISCPILOT01",
    "USUBJID": "01-703-007",
    "SUBJID": 7,
    "SITEID": 703,
    "TRT01P": "Placebo",
    "TRT01PN": 0,
    "TRT01A": "Placebo",
    "TRT01AN": 0,
    "AGE": 76,
    "AGEGR1": "65-80",
    "AGEGR1N": 2,
    "SEX": "F",
    "SEXN": 2,
    "RACE": "WHITE",
    "ETHNIC": "NOT HISPANIC OR LATINO",
    "COUNTRY": "USA",
    "MMSETOT": 24,
    "MMSEGRP": "Mild (20-24)",
    "MMSEGRPN": 3,
    "DISDUR": 38.1,
    "EDUCYR": 17,
    "RANDDT": "2013-02-21",
    "TRTSDT": "2013-02-21",
    "TRTEDT": "2013-05-08",
    "TRTDURD": 77,
    "CUMDOSE": 0,
    "COMPLFL": "N",
    "DCTREAS": "ADVERSE EVENT",
    "EOSSTT": "DISCONTINUED",
    "DCSREAS": "ADVERSE EVENT",
    "SAFFL": "Y",
    "ITTFL": "Y",
    "EFFFL": "Y"
  },
  {
    "STUDYID": "CDISCPILOT01",
    "USUBJID": "01-703-008",
    "SUBJID": 8,
    "SITEID": 703,
    "TRT01P": "Xanomeline Low Dose",
    "TRT01PN": 1,
    "TRT01A": "Xanomeline Low Dose",
    "TRT01AN": 1,
    "AGE": 54,
    "AGEGR1": "<65",
    "AGEGR1N": 1,
    "SEX": "F",
    "SEXN": 2,
    "RACE": "WHITE",
    "ETHNIC": "NOT HISPANIC OR LATINO",
    "COUNTRY": "USA",
    "MMSETOT": 13,
    "MMSEGRP": "Severe (0-14)",
    "MMSEGRPN": 1,
    "DISDUR": 45.3,
    "EDUCYR": 15,
    "RANDDT": "2014-01-01",
    "TRTSDT": "2014-01-01",
    "TRTEDT": "2014-06-17",
    "TRTDURD": 168,
    "CUMDOSE": 8849,
    "COMPLFL": "Y",
    "DCTREAS": "COMPLETED",
    "EOSSTT": "DISCONTINUED",
    "DCSREAS": "WITHDREW CONSENT",
    "SAFFL": "Y",
    "ITTFL": "Y",
    "EFFFL": "Y"
  },
  {
    "STUDYID": "CDISCPILOT01",
    "USUBJID": "01-703-009",
    "SUBJID": 9,
    "SITEID": 703,
    "TRT01P": "Xanomeline High Dose",
    "TRT01PN": 2,
    "TRT01A": "Xanomeline High Dose",
    "TRT01AN": 2,
    "AGE": 75,
    "AGEGR1": "65-80",
    "AGEGR1N": 2,
    "SEX": "F",
    "SEXN": 2,
    "RACE": "WHITE",
    "ETHNIC": "NOT HISPANIC OR LATINO",
    "COUNTRY": "USA",
    "MMSETOT": 19,
    "MMSEGRP": "Moderate (15-19)",
    "MMSEGRPN": 2,
    "DISDUR": 54.1,
    "EDUCYR": 17,
    "RANDDT": "2013-06-04",
    "TRTSDT": "2013-06-04",
    "TRTEDT": "2013-07-15",
    "TRTDURD": 42,
    "CUMDOSE": 3373.8,
    "COMPLFL": "N",
    "DCTREAS": "ADVERSE EVENT",
    "EOSSTT": "DISCONTINUED",
    "DCSREAS": "ADVERSE EVENT",
    "SAFFL": "Y",
    "ITTFL": "Y",
    "EFFFL": "Y"
  },
  {
    "STUDYID": "CDISCPILOT01",
    "USUBJID": "01-703-010",
    "SUBJID": 10,
    "SITEID": 703,
    "TRT01P": "Placebo",
    "TRT01PN": 0,
    "TRT01A": "Placebo",
    "TRT01AN": 0,
    "AGE": 68,
    "AGEGR1": "65-80",
    "AGEGR1N": 2,
    "SEX": "M",
    "SEXN": 1,
    "RACE": "WHITE",
    "ETHNIC": "NOT HISPANIC OR LATINO",
    "COUNTRY": "USA",
    "MMSETOT": 11,
    "MMSEGRP": "Severe (0-14)",
    "MMSEGRPN": 1,
    "DISDUR": 18.5,
    "EDUCYR": 15,
    "RANDDT": "2013-07-02",
    "TRTSDT": "2013-07-02",
    "TRTEDT": "2013-07-22",
    "TRTDURD": 21,
    "CUMDOSE": 0,
    "COMPLFL": "N",
    "DCTREAS": "PHYSICIAN DECISION",
    "EOSSTT": "DISCONTINUED",
    "DCSREAS": "PHYSICIAN DECISION",
    "SAFFL": "Y",
    "ITTFL": "Y",
    "EFFFL": "Y"
  },
  {
    "STUDYID": "CDISCPILOT01",
    "USUBJID": "01-703-011",
    "SUBJID": 11,
    "SITEID": 703,
    "TRT01P": "Xanomeline High Dose",
    "TRT01PN": 2,
    "TRT01A": "Xanomeline High Dose",
    "TRT01AN": 2,
    "AGE": 89,
    "AGEGR1": ">80",
    "AGEGR1N": 3,
    "SEX": "M",
    "SEXN": 1,
    "RACE": "WHITE",
    "ETHNIC": "NOT HISPANIC OR LATINO",
    "COUNTRY": "USA",
    "MMSETOT": 15,
    "MMSEGRP": "Moderate (15-19)",
    "MMSEGRPN": 2,
    "DISDUR": 2,
    "EDUCYR": 14,
    "RANDDT": "2013-12-22",
    "TRTSDT": "2013-12-22",
    "TRTEDT": "2014-06-07",
    "TRTDURD": 168,
    "CUMDOSE": 13549.3,
    "COMPLFL": "Y",
    "DCTREAS": "COMPLETED",
    "EOSSTT": "COMPLETED",
    "DCSREAS": "COMPLETED",
    "SAFFL": "Y",
    "ITTFL": "Y",
    "EFFFL": "Y"
  },
  {
    "STUDYID": "CDISCPILOT01",
    "USUBJID": "01-703-012",
    "SUBJID": 12,
    "SITEID": 703,
    "TRT01P": "Xanomeline High Dose",
    "TRT01PN": 2,
    "TRT01A": "Xanomeline High Dose",
    "TRT01AN": 2,
    "AGE": 70,
    "AGEGR1": "65-80",
    "AGEGR1N": 2,
    "SEX": "F",
    "SEXN": 2,
    "RACE": "WHITE",
    "ETHNIC": "NOT HISPANIC OR LATINO",
    "COUNTRY": "USA",
    "MMSETOT": 20,
    "MMSEGRP": "Mild (20-24)",
    "MMSEGRPN": 3,
    "DISDUR": 76.5,
    "EDUCYR": 12,
    "RANDDT": "2013-02-06",
    "TRTSDT": "2013-02-06",
    "TRTEDT": "2013-02-19",
    "TRTDURD": 14,
    "CUMDOSE": 1094.7,
    "COMPLFL": "N",
    "DCTREAS": "ADVERSE EVENT",
    "EOSSTT": "DISCONTINUED",
    "DCSREAS": "ADVERSE EVENT",
    "SAFFL": "Y",
    "ITTFL": "Y",
    "EFFFL": "Y"
  },
  {
    "STUDYID": "CDISCPILOT01",
    "USUBJID": "01-703-013",
    "SUBJID": 13,
    "SITEID": 703,
    "TRT01P": "Xanomeline Low Dose",
    "TRT01PN": 1,
    "TRT01A": "Xanomeline Low Dose",
    "TRT01AN": 1,
    "AGE": 78,
    "AGEGR1": "65-80",
    "AGEGR1N": 2,
    "SEX": "M",
    "SEXN": 1,
    "RACE": "WHITE",
    "ETHNIC": "NOT HISPANIC OR LATINO",
    "COUNTRY": "USA",
    "MMSETOT": 14,
    "MMSEGRP": "Severe (0-14)",
    "MMSEGRPN": 1,
    "DISDUR": 31,
    "EDUCYR": 15,
    "RANDDT": "2013-04-28",
    "TRTSDT": "2013-04-28",
    "TRTEDT": "2013-08-31",
    "TRTDURD": 126,
    "CUMDOSE": 6740.7,
    "COMPLFL": "N",
    "DCTREAS": "ADVERSE EVENT",
    "EOSSTT": "DISCONTINUED",
    "DCSREAS": "ADVERSE EVENT",
    "SAFFL": "Y",
    "ITTFL": "Y",
    "EFFFL": "Y"
  },
  {
    "STUDYID": "CDISCPILOT01",
    "USUBJID": "01-703-014",
    "SUBJID": 14,
    "SITEID": 703,
    "TRT01P": "Xanomeline Low Dose",
    "TRT01PN": 1,
    "TRT01A": "Xanomeline Low Dose",
    "TRT01AN": 1,
    "AGE": 70,
    "AGEGR1": "65-80",
    "AGEGR1N": 2,
    "SEX": "F",
    "SEXN": 2,
    "RACE": "WHITE",
    "ETHNIC": "NOT HISPANIC OR LATINO",
    "COUNTRY": "USA",
    "MMSETOT": 24,
    "MMSEGRP": "Mild (20-24)",
    "MMSEGRPN": 3,
    "DISDUR": 34.7,
    "EDUCYR": 17,
    "RANDDT": "2013-07-17",
    "TRTSDT": "2013-07-17",
    "TRTEDT": "2013-08-20",
    "TRTDURD": 35,
    "CUMDOSE": 1811.4,
    "COMPLFL": "N",
    "DCTREAS": "ADVERSE EVENT",
    "EOSSTT": "DISCONTINUED",
    "DCSREAS": "ADVERSE EVENT",
    "SAFFL": "Y",
    "ITTFL": "Y",
    "EFFFL": "Y"
  },
  {
    "STUDYID": "CDISCPILOT01",
    "USUBJID": "01-703-015",
    "SUBJID": 15,
    "SITEID": 703,
    "TRT01P": "Xanomeline Low Dose",
    "TRT01PN": 1,
    "TRT01A": "Xanomeline Low Dose",
    "TRT01AN": 1,
    "AGE": 87,
    "AGEGR1": ">80",
    "AGEGR1N": 3,
    "SEX": "F",
    "SEXN": 2,
    "RACE": "WHITE",
    "ETHNIC": "NOT HISPANIC OR LATINO",
    "COUNTRY": "USA",
    "MMSETOT": 21,
    "MMSEGRP": "Mild (20-24)",
    "MMSEGRPN": 3,
    "DISDUR": 40.4,
    "EDUCYR": 16,
    "RANDDT": "2013-02-11",
    "TRTSDT": "2013-02-11",
    "TRTEDT": "2013-07-28",
    "TRTDURD": 168,
    "CUMDOSE": 8999.3,
    "COMPLFL": "Y",
    "DCTREAS": "COMPLETED",
    "EOSSTT": "COMPLETED",
    "DCSREAS": "COMPLETED",
    "SAFFL": "Y",
    "ITTFL": "Y",
    "EFFFL": "Y"
  },
  {
    "STUDYID": "CDISCPILOT01",
    "USUBJID": "01-703-016",
    "SUBJID": 16,
    "SITEID": 703,
    "TRT01P": "Placebo",
    "TRT01PN": 0,
    "TRT01A": "Placebo",
    "TRT01AN": 0,
    "AGE": 85,
    "AGEGR1": ">80",
    "AGEGR1N": 3,
    "SEX": "F",
    "SEXN": 2,
    "RACE": "WHITE",
    "ETHNIC": "HISPANIC OR LATINO",
    "COUNTRY": "USA",
    "MMSETOT": 21,
    "MMSEGRP": "Mild (20-24)",
    "MMSEGRPN": 3,
    "DISDUR": 2,
    "EDUCYR": 13,
    "RANDDT": "2013-05-02",
    "TRTSDT": "2013-05-02",
    "TRTEDT": "2013-08-14",
    "TRTDURD": 105,
    "CUMDOSE": 0,
    "COMPLFL": "N",
    "DCTREAS": "WITHDREW CONSENT",
    "EOSSTT": "DISCONTINUED",
    "DCSREAS": "WITHDREW CONSENT",
    "SAFFL": "Y",
    "ITTFL": "Y",
    "EFFFL": "Y"
  },
  {
    "STUDYID": "CDISCPILOT01",
    "USUBJID": "01-703-017",
    "SUBJID": 17,
    "SITEID": 703,
    "TRT01P": "Xanomeline Low Dose",
    "TRT01PN": 1,
    "TRT01A": "Xanomeline Low Dose",
    "TRT01AN": 1,
    "AGE": 61,
    "AGEGR1": "<65",
    "AGEGR1N": 1,
    "SEX": "F",
    "SEXN": 2,
    "RACE": "WHITE",
    "ETHNIC": "NOT HISPANIC OR LATINO",
    "COUNTRY": "USA",
    "MMSETOT": 18,
    "MMSEGRP": "Moderate (15-19)",
    "MMSEGRPN": 2,
    "DISDUR": 31.8,
    "EDUCYR": 13,
    "RANDDT": "2013-11-18",
    "TRTSDT": "2013-11-18",
    "TRTEDT": "2013-12-22",
    "TRTDURD": 35,
    "CUMDOSE": 1821.8,
    "COMPLFL": "N",
    "DCTREAS": "ADVERSE EVENT",
    "EOSSTT": "DISCONTINUED",
    "DCSREAS": "ADVERSE EVENT",
    "SAFFL": "Y",
    "ITTFL": "Y",
    "EFFFL": "Y"
  },
  {
    "STUDYID": "CDISCPILOT01",
    "USUBJID": "01-703-018",
    "SUBJID": 18,
    "SITEID": 703,
    "TRT01P": "Xanomeline Low Dose",
    "TRT01PN": 1,
    "TRT01A": "Xanomeline Low Dose",
    "TRT01AN": 1,
    "AGE": 75,
    "AGEGR1": "65-80",
    "AGEGR1N": 2,
    "SEX": "M",
    "SEXN": 1,
    "RACE": "WHITE",
    "ETHNIC": "NOT HISPANIC OR LATINO",
    "COUNTRY": "USA",
    "MMSETOT": 13,
    "MMSEGRP": "Severe (0-14)",
    "MMSEGRPN": 1,
    "DISDUR": 26.6,
    "EDUCYR": 10,
    "RANDDT": "2013-08-23",
    "TRTSDT": "2013-08-23",
    "TRTEDT": "2013-09-26",
    "TRTDURD": 35,
    "CUMDOSE": 1818.6,
    "COMPLFL": "N",
    "DCTREAS": "ADVERSE EVENT",
    "EOSSTT": "DISCONTINUED",
    "DCSREAS": "ADVERSE EVENT",
    "SAFFL": "Y",
    "ITTFL": "Y",
    "EFFFL": "Y"
  },
  {
    "STUDYID": "CDISCPILOT01",
    "USUBJID": "01-703-019",
    "SUBJID": 19,
    "SITEID": 703,
    "TRT01P": "Xanomeline High Dose",
    "TRT01PN": 2,
    "TRT01A": "Xanomeline High Dose",
    "TRT01AN": 2,
    "AGE": 62,
    "AGEGR1": "<65",
    "AGEGR1N": 1,
    "SEX": "F",
    "SEXN": 2,
    "RACE": "BLACK OR AFRICAN AMERICAN",
    "ETHNIC": "NOT HISPANIC OR LATINO",
    "COUNTRY": "USA",
    "MMSETOT": 17,
    "MMSEGRP": "Moderate (15-19)",
    "MMSEGRPN": 2,
    "DISDUR": 18.2,
    "EDUCYR": 12,
    "RANDDT": "2013-11-03",
    "TRTSDT": "2013-11-03",
    "TRTEDT": "2014-04-19",
    "TRTDURD": 168,
    "CUMDOSE": 13038.9,
    "COMPLFL": "Y",
    "DCTREAS": "COMPLETED",
    "EOSSTT": "COMPLETED",
    "DCSREAS": "COMPLETED",
    "SAFFL": "Y",
    "ITTFL": "Y",
    "EFFFL": "Y"
  },
  {
    "STUDYID": "CDISCPILOT01",
    "USUBJID": "01-703-020",
    "SUBJID": 20,
    "SITEID": 703,
    "TRT01P": "Xanomeline Low Dose",
    "TRT01PN": 1,
    "TRT01A": "Xanomeline Low Dose",
    "TRT01AN": 1,
    "AGE": 72,
    "AGEGR1": "65-80",
    "AGEGR1N": 2,
    "SEX": "F",
    "SEXN": 2,
    "RACE": "WHITE",
    "ETHNIC": "NOT HISPANIC OR LATINO",
    "COUNTRY": "USA",
    "MMSETOT": 24,
    "MMSEGRP": "Mild (20-24)",
    "MMSEGRPN": 3,
    "DISDUR": 2,
    "EDUCYR": 11,
    "RANDDT": "2013-07-07",
    "TRTSDT": "2013-07-07",
    "TRTEDT": "2013-12-21",
    "TRTDURD": 168,
    "CUMDOSE": 9027.6,
    "COMPLFL": "N",
    "DCTREAS": "ADVERSE EVENT",
    "EOSSTT": "DISCONTINUED",
    "DCSREAS": "ADVERSE EVENT",
    "SAFFL": "Y",
    "ITTFL": "Y",
    "EFFFL": "Y"
  },
  {
    "STUDYID": "CDISCPILOT01",
    "USUBJID": "01-704-001",
    "SUBJID": 1,
    "SITEID": 704,
    "TRT01P": "Placebo",
    "TRT01PN": 0,
    "TRT01A": "Placebo",
    "TRT01AN": 0,
    "AGE": 79,
    "AGEGR1": "65-80",
    "AGEGR1N": 2,
    "SEX": "F",
    "SEXN": 2,
    "RACE": "WHITE",
    "ETHNIC": "NOT HISPANIC OR LATINO",
    "COUNTRY": "USA",
    "MMSETOT": 16,
    "MMSEGRP": "Moderate (15-19)",
    "MMSEGRPN": 2,
    "DISDUR": 2,
    "EDUCYR": 12,
    "RANDDT": "2013-12-14",
    "TRTSDT": "2013-12-14",
    "TRTEDT": "2014-05-30",
    "TRTDURD": 168,
    "CUMDOSE": 0,
    "COMPLFL": "Y",
    "DCTREAS": "COMPLETED",
    "EOSSTT": "DISCONTINUED",
    "DCSREAS": "WITHDREW CONSENT",
    "SAFFL": "Y",
    "ITTFL": "Y",
    "EFFFL": "Y"
  },
  {
    "STUDYID": "CDISCPILOT01",
    "USUBJID": "01-704-002",
    "SUBJID": 2,
    "SITEID": 704,
    "TRT01P": "Placebo",
    "TRT01PN": 0,
    "TRT01A": "Placebo",
    "TRT01AN": 0,
    "AGE": 89,
    "AGEGR1": ">80",
    "AGEGR1N": 3,
    "SEX": "M",
    "SEXN": 1,
    "RACE": "WHITE",
    "ETHNIC": "NOT HISPANIC OR LATINO",
    "COUNTRY": "USA",
    "MMSETOT": 18,
    "MMSEGRP": "Moderate (15-19)",
    "MMSEGRPN": 2,
    "DISDUR": 25.5,
    "EDUCYR": 9,
    "RANDDT": "2013-02-21",
    "TRTSDT": "2013-02-21",
    "TRTEDT": "2013-08-07",
    "TRTDURD": 168,
    "CUMDOSE": 0,
    "COMPLFL": "Y",
    "DCTREAS": "COMPLETED",
    "EOSSTT": "COMPLETED",
    "DCSREAS": "COMPLETED",
    "SAFFL": "Y",
    "ITTFL": "Y",
    "EFFFL": "Y"
  },
  {
    "STUDYID": "CDISCPILOT01",
    "USUBJID": "01-704-003",
    "SUBJID": 3,
    "SITEID": 704,
    "TRT01P": "Xanomeline Low Dose",
    "TRT01PN": 1,
    "TRT01A": "Xanomeline Low Dose",
    "TRT01AN": 1,
    "AGE": 78,
    "AGEGR1": "65-80",
    "AGEGR1N": 2,
    "SEX": "M",
    "SEXN": 1,
    "RACE": "WHITE",
    "ETHNIC": "NOT HISPANIC OR LATINO",
    "COUNTRY": "USA",
    "MMSETOT": 14,
    "MMSEGRP": "Severe (0-14)",
    "MMSEGRPN": 1,
    "DISDUR": 127.5,
    "EDUCYR": 20,
    "RANDDT": "2013-06-22",
    "TRTSDT": "2013-06-22",
    "TRTEDT": "2013-12-06",
    "TRTDURD": 168,
    "CUMDOSE": 8621.5,
    "COMPLFL": "Y",
    "DCTREAS": "COMPLETED",
    "EOSSTT": "COMPLETED",
    "DCSREAS": "COMPLETED",
    "SAFFL": "Y",
    "ITTFL": "Y",
    "EFFFL": "Y"
  },
  {
    "STUDYID": "CDISCPILOT01",
    "USUBJID": "01-704-004",
    "SUBJID": 4,
    "SITEID": 704,
    "TRT01P": "Xanomeline Low Dose",
    "TRT01PN": 1,
    "TRT01A": "Xanomeline Low Dose",
    "TRT01AN": 1,
    "AGE": 59,
    "AGEGR1": "<65",
    "AGEGR1N": 1,
    "SEX": "M",
    "SEXN": 1,
    "RACE": "WHITE",
    "ETHNIC": "NOT HISPANIC OR LATINO",
    "COUNTRY": "USA",
    "MMSETOT": 17,
    "MMSEGRP": "Moderate (15-19)",
    "MMSEGRPN": 2,
    "DISDUR": 28.7,
    "EDUCYR": 9,
    "RANDDT": "2013-09-29",
    "TRTSDT": "2013-09-29",
    "TRTEDT": "2013-11-16",
    "TRTDURD": 49,
    "CUMDOSE": 2570.8,
    "COMPLFL": "N",
    "DCTREAS": "ADVERSE EVENT",
    "EOSSTT": "DISCONTINUED",
    "DCSREAS": "ADVERSE EVENT",
    "SAFFL": "Y",
    "ITTFL": "Y",
    "EFFFL": "Y"
  },
  {
    "STUDYID": "CDISCPILOT01",
    "USUBJID": "01-704-005",
    "SUBJID": 5,
    "SITEID": 704,
    "TRT01P": "Placebo",
    "TRT01PN": 0,
    "TRT01A": "Placebo",
    "TRT01AN": 0,
    "AGE": 76,
    "AGEGR1": "65-80",
    "AGEGR1N": 2,
    "SEX": "F",
    "SEXN": 2,
    "RACE": "WHITE",
    "ETHNIC": "NOT HISPANIC OR LATINO",
    "COUNTRY": "USA",
    "MMSETOT": 17,
    "MMSEGRP": "Moderate (15-19)",
    "MMSEGRPN": 2,
    "DISDUR": 22.7,
    "EDUCYR": 17,
    "RANDDT": "2013-11-08",
    "TRTSDT": "2013-11-08",
    "TRTEDT": "2013-12-05",
    "TRTDURD": 28,
    "CUMDOSE": 0,
    "COMPLFL": "N",
    "DCTREAS": "ADVERSE EVENT",
    "EOSSTT": "DISCONTINUED",
    "DCSREAS": "ADVERSE EVENT",
    "SAFFL": "Y",
    "ITTFL": "Y",
    "EFFFL": "Y"
  },
  {
    "STUDYID": "CDISCPILOT01",
    "USUBJID": "01-704-006",
    "SUBJID": 6,
    "SITEID": 704,
    "TRT01P": "Placebo",
    "TRT01PN": 0,
    "TRT01A": "Placebo",
    "TRT01AN": 0,
    "AGE": 85,
    "AGEGR1": ">80",
    "AGEGR1N": 3,
    "SEX": "M",
    "SEXN": 1,
    "RACE": "WHITE",
    "ETHNIC": "NOT HISPANIC OR LATINO",
    "COUNTRY": "USA",
    "MMSETOT": 21,
    "MMSEGRP": "Mild (20-24)",
    "MMSEGRPN": 3,
    "DISDUR": 17.6,
    "EDUCYR": 14,
    "RANDDT": "2013-10-29",
    "TRTSDT": "2013-10-29",
    "TRTEDT": "2013-11-18",
    "TRTDURD": 21,
    "CUMDOSE": 0,
    "COMPLFL": "N",
    "DCTREAS": "LACK OF EFFICACY",
    "EOSSTT": "DISCONTINUED",
    "DCSREAS": "LACK OF EFFICACY",
    "SAFFL": "Y",
    "ITTFL": "Y",
    "EFFFL": "Y"
  },
  {
    "STUDYID": "CDISCPILOT01",
    "USUBJID": "01-704-007",
    "SUBJID": 7,
    "SITEID": 704,
    "TRT01P": "Placebo",
    "TRT01PN": 0,
    "TRT01A": "Placebo",
    "TRT01AN": 0,
    "AGE": 73,
    "AGEGR1": "65-80",
    "AGEGR1N": 2,
    "SEX": "F",
    "SEXN": 2,
    "RACE": "WHITE",
    "ETHNIC": "NOT HISPANIC OR LATINO",
    "COUNTRY": "USA",
    "MMSETOT": 19,
    "MMSEGRP": "Moderate (15-19)",
    "MMSEGRPN": 2,
    "DISDUR": 49.9,
    "EDUCYR": 10,
    "RANDDT": "2013-12-16",
    "TRTSDT": "2013-12-16",
    "TRTEDT": "2014-06-01",
    "TRTDURD": 168,
    "CUMDOSE": 0,
    "COMPLFL": "Y",
    "DCTREAS": "COMPLETED",
    "EOSSTT": "COMPLETED",
    "DCSREAS": "COMPLETED",
    "SAFFL": "Y",
    "ITTFL": "Y",
    "EFFFL": "Y"
  },
  {
    "STUDYID": "CDISCPILOT01",
    "USUBJID": "01-704-008",
    "SUBJID": 8,
    "SITEID": 704,
    "TRT01P": "Xanomeline High Dose",
    "TRT01PN": 2,
    "TRT01A": "Xanomeline High Dose",
    "TRT01AN": 2,
    "AGE": 78,
    "AGEGR1": "65-80",
    "AGEGR1N": 2,
    "SEX": "F",
    "SEXN": 2,
    "RACE": "WHITE",
    "ETHNIC": "NOT HISPANIC OR LATINO",
    "COUNTRY": "USA",
    "MMSETOT": 24,
    "MMSEGRP": "Mild (20-24)",
    "MMSEGRPN": 3,
    "DISDUR": 26,
    "EDUCYR": 13,
    "RANDDT": "2013-07-05",
    "TRTSDT": "2013-07-05",
    "TRTEDT": "2013-12-19",
    "TRTDURD": 168,
    "CUMDOSE": 12931.8,
    "COMPLFL": "Y",
    "DCTREAS": "COMPLETED",
    "EOSSTT": "COMPLETED",
    "DCSREAS": "COMPLETED",
    "SAFFL": "Y",
    "ITTFL": "Y",
    "EFFFL": "Y"
  },
  {
    "STUDYID": "CDISCPILOT01",
    "USUBJID": "01-704-009",
    "SUBJID": 9,
    "SITEID": 704,
    "TRT01P": "Xanomeline High Dose",
    "TRT01PN": 2,
    "TRT01A": "Xanomeline High Dose",
    "TRT01AN": 2,
    "AGE": 75,
    "AGEGR1": "65-80",
    "AGEGR1N": 2,
    "SEX": "M",
    "SEXN": 1,
    "RACE": "WHITE",
    "ETHNIC": "NOT HISPANIC OR LATINO",
    "COUNTRY": "USA",
    "MMSETOT": 11,
    "MMSEGRP": "Severe (0-14)",
    "MMSEGRPN": 1,
    "DISDUR": 104.2,
    "EDUCYR": 15,
    "RANDDT": "2013-07-11",
    "TRTSDT": "2013-07-11",
    "TRTEDT": "2013-12-25",
    "TRTDURD": 168,
    "CUMDOSE": 13367.2,
    "COMPLFL": "N",
    "DCTREAS": "PROTOCOL CRITERIA NOT MET",
    "EOSSTT": "DISCONTINUED",
    "DCSREAS": "PROTOCOL CRITERIA NOT MET",
    "SAFFL": "Y",
    "ITTFL": "Y",
    "EFFFL": "Y"
  },
  {
    "STUDYID": "CDISCPILOT01",
    "USUBJID": "01-704-010",
    "SUBJID": 10,
    "SITEID": 704,
    "TRT01P": "Xanomeline High Dose",
    "TRT01PN": 2,
    "TRT01A": "Xanomeline High Dose",
    "TRT01AN": 2,
    "AGE": 72,
    "AGEGR1": "65-80",
    "AGEGR1N": 2,
    "SEX": "F",
    "SEXN": 2,
    "RACE": "WHITE",
    "ETHNIC": "NOT HISPANIC OR LATINO",
    "COUNTRY": "USA",
    "MMSETOT": 18,
    "MMSEGRP": "Moderate (15-19)",
    "MMSEGRPN": 2,
    "DISDUR": 118,
    "EDUCYR": 17,
    "RANDDT": "2013-09-21",
    "TRTSDT": "2013-09-21",
    "TRTEDT": "2014-01-31",
    "TRTDURD": 133,
    "CUMDOSE": 10654.7,
    "COMPLFL": "N",
    "DCTREAS": "ADVERSE EVENT",
    "EOSSTT": "DISCONTINUED",
    "DCSREAS": "ADVERSE EVENT",
    "SAFFL": "Y",
    "ITTFL": "Y",
    "EFFFL": "Y"
  },
  {
    "STUDYID": "CDISCPILOT01",
    "USUBJID": "01-704-011",
    "SUBJID": 11,
    "SITEID": 704,
    "TRT01P": "Placebo",
    "TRT01PN": 0,
    "TRT01A": "Placebo",
    "TRT01AN": 0,
    "AGE": 71,
    "AGEGR1": "65-80",
    "AGEGR1N": 2,
    "SEX": "M",
    "SEXN": 1,
    "RACE": "WHITE",
    "ETHNIC": "NOT HISPANIC OR LATINO",
    "COUNTRY": "USA",
    "MMSETOT": 17,
    "MMSEGRP": "Moderate (15-19)",
    "MMSEGRPN": 2,
    "DISDUR": 67.2,
    "EDUCYR": 9,
    "RANDDT": "2013-11-09",
    "TRTSDT": "2013-11-09",
    "TRTEDT": "2014-04-25",
    "TRTDURD": 168,
    "CUMDOSE": 0,
    "COMPLFL": "Y",
    "DCTREAS": "COMPLETED",
    "EOSSTT": "DISCONTINUED",
    "DCSREAS": "LOST TO FOLLOW-UP",
    "SAFFL": "Y",
    "ITTFL": "Y",
    "EFFFL": "Y"
  },
  {
    "STUDYID": "CDISCPILOT01",
    "USUBJID": "01-704-012",
    "SUBJID": 12,
    "SITEID": 704,
    "TRT01P": "Xanomeline Low Dose",
    "TRT01PN": 1,
    "TRT01A": "Xanomeline Low Dose",
    "TRT01AN": 1,
    "AGE": 69,
    "AGEGR1": "65-80",
    "AGEGR1N": 2,
    "SEX": "M",
    "SEXN": 1,
    "RACE": "HISPANIC OR LATINO",
    "ETHNIC": "NOT HISPANIC OR LATINO",
    "COUNTRY": "USA",
    "MMSETOT": 20,
    "MMSEGRP": "Mild (20-24)",
    "MMSEGRPN": 3,
    "DISDUR": 38.4,
    "EDUCYR": 9,
    "RANDDT": "2013-11-17",
    "TRTSDT": "2013-11-17",
    "TRTEDT": "2014-01-11",
    "TRTDURD": 56,
    "CUMDOSE": 3006.1,
    "COMPLFL": "N",
    "DCTREAS": "ADVERSE EVENT",
    "EOSSTT": "DISCONTINUED",
    "DCSREAS": "ADVERSE EVENT",
    "SAFFL": "Y",
    "ITTFL": "Y",
    "EFFFL": "Y"
  },
  {
    "STUDYID": "CDISCPILOT01",
    "USUBJID": "01-704-013",
    "SUBJID": 13,
    "SITEID": 704,
    "TRT01P": "Placebo",
    "TRT01PN": 0,
    "TRT01A": "Placebo",
    "TRT01AN": 0,
    "AGE": 66,
    "AGEGR1": "65-80",
    "AGEGR1N": 2,
    "SEX": "F",
    "SEXN": 2,
    "RACE": "WHITE",
    "ETHNIC": "NOT HISPANIC OR LATINO",
    "COUNTRY": "USA",
    "MMSETOT": 20,
    "MMSEGRP": "Mild (20-24)",
    "MMSEGRPN": 3,
    "DISDUR": 22.3,
    "EDUCYR": 16,
    "RANDDT": "2013-05-06",
    "TRTSDT": "2013-05-06",
    "TRTEDT": "2013-10-20",
    "TRTDURD": 168,
    "CUMDOSE": 0,
    "COMPLFL": "Y",
    "DCTREAS": "COMPLETED",
    "EOSSTT": "COMPLETED",
    "DCSREAS": "COMPLETED",
    "SAFFL": "Y",
    "ITTFL": "Y",
    "EFFFL": "Y"
  },
  {
    "STUDYID": "CDISCPILOT01",
    "USUBJID": "01-704-014",
    "SUBJID": 14,
    "SITEID": 704,
    "TRT01P": "Placebo",
    "TRT01PN": 0,
    "TRT01A": "Placebo",
    "TRT01AN": 0,
    "AGE": 67,
    "AGEGR1": "65-80",
    "AGEGR1N": 2,
    "SEX": "M",
    "SEXN": 1,
    "RACE": "WHITE",
    "ETHNIC": "NOT HISPANIC OR LATINO",
    "COUNTRY": "USA",
    "MMSETOT": 20,
    "MMSEGRP": "Mild (20-24)",
    "MMSEGRPN": 3,
    "DISDUR": 50.5,
    "EDUCYR": 14,
    "RANDDT": "2013-09-04",
    "TRTSDT": "2013-09-04",
    "TRTEDT": "2013-12-31",
    "TRTDURD": 119,
    "CUMDOSE": 0,
    "COMPLFL": "N",
    "DCTREAS": "ADVERSE EVENT",
    "EOSSTT": "DISCONTINUED",
    "DCSREAS": "ADVERSE EVENT",
    "SAFFL": "Y",
    "ITTFL": "Y",
    "EFFFL": "Y"
  },
  {
    "STUDYID": "CDISCPILOT01",
    "USUBJID": "01-704-015",
    "SUBJID": 15,
    "SITEID": 704,
    "TRT01P": "Xanomeline Low Dose",
    "TRT01PN": 1,
    "TRT01A": "Xanomeline Low Dose",
    "TRT01AN": 1,
    "AGE": 87,
    "AGEGR1": ">80",
    "AGEGR1N": 3,
    "SEX": "M",
    "SEXN": 1,
    "RACE": "WHITE",
    "ETHNIC": "NOT HISPANIC OR LATINO",
    "COUNTRY": "USA",
    "MMSETOT": 17,
    "MMSEGRP": "Moderate (15-19)",
    "MMSEGRPN": 2,
    "DISDUR": 25.3,
    "EDUCYR": 12,
    "RANDDT": "2013-05-08",
    "TRTSDT": "2013-05-08",
    "TRTEDT": "2013-10-01",
    "TRTDURD": 147,
    "CUMDOSE": 7827.2,
    "COMPLFL": "N",
    "DCTREAS": "ADVERSE EVENT",
    "EOSSTT": "DISCONTINUED",
    "DCSREAS": "ADVERSE EVENT",
    "SAFFL": "Y",
    "ITTFL": "Y",
    "EFFFL": "Y"
  },
  {
    "STUDYID": "CDISCPILOT01",
    "USUBJID": "01-704-016",
    "SUBJID": 16,
    "SITEID": 704,
    "TRT01P": "Xanomeline Low Dose",
    "TRT01PN": 1,
    "TRT01A": "Xanomeline Low Dose",
    "TRT01AN": 1,
    "AGE": 89,
    "AGEGR1": ">80",
    "AGEGR1N": 3,
    "SEX": "M",
    "SEXN": 1,
    "RACE": "HISPANIC OR LATINO",
    "ETHNIC": "NOT HISPANIC OR LATINO",
    "COUNTRY": "USA",
    "MMSETOT": 21,
    "MMSEGRP": "Mild (20-24)",
    "MMSEGRPN": 3,
    "DISDUR": 44.3,
    "EDUCYR": 13,
    "RANDDT": "2013-09-02",
    "TRTSDT": "2013-09-02",
    "TRTEDT": "2014-02-16",
    "TRTDURD": 168,
    "CUMDOSE": 8649.6,
    "COMPLFL": "Y",
    "DCTREAS": "COMPLETED",
    "EOSSTT": "COMPLETED",
    "DCSREAS": "COMPLETED",
    "SAFFL": "Y",
    "ITTFL": "Y",
    "EFFFL": "Y"
  },
  {
    "STUDYID": "CDISCPILOT01",
    "USUBJID": "01-704-017",
    "SUBJID": 17,
    "SITEID": 704,
    "TRT01P": "Placebo",
    "TRT01PN": 0,
    "TRT01A": "Placebo",
    "TRT01AN": 0,
    "AGE": 62,
    "AGEGR1": "<65",
    "AGEGR1N": 1,
    "SEX": "F",
    "SEXN": 2,
    "RACE": "WHITE",
    "ETHNIC": "NOT HISPANIC OR LATINO",
    "COUNTRY": "USA",
    "MMSETOT": 21,
    "MMSEGRP": "Mild (20-24)",
    "MMSEGRPN": 3,
    "DISDUR": 2,
    "EDUCYR": 12,
    "RANDDT": "2013-01-11",
    "TRTSDT": "2013-01-11",
    "TRTEDT": "2013-06-27",
    "TRTDURD": 168,
    "CUMDOSE": 0,
    "COMPLFL": "Y",
    "DCTREAS": "COMPLETED",
    "EOSSTT": "COMPLETED",
    "DCSREAS": "COMPLETED",
    "SAFFL": "Y",
    "ITTFL": "Y",
    "EFFFL": "Y"
  },
  {
    "STUDYID": "CDISCPILOT01",
    "USUBJID": "01-704-018",
    "SUBJID": 18,
    "SITEID": 704,
    "TRT01P": "Placebo",
    "TRT01PN": 0,
    "TRT01A": "Placebo",
    "TRT01AN": 0,
    "AGE": 61,
    "AGEGR1": "<65",
    "AGEGR1N": 1,
    "SEX": "F",
    "SEXN": 2,
    "RACE": "WHITE",
    "ETHNIC": "NOT HISPANIC OR LATINO",
    "COUNTRY": "USA",
    "MMSETOT": 19,
    "MMSEGRP": "Moderate (15-19)",
    "MMSEGRPN": 2,
    "DISDUR": 19.4,
    "EDUCYR": 9,
    "RANDDT": "2013-06-21",
    "TRTSDT": "2013-06-21",
    "TRTEDT": "2013-11-28",
    "TRTDURD": 161,
    "CUMDOSE": 0,
    "COMPLFL": "N",
    "DCTREAS": "PHYSICIAN DECISION",
    "EOSSTT": "DISCONTINUED",
    "DCSREAS": "PHYSICIAN DECISION",
    "SAFFL": "Y",
    "ITTFL": "Y",
    "EFFFL": "Y"
  },
  {
    "STUDYID": "CDISCPILOT01",
    "USUBJID": "01-704-019",
    "SUBJID": 19,
    "SITEID": 704,
    "TRT01P": "Xanomeline Low Dose",
    "TRT01PN": 1,
    "TRT01A": "Xanomeline Low Dose",
    "TRT01AN": 1,
    "AGE": 75,
    "AGEGR1": "65-80",
    "AGEGR1N": 2,
    "SEX": "F",
    "SEXN": 2,
    "RACE": "WHITE",
    "ETHNIC": "NOT HISPANIC OR LATINO",
    "COUNTRY": "USA",
    "MMSETOT": 24,
    "MMSEGRP": "Mild (20-24)",
    "MMSEGRPN": 3,
    "DISDUR": 50,
    "EDUCYR": 11,
    "RANDDT": "2013-08-07",
    "TRTSDT": "2013-08-07",
    "TRTEDT": "2014-01-21",
    "TRTDURD": 168,
    "CUMDOSE": 9049,
    "COMPLFL": "Y",
    "DCTREAS": "COMPLETED",
    "EOSSTT": "COMPLETED",
    "DCSREAS": "COMPLETED",
    "SAFFL": "Y",
    "ITTFL": "Y",
    "EFFFL": "Y"
  },
  {
    "STUDYID": "CDISCPILOT01",
    "USUBJID": "01-704-020",
    "SUBJID": 20,
    "SITEID": 704,
    "TRT01P": "Xanomeline High Dose",
    "TRT01PN": 2,
    "TRT01A": "Xanomeline High Dose",
    "TRT01AN": 2,
    "AGE": 64,
    "AGEGR1": "<65",
    "AGEGR1N": 1,
    "SEX": "F",
    "SEXN": 2,
    "RACE": "WHITE",
    "ETHNIC": "NOT HISPANIC OR LATINO",
    "COUNTRY": "USA",
    "MMSETOT": 17,
    "MMSEGRP": "Moderate (15-19)",
    "MMSEGRPN": 2,
    "DISDUR": 120,
    "EDUCYR": 6,
    "RANDDT": "2013-02-28",
    "TRTSDT": "2013-02-28",
    "TRTEDT": "2013-03-27",
    "TRTDURD": 28,
    "CUMDOSE": 2155.3,
    "COMPLFL": "N",
    "DCTREAS": "WITHDREW CONSENT",
    "EOSSTT": "DISCONTINUED",
    "DCSREAS": "WITHDREW CONSENT",
    "SAFFL": "Y",
    "ITTFL": "Y",
    "EFFFL": "Y"
  },
  {
    "STUDYID": "CDISCPILOT01",
    "USUBJID": "01-704-021",
    "SUBJID": 21,
    "SITEID": 704,
    "TRT01P": "Placebo",
    "TRT01PN": 0,
    "TRT01A": "Placebo",
    "TRT01AN": 0,
    "AGE": 84,
    "AGEGR1": ">80",
    "AGEGR1N": 3,
    "SEX": "M",
    "SEXN": 1,
    "RACE": "WHITE",
    "ETHNIC": "NOT HISPANIC OR LATINO",
    "COUNTRY": "USA",
    "MMSETOT": 11,
    "MMSEGRP": "Severe (0-14)",
    "MMSEGRPN": 1,
    "DISDUR": 51.1,
    "EDUCYR": 13,
    "RANDDT": "2013-05-30",
    "TRTSDT": "2013-05-30",
    "TRTEDT": "2013-11-13",
    "TRTDURD": 168,
    "CUMDOSE": 0,
    "COMPLFL": "Y",
    "DCTREAS": "COMPLETED",
    "EOSSTT": "COMPLETED",
    "DCSREAS": "COMPLETED",
    "SAFFL": "Y",
    "ITTFL": "Y",
    "EFFFL": "Y"
  },
  {
    "STUDYID": "CDISCPILOT01",
    "USUBJID": "01-704-022",
    "SUBJID": 22,
    "SITEID": 704,
    "TRT01P": "Xanomeline Low Dose",
    "TRT01PN": 1,
    "TRT01A": "Xanomeline Low Dose",
    "TRT01AN": 1,
    "AGE": 74,
    "AGEGR1": "65-80",
    "AGEGR1N": 2,
    "SEX": "M",
    "SEXN": 1,
    "RACE": "WHITE",
    "ETHNIC": "NOT HISPANIC OR LATINO",
    "COUNTRY": "USA",
    "MMSETOT": 17,
    "MMSEGRP": "Moderate (15-19)",
    "MMSEGRPN": 2,
    "DISDUR": 3,
    "EDUCYR": 18,
    "RANDDT": "2013-01-29",
    "TRTSDT": "2013-01-29",
    "TRTEDT": "2013-04-08",
    "TRTDURD": 70,
    "CUMDOSE": 3686.3,
    "COMPLFL": "N",
    "DCTREAS": "ADVERSE EVENT",
    "EOSSTT": "DISCONTINUED",
    "DCSREAS": "ADVERSE EVENT",
    "SAFFL": "Y",
    "ITTFL": "Y",
    "EFFFL": "Y"
  },
  {
    "STUDYID": "CDISCPILOT01",
    "USUBJID": "01-704-023",
    "SUBJID": 23,
    "SITEID": 704,
    "TRT01P": "Xanomeline High Dose",
    "TRT01PN": 2,
    "TRT01A": "Xanomeline High Dose",
    "TRT01AN": 2,
    "AGE": 68,
    "AGEGR1": "65-80",
    "AGEGR1N": 2,
    "SEX": "M",
    "SEXN": 1,
    "RACE": "WHITE",
    "ETHNIC": "NOT HISPANIC OR LATINO",
    "COUNTRY": "USA",
    "MMSETOT": 15,
    "MMSEGRP": "Moderate (15-19)",
    "MMSEGRPN": 2,
    "DISDUR": 85,
    "EDUCYR": 13,
    "RANDDT": "2013-09-06",
    "TRTSDT": "2013-09-06",
    "TRTEDT": "2014-01-09",
    "TRTDURD": 126,
    "CUMDOSE": 10128.3,
    "COMPLFL": "N",
    "DCTREAS": "ADVERSE EVENT",
    "EOSSTT": "DISCONTINUED",
    "DCSREAS": "ADVERSE EVENT",
    "SAFFL": "Y",
    "ITTFL": "Y",
    "EFFFL": "Y"
  },
  {
    "STUDYID": "CDISCPILOT01",
    "USUBJID": "01-704-024",
    "SUBJID": 24,
    "SITEID": 704,
    "TRT01P": "Placebo",
    "TRT01PN": 0,
    "TRT01A": "Placebo",
    "TRT01AN": 0,
    "AGE": 74,
    "AGEGR1": "65-80",
    "AGEGR1N": 2,
    "SEX": "F",
    "SEXN": 2,
    "RACE": "BLACK OR AFRICAN AMERICAN",
    "ETHNIC": "HISPANIC OR LATINO",
    "COUNTRY": "USA",
    "MMSETOT": 16,
    "MMSEGRP": "Moderate (15-19)",
    "MMSEGRPN": 2,
    "DISDUR": 45.4,
    "EDUCYR": 13,
    "RANDDT": "2013-08-18",
    "TRTSDT": "2013-08-18",
    "TRTEDT": "2014-02-01",
    "TRTDURD": 168,
    "CUMDOSE": 0,
    "COMPLFL": "Y",
    "DCTREAS": "COMPLETED",
    "EOSSTT": "COMPLETED",
    "DCSREAS": "COMPLETED",
    "SAFFL": "Y",
    "ITTFL": "Y",
    "EFFFL": "Y"
  },
  {
    "STUDYID": "CDISCPILOT01",
    "USUBJID": "01-704-025",
    "SUBJID": 25,
    "SITEID": 704,
    "TRT01P": "Placebo",
    "TRT01PN": 0,
    "TRT01A": "Placebo",
    "TRT01AN": 0,
    "AGE": 77,
    "AGEGR1": "65-80",
    "AGEGR1N": 2,
    "SEX": "F",
    "SEXN": 2,
    "RACE": "WHITE",
    "ETHNIC": "NOT HISPANIC OR LATINO",
    "COUNTRY": "USA",
    "MMSETOT": 20,
    "MMSEGRP": "Mild (20-24)",
    "MMSEGRPN": 3,
    "DISDUR": 45.1,
    "EDUCYR": 15,
    "RANDDT": "2013-04-05",
    "TRTSDT": "2013-04-05",
    "TRTEDT": "2013-09-19",
    "TRTDURD": 168,
    "CUMDOSE": 0,
    "COMPLFL": "Y",
    "DCTREAS": "COMPLETED",
    "EOSSTT": "COMPLETED",
    "DCSREAS": "COMPLETED",
    "SAFFL": "Y",
    "ITTFL": "Y",
    "EFFFL": "Y"
  },
  {
    "STUDYID": "CDISCPILOT01",
    "USUBJID": "01-705-001",
    "SUBJID": 1,
    "SITEID": 705,
    "TRT01P": "Xanomeline High Dose",
    "TRT01PN": 2,
    "TRT01A": "Xanomeline High Dose",
    "TRT01AN": 2,
    "AGE": 62,
    "AGEGR1": "<65",
    "AGEGR1N": 1,
    "SEX": "M",
    "SEXN": 1,
    "RACE": "WHITE",
    "ETHNIC": "NOT HISPANIC OR LATINO",
    "COUNTRY": "USA",
    "MMSETOT": 15,
    "MMSEGRP": "Moderate (15-19)",
    "MMSEGRPN": 2,
    "DISDUR": 81.1,
    "EDUCYR": 12,
    "RANDDT": "2013-08-02",
    "TRTSDT": "2013-08-02",
    "TRTEDT": "2013-11-14",
    "TRTDURD": 105,
    "CUMDOSE": 8390.2,
    "COMPLFL": "N",
    "DCTREAS": "PROTOCOL VIOLATION",
    "EOSSTT": "DISCONTINUED",
    "DCSREAS": "PROTOCOL VIOLATION",
    "SAFFL": "Y",
    "ITTFL": "Y",
    "EFFFL": "Y"
  },
  {
    "STUDYID": "CDISCPILOT01",
    "USUBJID": "01-705-002",
    "SUBJID": 2,
    "SITEID": 705,
    "TRT01P": "Xanomeline High Dose",
    "TRT01PN": 2,
    "TRT01A": "Xanomeline High Dose",
    "TRT01AN": 2,
    "AGE": 68,
    "AGEGR1": "65-80",
    "AGEGR1N": 2,
    "SEX": "M",
    "SEXN": 1,
    "RACE": "WHITE",
    "ETHNIC": "NOT HISPANIC OR LATINO",
    "COUNTRY": "USA",
    "MMSETOT": 23,
    "MMSEGRP": "Mild (20-24)",
    "MMSEGRPN": 3,
    "DISDUR": 32.3,
    "EDUCYR": 16,
    "RANDDT": "2013-08-15",
    "TRTSDT": "2013-08-15",
    "TRTEDT": "2013-09-25",
    "TRTDURD": 42,
    "CUMDOSE": 3318.2,
    "COMPLFL": "N",
    "DCTREAS": "WITHDREW CONSENT",
    "EOSSTT": "DISCONTINUED",
    "DCSREAS": "WITHDREW CONSENT",
    "SAFFL": "Y",
    "ITTFL": "Y",
    "EFFFL": "Y"
  },
  {
    "STUDYID": "CDISCPILOT01",
    "USUBJID": "01-705-003",
    "SUBJID": 3,
    "SITEID": 705,
    "TRT01P": "Xanomeline High Dose",
    "TRT01PN": 2,
    "TRT01A": "Xanomeline High Dose",
    "TRT01AN": 2,
    "AGE": 82,
    "AGEGR1": ">80",
    "AGEGR1N": 3,
    "SEX": "M",
    "SEXN": 1,
    "RACE": "WHITE",
    "ETHNIC": "NOT HISPANIC OR LATINO",
    "COUNTRY": "USA",
    "MMSETOT": 24,
    "MMSEGRP": "Mild (20-24)",
    "MMSEGRPN": 3,
    "DISDUR": 65.3,
    "EDUCYR": 12,
    "RANDDT": "2013-12-28",
    "TRTSDT": "2013-12-28",
    "TRTEDT": "2014-06-13",
    "TRTDURD": 168,
    "CUMDOSE": 13464.9,
    "COMPLFL": "Y",
    "DCTREAS": "COMPLETED",
    "EOSSTT": "COMPLETED",
    "DCSREAS": "COMPLETED",
    "SAFFL": "Y",
    "ITTFL": "Y",
    "EFFFL": "Y"
  },
  {
    "STUDYID": "CDISCPILOT01",
    "USUBJID": "01-705-004",
    "SUBJID": 4,
    "SITEID": 705,
    "TRT01P": "Xanomeline High Dose",
    "TRT01PN": 2,
    "TRT01A": "Xanomeline High Dose",
    "TRT01AN": 2,
    "AGE": 76,
    "AGEGR1": "65-80",
    "AGEGR1N": 2,
    "SEX": "F",
    "SEXN": 2,
    "RACE": "HISPANIC OR LATINO",
    "ETHNIC": "NOT HISPANIC OR LATINO",
    "COUNTRY": "USA",
    "MMSETOT": 23,
    "MMSEGRP": "Mild (20-24)",
    "MMSEGRPN": 3,
    "DISDUR": 28.5,
    "EDUCYR": 12,
    "RANDDT": "2013-09-08",
    "TRTSDT": "2013-09-08",
    "TRTEDT": "2014-02-22",
    "TRTDURD": 168,
    "CUMDOSE": 13589.2,
    "COMPLFL": "Y",
    "DCTREAS": "COMPLETED",
    "EOSSTT": "COMPLETED",
    "DCSREAS": "COMPLETED",
    "SAFFL": "Y",
    "ITTFL": "Y",
    "EFFFL": "Y"
  },
  {
    "STUDYID": "CDISCPILOT01",
    "USUBJID": "01-705-005",
    "SUBJID": 5,
    "SITEID": 705,
    "TRT01P": "Xanomeline Low Dose",
    "TRT01PN": 1,
    "TRT01A": "Xanomeline Low Dose",
    "TRT01AN": 1,
    "AGE": 68,
    "AGEGR1": "65-80",
    "AGEGR1N": 2,
    "SEX": "M",
    "SEXN": 1,
    "RACE": "WHITE",
    "ETHNIC": "NOT HISPANIC OR LATINO",
    "COUNTRY": "USA",
    "MMSETOT": 13,
    "MMSEGRP": "Severe (0-14)",
    "MMSEGRPN": 1,
    "DISDUR": 74.1,
    "EDUCYR": 8,
    "RANDDT": "2013-05-27",
    "TRTSDT": "2013-05-27",
    "TRTEDT": "2013-06-16",
    "TRTDURD": 21,
    "CUMDOSE": 1102,
    "COMPLFL": "N",
    "DCTREAS": "ADVERSE EVENT",
    "EOSSTT": "DISCONTINUED",
    "DCSREAS": "ADVERSE EVENT",
    "SAFFL": "Y",
    "ITTFL": "Y",
    "EFFFL": "Y"
  },
  {
    "STUDYID": "CDISCPILOT01",
    "USUBJID": "01-705-006",
    "SUBJID": 6,
    "SITEID": 705,
    "TRT01P": "Xanomeline Low Dose",
    "TRT01PN": 1,
    "TRT01A": "Xanomeline Low Dose",
    "TRT01AN": 1,
    "AGE": 61,
    "AGEGR1": "<65",
    "AGEGR1N": 1,
    "SEX": "F",
    "SEXN": 2,
    "RACE": "BLACK OR AFRICAN AMERICAN",
    "ETHNIC": "HISPANIC OR LATINO",
    "COUNTRY": "USA",
    "MMSETOT": 15,
    "MMSEGRP": "Moderate (15-19)",
    "MMSEGRPN": 2,
    "DISDUR": 97.2,
    "EDUCYR": 19,
    "RANDDT": "2013-12-13",
    "TRTSDT": "2013-12-13",
    "TRTEDT": "2014-03-06",
    "TRTDURD": 84,
    "CUMDOSE": 4318.4,
    "COMPLFL": "N",
    "DCTREAS": "ADVERSE EVENT",
    "EOSSTT": "DISCONTINUED",
    "DCSREAS": "ADVERSE EVENT",
    "SAFFL": "Y",
    "ITTFL": "Y",
    "EFFFL": "Y"
  },
  {
    "STUDYID": "CDISCPILOT01",
    "USUBJID": "01-705-007",
    "SUBJID": 7,
    "SITEID": 705,
    "TRT01P": "Xanomeline Low Dose",
    "TRT01PN": 1,
    "TRT01A": "Xanomeline Low Dose",
    "TRT01AN": 1,
    "AGE": 72,
    "AGEGR1": "65-80",
    "AGEGR1N": 2,
    "SEX": "M",
    "SEXN": 1,
    "RACE": "BLACK OR AFRICAN AMERICAN",
    "ETHNIC": "NOT HISPANIC OR LATINO",
    "COUNTRY": "USA",
    "MMSETOT": 14,
    "MMSEGRP": "Severe (0-14)",
    "MMSEGRPN": 1,
    "DISDUR": 57.6,
    "EDUCYR": 4,
    "RANDDT": "2013-10-04",
    "TRTSDT": "2013-10-04",
    "TRTEDT": "2013-12-19",
    "TRTDURD": 77,
    "CUMDOSE": 3993.8,
    "COMPLFL": "N",
    "DCTREAS": "ADVERSE EVENT",
    "EOSSTT": "DISCONTINUED",
    "DCSREAS": "ADVERSE EVENT",
    "SAFFL": "Y",
    "ITTFL": "Y",
    "EFFFL": "Y"
  },
  {
    "STUDYID": "CDISCPILOT01",
    "USUBJID": "01-705-008",
    "SUBJID": 8,
    "SITEID": 705,
    "TRT01P": "Placebo",
    "TRT01PN": 0,
    "TRT01A": "Placebo",
    "TRT01AN": 0,
    "AGE": 82,
    "AGEGR1": ">80",
    "AGEGR1N": 3,
    "SEX": "F",
    "SEXN": 2,
    "RACE": "WHITE",
    "ETHNIC": "NOT HISPANIC OR LATINO",
    "COUNTRY": "USA",
    "MMSETOT": 18,
    "MMSEGRP": "Moderate (15-19)",
    "MMSEGRPN": 2,
    "DISDUR": 61.7,
    "EDUCYR": 15,
    "RANDDT": "2013-05-16",
    "TRTSDT": "2013-05-16",
    "TRTEDT": "2013-10-30",
    "TRTDURD": 168,
    "CUMDOSE": 0,
    "COMPLFL": "Y",
    "DCTREAS": "COMPLETED",
    "EOSSTT": "COMPLETED",
    "DCSREAS": "COMPLETED",
    "SAFFL": "Y",
    "ITTFL": "Y",
    "EFFFL": "Y"
  },
  {
    "STUDYID": "CDISCPILOT01",
    "USUBJID": "01-705-009",
    "SUBJID": 9,
    "SITEID": 705,
    "TRT01P": "Placebo",
    "TRT01PN": 0,
    "TRT01A": "Placebo",
    "TRT01AN": 0,
    "AGE": 84,
    "AGEGR1": ">80",
    "AGEGR1N": 3,
    "SEX": "F",
    "SEXN": 2,
    "RACE": "BLACK OR AFRICAN AMERICAN",
    "ETHNIC": "NOT HISPANIC OR LATINO",
    "COUNTRY": "USA",
    "MMSETOT": 21,
    "MMSEGRP": "Mild (20-24)",
    "MMSEGRPN": 3,
    "DISDUR": 39.6,
    "EDUCYR": 6,
    "RANDDT": "2013-09-07",
    "TRTSDT": "2013-09-07",
    "TRTEDT": "2014-02-21",
    "TRTDURD": 168,
    "CUMDOSE": 0,
    "COMPLFL": "Y",
    "DCTREAS": "COMPLETED",
    "EOSSTT": "COMPLETED",
    "DCSREAS": "COMPLETED",
    "SAFFL": "Y",
    "ITTFL": "Y",
    "EFFFL": "Y"
  },
  {
    "STUDYID": "CDISCPILOT01",
    "USUBJID": "01-705-010",
    "SUBJID": 10,
    "SITEID": 705,
    "TRT01P": "Placebo",
    "TRT01PN": 0,
    "TRT01A": "Placebo",
    "TRT01AN": 0,
    "AGE": 86,
    "AGEGR1": ">80",
    "AGEGR1N": 3,
    "SEX": "F",
    "SEXN": 2,
    "RACE": "WHITE",
    "ETHNIC": "NOT HISPANIC OR LATINO",
    "COUNTRY": "USA",
    "MMSETOT": 21,
    "MMSEGRP": "Mild (20-24)",
    "MMSEGRPN": 3,
    "DISDUR": 11.8,
    "EDUCYR": 18,
    "RANDDT": "2013-08-02",
    "TRTSDT": "2013-08-02",
    "TRTEDT": "2014-01-16",
    "TRTDURD": 168,
    "CUMDOSE": 0,
    "COMPLFL": "Y",
    "DCTREAS": "COMPLETED",
    "EOSSTT": "COMPLETED",
    "DCSREAS": "COMPLETED",
    "SAFFL": "Y",
    "ITTFL": "Y",
    "EFFFL": "Y"
  },
  {
    "STUDYID": "CDISCPILOT01",
    "USUBJID": "01-705-011",
    "SUBJID": 11,
    "SITEID": 705,
    "TRT01P": "Placebo",
    "TRT01PN": 0,
    "TRT01A": "Placebo",
    "TRT01AN": 0,
    "AGE": 73,
    "AGEGR1": "65-80",
    "AGEGR1N": 2,
    "SEX": "M",
    "SEXN": 1,
    "RACE": "BLACK OR AFRICAN AMERICAN",
    "ETHNIC": "NOT HISPANIC OR LATINO",
    "COUNTRY": "USA",
    "MMSETOT": 19,
    "MMSEGRP": "Moderate (15-19)",
    "MMSEGRPN": 2,
    "DISDUR": 17.9,
    "EDUCYR": 20,
    "RANDDT": "2013-08-26",
    "TRTSDT": "2013-08-26",
    "TRTEDT": "2013-10-13",
    "TRTDURD": 49,
    "CUMDOSE": 0,
    "COMPLFL": "N",
    "DCTREAS": "PHYSICIAN DECISION",
    "EOSSTT": "DISCONTINUED",
    "DCSREAS": "PHYSICIAN DECISION",
    "SAFFL": "Y",
    "ITTFL": "Y",
    "EFFFL": "Y"
  },
  {
    "STUDYID": "CDISCPILOT01",
    "USUBJID": "01-705-012",
    "SUBJID": 12,
    "SITEID": 705,
    "TRT01P": "Placebo",
    "TRT01PN": 0,
    "TRT01A": "Placebo",
    "TRT01AN": 0,
    "AGE": 80,
    "AGEGR1": ">80",
    "AGEGR1N": 3,
    "SEX": "M",
    "SEXN": 1,
    "RACE": "WHITE",
    "ETHNIC": "NOT HISPANIC OR LATINO",
    "COUNTRY": "USA",
    "MMSETOT": 18,
    "MMSEGRP": "Moderate (15-19)",
    "MMSEGRPN": 2,
    "DISDUR": 72.1,
    "EDUCYR": 13,
    "RANDDT": "2013-08-27",
    "TRTSDT": "2013-08-27",
    "TRTEDT": "2014-02-10",
    "TRTDURD": 168,
    "CUMDOSE": 0,
    "COMPLFL": "Y",
    "DCTREAS": "COMPLETED",
    "EOSSTT": "COMPLETED",
    "DCSREAS": "COMPLETED",
    "SAFFL": "Y",
    "ITTFL": "Y",
    "EFFFL": "Y"
  },
  {
    "STUDYID": "CDISCPILOT01",
    "USUBJID": "01-705-013",
    "SUBJID": 13,
    "SITEID": 705,
    "TRT01P": "Placebo",
    "TRT01PN": 0,
    "TRT01A": "Placebo",
    "TRT01AN": 0,
    "AGE": 85,
    "AGEGR1": ">80",
    "AGEGR1N": 3,
    "SEX": "F",
    "SEXN": 2,
    "RACE": "WHITE",
    "ETHNIC": "NOT HISPANIC OR LATINO",
    "COUNTRY": "USA",
    "MMSETOT": 12,
    "MMSEGRP": "Severe (0-14)",
    "MMSEGRPN": 1,
    "DISDUR": 19.3,
    "EDUCYR": 20,
    "RANDDT": "2013-02-07",
    "TRTSDT": "2013-02-07",
    "TRTEDT": "2013-07-24",
    "TRTDURD": 168,
    "CUMDOSE": 0,
    "COMPLFL": "Y",
    "DCTREAS": "COMPLETED",
    "EOSSTT": "COMPLETED",
    "DCSREAS": "COMPLETED",
    "SAFFL": "Y",
    "ITTFL": "Y",
    "EFFFL": "Y"
  },
  {
    "STUDYID": "CDISCPILOT01",
    "USUBJID": "01-705-014",
    "SUBJID": 14,
    "SITEID": 705,
    "TRT01P": "Xanomeline High Dose",
    "TRT01PN": 2,
    "TRT01A": "Xanomeline High Dose",
    "TRT01AN": 2,
    "AGE": 77,
    "AGEGR1": "65-80",
    "AGEGR1N": 2,
    "SEX": "F",
    "SEXN": 2,
    "RACE": "WHITE",
    "ETHNIC": "NOT HISPANIC OR LATINO",
    "COUNTRY": "USA",
    "MMSETOT": 18,
    "MMSEGRP": "Moderate (15-19)",
    "MMSEGRPN": 2,
    "DISDUR": 42.5,
    "EDUCYR": 11,
    "RANDDT": "2013-02-23",
    "TRTSDT": "2013-02-23",
    "TRTEDT": "2013-08-09",
    "TRTDURD": 168,
    "CUMDOSE": 13081.9,
    "COMPLFL": "Y",
    "DCTREAS": "COMPLETED",
    "EOSSTT": "COMPLETED",
    "DCSREAS": "COMPLETED",
    "SAFFL": "Y",
    "ITTFL": "Y",
    "EFFFL": "Y"
  },
  {
    "STUDYID": "CDISCPILOT01",
    "USUBJID": "01-706-001",
    "SUBJID": 1,
    "SITEID": 706,
    "TRT01P": "Xanomeline High Dose",
    "TRT01PN": 2,
    "TRT01A": "Xanomeline High Dose",
    "TRT01AN": 2,
    "AGE": 80,
    "AGEGR1": ">80",
    "AGEGR1N": 3,
    "SEX": "M",
    "SEXN": 1,
    "RACE": "WHITE",
    "ETHNIC": "NOT HISPANIC OR LATINO",
    "COUNTRY": "USA",
    "MMSETOT": 23,
    "MMSEGRP": "Mild (20-24)",
    "MMSEGRPN": 3,
    "DISDUR": 73,
    "EDUCYR": 16,
    "RANDDT": "2013-01-31",
    "TRTSDT": "2013-01-31",
    "TRTEDT": "2013-04-24",
    "TRTDURD": 84,
    "CUMDOSE": 6751.8,
    "COMPLFL": "N",
    "DCTREAS": "ADVERSE EVENT",
    "EOSSTT": "DISCONTINUED",
    "DCSREAS": "ADVERSE EVENT",
    "SAFFL": "Y",
    "ITTFL": "Y",
    "EFFFL": "Y"
  },
  {
    "STUDYID": "CDISCPILOT01",
    "USUBJID": "01-706-002",
    "SUBJID": 2,
    "SITEID": 706,
    "TRT01P": "Placebo",
    "TRT01PN": 0,
    "TRT01A": "Placebo",
    "TRT01AN": 0,
    "AGE": 63,
    "AGEGR1": "<65",
    "AGEGR1N": 1,
    "SEX": "F",
    "SEXN": 2,
    "RACE": "WHITE",
    "ETHNIC": "NOT HISPANIC OR LATINO",
    "COUNTRY": "USA",
    "MMSETOT": 18,
    "MMSEGRP": "Moderate (15-19)",
    "MMSEGRPN": 2,
    "DISDUR": 13.4,
    "EDUCYR": 14,
    "RANDDT": "2013-02-15",
    "TRTSDT": "2013-02-15",
    "TRTEDT": "2013-08-01",
    "TRTDURD": 168,
    "CUMDOSE": 0,
    "COMPLFL": "Y",
    "DCTREAS": "COMPLETED",
    "EOSSTT": "COMPLETED",
    "DCSREAS": "COMPLETED",
    "SAFFL": "Y",
    "ITTFL": "Y",
    "EFFFL": "Y"
  },
  {
    "STUDYID": "CDISCPILOT01",
    "USUBJID": "01-706-003",
    "SUBJID": 3,
    "SITEID": 706,
    "TRT01P": "Xanomeline Low Dose",
    "TRT01PN": 1,
    "TRT01A": "Xanomeline Low Dose",
    "TRT01AN": 1,
    "AGE": 69,
    "AGEGR1": "65-80",
    "AGEGR1N": 2,
    "SEX": "M",
    "SEXN": 1,
    "RACE": "WHITE",
    "ETHNIC": "NOT HISPANIC OR LATINO",
    "COUNTRY": "USA",
    "MMSETOT": 23,
    "MMSEGRP": "Mild (20-24)",
    "MMSEGRPN": 3,
    "DISDUR": 71.7,
    "EDUCYR": 8,
    "RANDDT": "2013-03-10",
    "TRTSDT": "2013-03-10",
    "TRTEDT": "2013-06-08",
    "TRTDURD": 91,
    "CUMDOSE": 4729.7,
    "COMPLFL": "N",
    "DCTREAS": "ADVERSE EVENT",
    "EOSSTT": "DISCONTINUED",
    "DCSREAS": "ADVERSE EVENT",
    "SAFFL": "Y",
    "ITTFL": "Y",
    "EFFFL": "Y"
  },
  {
    "STUDYID": "CDISCPILOT01",
    "USUBJID": "01-707-001",
    "SUBJID": 1,
    "SITEID": 707,
    "TRT01P": "Xanomeline Low Dose",
    "TRT01PN": 1,
    "TRT01A": "Xanomeline Low Dose",
    "TRT01AN": 1,
    "AGE": 87,
    "AGEGR1": ">80",
    "AGEGR1N": 3,
    "SEX": "F",
    "SEXN": 2,
    "RACE": "WHITE",
    "ETHNIC": "NOT HISPANIC OR LATINO",
    "COUNTRY": "USA",
    "MMSETOT": 17,
    "MMSEGRP": "Moderate (15-19)",
    "MMSEGRPN": 2,
    "DISDUR": 37.4,
    "EDUCYR": 21,
    "RANDDT": "2013-02-11",
    "TRTSDT": "2013-02-11",
    "TRTEDT": "2013-04-28",
    "TRTDURD": 77,
    "CUMDOSE": 4058.7,
    "COMPLFL": "N",
    "DCTREAS": "ADVERSE EVENT",
    "EOSSTT": "DISCONTINUED",
    "DCSREAS": "ADVERSE EVENT",
    "SAFFL": "Y",
    "ITTFL": "Y",
    "EFFFL": "Y"
  },
  {
    "STUDYID": "CDISCPILOT01",
    "USUBJID": "01-707-002",
    "SUBJID": 2,
    "SITEID": 707,
    "TRT01P": "Placebo",
    "TRT01PN": 0,
    "TRT01A": "Placebo",
    "TRT01AN": 0,
    "AGE": 83,
    "AGEGR1": ">80",
    "AGEGR1N": 3,
    "SEX": "M",
    "SEXN": 1,
    "RACE": "WHITE",
    "ETHNIC": "NOT HISPANIC OR LATINO",
    "COUNTRY": "USA",
    "MMSETOT": 24,
    "MMSEGRP": "Mild (20-24)",
    "MMSEGRPN": 3,
    "DISDUR": 2,
    "EDUCYR": 7,
    "RANDDT": "2013-08-22",
    "TRTSDT": "2013-08-22",
    "TRTEDT": "2014-02-05",
    "TRTDURD": 168,
    "CUMDOSE": 0,
    "COMPLFL": "Y",
    "DCTREAS": "COMPLETED",
    "EOSSTT": "COMPLETED",
    "DCSREAS": "COMPLETED",
    "SAFFL": "Y",
    "ITTFL": "Y",
    "EFFFL": "Y"
  },
  {
    "STUDYID": "CDISCPILOT01",
    "USUBJID": "01-707-003",
    "SUBJID": 3,
    "SITEID": 707,
    "TRT01P": "Placebo",
    "TRT01PN": 0,
    "TRT01A": "Placebo",
    "TRT01AN": 0,
    "AGE": 66,
    "AGEGR1": "65-80",
    "AGEGR1N": 2,
    "SEX": "F",
    "SEXN": 2,
    "RACE": "WHITE",
    "ETHNIC": "HISPANIC OR LATINO",
    "COUNTRY": "USA",
    "MMSETOT": 23,
    "MMSEGRP": "Mild (20-24)",
    "MMSEGRPN": 3,
    "DISDUR": 33.8,
    "EDUCYR": 8,
    "RANDDT": "2013-12-10",
    "TRTSDT": "2013-12-10",
    "TRTEDT": "2014-05-26",
    "TRTDURD": 168,
    "CUMDOSE": 0,
    "COMPLFL": "Y",
    "DCTREAS": "COMPLETED",
    "EOSSTT": "COMPLETED",
    "DCSREAS": "COMPLETED",
    "SAFFL": "Y",
    "ITTFL": "Y",
    "EFFFL": "Y"
  },
  {
    "STUDYID": "CDISCPILOT01",
    "USUBJID": "01-708-001",
    "SUBJID": 1,
    "SITEID": 708,
    "TRT01P": "Placebo",
    "TRT01PN": 0,
    "TRT01A": "Placebo",
    "TRT01AN": 0,
    "AGE": 87,
    "AGEGR1": ">80",
    "AGEGR1N": 3,
    "SEX": "F",
    "SEXN": 2,
    "RACE": "WHITE",
    "ETHNIC": "NOT HISPANIC OR LATINO",
    "COUNTRY": "USA",
    "MMSETOT": 19,
    "MMSEGRP": "Moderate (15-19)",
    "MMSEGRPN": 2,
    "DISDUR": 77.6,
    "EDUCYR": 19,
    "RANDDT": "2013-11-10",
    "TRTSDT": "2013-11-10",
    "TRTEDT": "2014-02-08",
    "TRTDURD": 91,
    "CUMDOSE": 0,
    "COMPLFL": "N",
    "DCTREAS": "ADVERSE EVENT",
    "EOSSTT": "DISCONTINUED",
    "DCSREAS": "ADVERSE EVENT",
    "SAFFL": "Y",
    "ITTFL": "Y",
    "EFFFL": "Y"
  },
  {
    "STUDYID": "CDISCPILOT01",
    "USUBJID": "01-708-002",
    "SUBJID": 2,
    "SITEID": 708,
    "TRT01P": "Xanomeline Low Dose",
    "TRT01PN": 1,
    "TRT01A": "Xanomeline Low Dose",
    "TRT01AN": 1,
    "AGE": 83,
    "AGEGR1": ">80",
    "AGEGR1N": 3,
    "SEX": "M",
    "SEXN": 1,
    "RACE": "WHITE",
    "ETHNIC": "NOT HISPANIC OR LATINO",
    "COUNTRY": "USA",
    "MMSETOT": 24,
    "MMSEGRP": "Mild (20-24)",
    "MMSEGRPN": 3,
    "DISDUR": 8.7,
    "EDUCYR": 11,
    "RANDDT": "2013-08-27",
    "TRTSDT": "2013-08-27",
    "TRTEDT": "2013-09-02",
    "TRTDURD": 7,
    "CUMDOSE": 372.3,
    "COMPLFL": "N",
    "DCTREAS": "ADVERSE EVENT",
    "EOSSTT": "DISCONTINUED",
    "DCSREAS": "ADVERSE EVENT",
    "SAFFL": "Y",
    "ITTFL": "Y",
    "EFFFL": "Y"
  },
  {
    "STUDYID": "CDISCPILOT01",
    "USUBJID": "01-708-003",
    "SUBJID": 3,
    "SITEID": 708,
    "TRT01P": "Xanomeline High Dose",
    "TRT01PN": 2,
    "TRT01A": "Xanomeline High Dose",
    "TRT01AN": 2,
    "AGE": 67,
    "AGEGR1": "65-80",
    "AGEGR1N": 2,
    "SEX": "M",
    "SEXN": 1,
    "RACE": "WHITE",
    "ETHNIC": "NOT HISPANIC OR LATINO",
    "COUNTRY": "USA",
    "MMSETOT": 15,
    "MMSEGRP": "Moderate (15-19)",
    "MMSEGRPN": 2,
    "DISDUR": 55.4,
    "EDUCYR": 12,
    "RANDDT": "2013-10-28",
    "TRTSDT": "2013-10-28",
    "TRTEDT": "2014-04-13",
    "TRTDURD": 168,
    "CUMDOSE": 13231.3,
    "COMPLFL": "Y",
    "DCTREAS": "COMPLETED",
    "EOSSTT": "COMPLETED",
    "DCSREAS": "COMPLETED",
    "SAFFL": "Y",
    "ITTFL": "Y",
    "EFFFL": "Y"
  },
  {
    "STUDYID": "CDISCPILOT01",
    "USUBJID": "01-708-004",
    "SUBJID": 4,
    "SITEID": 708,
    "TRT01P": "Xanomeline Low Dose",
    "TRT01PN": 1,
    "TRT01A": "Xanomeline Low Dose",
    "TRT01AN": 1,
    "AGE": 80,
    "AGEGR1": ">80",
    "AGEGR1N": 3,
    "SEX": "F",
    "SEXN": 2,
    "RACE": "WHITE",
    "ETHNIC": "NOT HISPANIC OR LATINO",
    "COUNTRY": "USA",
    "MMSETOT": 19,
    "MMSEGRP": "Moderate (15-19)",
    "MMSEGRPN": 2,
    "DISDUR": 2,
    "EDUCYR": 16,
    "RANDDT": "2013-01-04",
    "TRTSDT": "2013-01-04",
    "TRTEDT": "2013-01-24",
    "TRTDURD": 21,
    "CUMDOSE": 1120.8,
    "COMPLFL": "N",
    "DCTREAS": "ADVERSE EVENT",
    "EOSSTT": "DISCONTINUED",
    "DCSREAS": "ADVERSE EVENT",
    "SAFFL": "Y",
    "ITTFL": "Y",
    "EFFFL": "Y"
  },
  {
    "STUDYID": "CDISCPILOT01",
    "USUBJID": "01-708-005",
    "SUBJID": 5,
    "SITEID": 708,
    "TRT01P": "Xanomeline Low Dose",
    "TRT01PN": 1,
    "TRT01A": "Xanomeline Low Dose",
    "TRT01AN": 1,
    "AGE": 63,
    "AGEGR1": "<65",
    "AGEGR1N": 1,
    "SEX": "F",
    "SEXN": 2,
    "RACE": "WHITE",
    "ETHNIC": "NOT HISPANIC OR LATINO",
    "COUNTRY": "USA",
    "MMSETOT": 14,
    "MMSEGRP": "Severe (0-14)",
    "MMSEGRPN": 1,
    "DISDUR": 29.4,
    "EDUCYR": 11,
    "RANDDT": "2013-02-03",
    "TRTSDT": "2013-02-03",
    "TRTEDT": "2013-03-02",
    "TRTDURD": 28,
    "CUMDOSE": 1492.5,
    "COMPLFL": "N",
    "DCTREAS": "ADVERSE EVENT",
    "EOSSTT": "DISCONTINUED",
    "DCSREAS": "ADVERSE EVENT",
    "SAFFL": "Y",
    "ITTFL": "Y",
    "EFFFL": "Y"
  },
  {
    "STUDYID": "CDISCPILOT01",
    "USUBJID": "01-708-006",
    "SUBJID": 6,
    "SITEID": 708,
    "TRT01P": "Xanomeline Low Dose",
    "TRT01PN": 1,
    "TRT01A": "Xanomeline Low Dose",
    "TRT01AN": 1,
    "AGE": 70,
    "AGEGR1": "65-80",
    "AGEGR1N": 2,
    "SEX": "F",
    "SEXN": 2,
    "RACE": "WHITE",
    "ETHNIC": "NOT HISPANIC OR LATINO",
    "COUNTRY": "USA",
    "MMSETOT": 23,
    "MMSEGRP": "Mild (20-24)",
    "MMSEGRPN": 3,
    "DISDUR": 41.4,
    "EDUCYR": 13,
    "RANDDT": "2013-10-06",
    "TRTSDT": "2013-10-06",
    "TRTEDT": "2014-03-22",
    "TRTDURD": 168,
    "CUMDOSE": 8882.5,
    "COMPLFL": "Y",
    "DCTREAS": "COMPLETED",
    "EOSSTT": "COMPLETED",
    "DCSREAS": "COMPLETED",
    "SAFFL": "Y",
    "ITTFL": "Y",
    "EFFFL": "Y"
  },
  {
    "STUDYID": "CDISCPILOT01",
    "USUBJID": "01-708-007",
    "SUBJID": 7,
    "SITEID": 708,
    "TRT01P": "Xanomeline High Dose",
    "TRT01PN": 2,
    "TRT01A": "Xanomeline High Dose",
    "TRT01AN": 2,
    "AGE": 83,
    "AGEGR1": ">80",
    "AGEGR1N": 3,
    "SEX": "F",
    "SEXN": 2,
    "RACE": "WHITE",
    "ETHNIC": "NOT HISPANIC OR LATINO",
    "COUNTRY": "USA",
    "MMSETOT": 21,
    "MMSEGRP": "Mild (20-24)",
    "MMSEGRPN": 3,
    "DISDUR": 80.2,
    "EDUCYR": 17,
    "RANDDT": "2013-05-19",
    "TRTSDT": "2013-05-19",
    "TRTEDT": "2013-11-02",
    "TRTDURD": 168,
    "CUMDOSE": 13349.9,
    "COMPLFL": "Y",
    "DCTREAS": "COMPLETED",
    "EOSSTT": "COMPLETED",
    "DCSREAS": "COMPLETED",
    "SAFFL": "Y",
    "ITTFL": "Y",
    "EFFFL": "Y"
  },
  {
    "STUDYID": "CDISCPILOT01",
    "USUBJID": "01-708-008",
    "SUBJID": 8,
    "SITEID": 708,
    "TRT01P": "Xanomeline High Dose",
    "TRT01PN": 2,
    "TRT01A": "Xanomeline High Dose",
    "TRT01AN": 2,
    "AGE": 68,
    "AGEGR1": "65-80",
    "AGEGR1N": 2,
    "SEX": "F",
    "SEXN": 2,
    "RACE": "WHITE",
    "ETHNIC": "NOT HISPANIC OR LATINO",
    "COUNTRY": "USA",
    "MMSETOT": 19,
    "MMSEGRP": "Moderate (15-19)",
    "MMSEGRPN": 2,
    "DISDUR": 46.8,
    "EDUCYR": 20,
    "RANDDT": "2013-07-03",
    "TRTSDT": "2013-07-03",
    "TRTEDT": "2013-12-17",
    "TRTDURD": 168,
    "CUMDOSE": 13526.4,
    "COMPLFL": "N",
    "DCTREAS": "ADVERSE EVENT",
    "EOSSTT": "DISCONTINUED",
    "DCSREAS": "ADVERSE EVENT",
    "SAFFL": "Y",
    "ITTFL": "Y",
    "EFFFL": "Y"
  },
  {
    "STUDYID": "CDISCPILOT01",
    "USUBJID": "01-708-009",
    "SUBJID": 9,
    "SITEID": 708,
    "TRT01P": "Xanomeline Low Dose",
    "TRT01PN": 1,
    "TRT01A": "Xanomeline Low Dose",
    "TRT01AN": 1,
    "AGE": 70,
    "AGEGR1": "65-80",
    "AGEGR1N": 2,
    "SEX": "F",
    "SEXN": 2,
    "RACE": "WHITE",
    "ETHNIC": "NOT HISPANIC OR LATINO",
    "COUNTRY": "USA",
    "MMSETOT": 15,
    "MMSEGRP": "Moderate (15-19)",
    "MMSEGRPN": 2,
    "DISDUR": 7.2,
    "EDUCYR": 18,
    "RANDDT": "2013-04-16",
    "TRTSDT": "2013-04-16",
    "TRTEDT": "2013-06-17",
    "TRTDURD": 63,
    "CUMDOSE": 3325.5,
    "COMPLFL": "N",
    "DCTREAS": "ADVERSE EVENT",
    "EOSSTT": "DISCONTINUED",
    "DCSREAS": "ADVERSE EVENT",
    "SAFFL": "Y",
    "ITTFL": "Y",
    "EFFFL": "Y"
  },
  {
    "STUDYID": "CDISCPILOT01",
    "USUBJID": "01-708-010",
    "SUBJID": 10,
    "SITEID": 708,
    "TRT01P": "Xanomeline Low Dose",
    "TRT01PN": 1,
    "TRT01A": "Xanomeline Low Dose",
    "TRT01AN": 1,
    "AGE": 68,
    "AGEGR1": "65-80",
    "AGEGR1N": 2,
    "SEX": "F",
    "SEXN": 2,
    "RACE": "WHITE",
    "ETHNIC": "NOT HISPANIC OR LATINO",
    "COUNTRY": "USA",
    "MMSETOT": 18,
    "MMSEGRP": "Moderate (15-19)",
    "MMSEGRPN": 2,
    "DISDUR": 24.4,
    "EDUCYR": 12,
    "RANDDT": "2013-07-05",
    "TRTSDT": "2013-07-05",
    "TRTEDT": "2013-08-29",
    "TRTDURD": 56,
    "CUMDOSE": 2984.4,
    "COMPLFL": "N",
    "DCTREAS": "ADVERSE EVENT",
    "EOSSTT": "DISCONTINUED",
    "DCSREAS": "ADVERSE EVENT",
    "SAFFL": "Y",
    "ITTFL": "Y",
    "EFFFL": "Y"
  },
  {
    "STUDYID": "CDISCPILOT01",
    "USUBJID": "01-708-011",
    "SUBJID": 11,
    "SITEID": 708,
    "TRT01P": "Xanomeline Low Dose",
    "TRT01PN": 1,
    "TRT01A": "Xanomeline Low Dose",
    "TRT01AN": 1,
    "AGE": 63,
    "AGEGR1": "<65",
    "AGEGR1N": 1,
    "SEX": "F",
    "SEXN": 2,
    "RACE": "WHITE",
    "ETHNIC": "NOT HISPANIC OR LATINO",
    "COUNTRY": "USA",
    "MMSETOT": 19,
    "MMSEGRP": "Moderate (15-19)",
    "MMSEGRPN": 2,
    "DISDUR": 75.8,
    "EDUCYR": 12,
    "RANDDT": "2013-12-03",
    "TRTSDT": "2013-12-03",
    "TRTEDT": "2014-01-06",
    "TRTDURD": 35,
    "CUMDOSE": 1839.2,
    "COMPLFL": "N",
    "DCTREAS": "ADVERSE EVENT",
    "EOSSTT": "DISCONTINUED",
    "DCSREAS": "ADVERSE EVENT",
    "SAFFL": "Y",
    "ITTFL": "Y",
    "EFFFL": "Y"
  },
  {
    "STUDYID": "CDISCPILOT01",
    "USUBJID": "01-708-012",
    "SUBJID": 12,
    "SITEID": 708,
    "TRT01P": "Placebo",
    "TRT01PN": 0,
    "TRT01A": "Placebo",
    "TRT01AN": 0,
    "AGE": 89,
    "AGEGR1": ">80",
    "AGEGR1N": 3,
    "SEX": "F",
    "SEXN": 2,
    "RACE": "BLACK OR AFRICAN AMERICAN",
    "ETHNIC": "NOT HISPANIC OR LATINO",
    "COUNTRY": "USA",
    "MMSETOT": 12,
    "MMSEGRP": "Severe (0-14)",
    "MMSEGRPN": 1,
    "DISDUR": 31.7,
    "EDUCYR": 11,
    "RANDDT": "2013-06-08",
    "TRTSDT": "2013-06-08",
    "TRTEDT": "2013-11-22",
    "TRTDURD": 168,
    "CUMDOSE": 0,
    "COMPLFL": "Y",
    "DCTREAS": "COMPLETED",
    "EOSSTT": "COMPLETED",
    "DCSREAS": "COMPLETED",
    "SAFFL": "Y",
    "ITTFL": "Y",
    "EFFFL": "Y"
  },
  {
    "STUDYID": "CDISCPILOT01",
    "USUBJID": "01-708-013",
    "SUBJID": 13,
    "SITEID": 708,
    "TRT01P": "Xanomeline High Dose",
    "TRT01PN": 2,
    "TRT01A": "Xanomeline High Dose",
    "TRT01AN": 2,
    "AGE": 81,
    "AGEGR1": ">80",
    "AGEGR1N": 3,
    "SEX": "M",
    "SEXN": 1,
    "RACE": "BLACK OR AFRICAN AMERICAN",
    "ETHNIC": "NOT HISPANIC OR LATINO",
    "COUNTRY": "USA",
    "MMSETOT": 22,
    "MMSEGRP": "Mild (20-24)",
    "MMSEGRPN": 3,
    "DISDUR": 29.9,
    "EDUCYR": 12,
    "RANDDT": "2013-04-03",
    "TRTSDT": "2013-04-03",
    "TRTEDT": "2013-08-27",
    "TRTDURD": 147,
    "CUMDOSE": 11438.4,
    "COMPLFL": "N",
    "DCTREAS": "ADVERSE EVENT",
    "EOSSTT": "DISCONTINUED",
    "DCSREAS": "ADVERSE EVENT",
    "SAFFL": "Y",
    "ITTFL": "Y",
    "EFFFL": "Y"
  },
  {
    "STUDYID": "CDISCPILOT01",
    "USUBJID": "01-708-014",
    "SUBJID": 14,
    "SITEID": 708,
    "TRT01P": "Xanomeline Low Dose",
    "TRT01PN": 1,
    "TRT01A": "Xanomeline Low Dose",
    "TRT01AN": 1,
    "AGE": 76,
    "AGEGR1": "65-80",
    "AGEGR1N": 2,
    "SEX": "M",
    "SEXN": 1,
    "RACE": "HISPANIC OR LATINO",
    "ETHNIC": "NOT HISPANIC OR LATINO",
    "COUNTRY": "USA",
    "MMSETOT": 18,
    "MMSEGRP": "Moderate (15-19)",
    "MMSEGRPN": 2,
    "DISDUR": 15.9,
    "EDUCYR": 10,
    "RANDDT": "2013-07-09",
    "TRTSDT": "2013-07-09",
    "TRTEDT": "2013-08-05",
    "TRTDURD": 28,
    "CUMDOSE": 1493.5,
    "COMPLFL": "N",
    "DCTREAS": "ADVERSE EVENT",
    "EOSSTT": "DISCONTINUED",
    "DCSREAS": "ADVERSE EVENT",
    "SAFFL": "Y",
    "ITTFL": "Y",
    "EFFFL": "Y"
  },
  {
    "STUDYID": "CDISCPILOT01",
    "USUBJID": "01-708-015",
    "SUBJID": 15,
    "SITEID": 708,
    "TRT01P": "Placebo",
    "TRT01PN": 0,
    "TRT01A": "Placebo",
    "TRT01AN": 0,
    "AGE": 80,
    "AGEGR1": ">80",
    "AGEGR1N": 3,
    "SEX": "M",
    "SEXN": 1,
    "RACE": "WHITE",
    "ETHNIC": "NOT HISPANIC OR LATINO",
    "COUNTRY": "USA",
    "MMSETOT": 15,
    "MMSEGRP": "Moderate (15-19)",
    "MMSEGRPN": 2,
    "DISDUR": 52.3,
    "EDUCYR": 13,
    "RANDDT": "2013-10-05",
    "TRTSDT": "2013-10-05",
    "TRTEDT": "2014-03-21",
    "TRTDURD": 168,
    "CUMDOSE": 0,
    "COMPLFL": "Y",
    "DCTREAS": "COMPLETED",
    "EOSSTT": "COMPLETED",
    "DCSREAS": "COMPLETED",
    "SAFFL": "Y",
    "ITTFL": "Y",
    "EFFFL": "Y"
  },
  {
    "STUDYID": "CDISCPILOT01",
    "USUBJID": "01-708-016",
    "SUBJID": 16,
    "SITEID": 708,
    "TRT01P": "Xanomeline Low Dose",
    "TRT01PN": 1,
    "TRT01A": "Xanomeline Low Dose",
    "TRT01AN": 1,
    "AGE": 72,
    "AGEGR1": "65-80",
    "AGEGR1N": 2,
    "SEX": "F",
    "SEXN": 2,
    "RACE": "WHITE",
    "ETHNIC": "NOT HISPANIC OR LATINO",
    "COUNTRY": "USA",
    "MMSETOT": 19,
    "MMSEGRP": "Moderate (15-19)",
    "MMSEGRPN": 2,
    "DISDUR": 78.7,
    "EDUCYR": 7,
    "RANDDT": "2013-02-07",
    "TRTSDT": "2013-02-07",
    "TRTEDT": "2013-03-06",
    "TRTDURD": 28,
    "CUMDOSE": 1477.9,
    "COMPLFL": "N",
    "DCTREAS": "ADVERSE EVENT",
    "EOSSTT": "DISCONTINUED",
    "DCSREAS": "ADVERSE EVENT",
    "SAFFL": "Y",
    "ITTFL": "Y",
    "EFFFL": "Y"
  },
  {
    "STUDYID": "CDISCPILOT01",
    "USUBJID": "01-708-017",
    "SUBJID": 17,
    "SITEID": 708,
    "TRT01P": "Xanomeline High Dose",
    "TRT01PN": 2,
    "TRT01A": "Xanomeline High Dose",
    "TRT01AN": 2,
    "AGE": 65,
    "AGEGR1": "65-80",
    "AGEGR1N": 2,
    "SEX": "F",
    "SEXN": 2,
    "RACE": "WHITE",
    "ETHNIC": "NOT HISPANIC OR LATINO",
    "COUNTRY": "USA",
    "MMSETOT": 19,
    "MMSEGRP": "Moderate (15-19)",
    "MMSEGRPN": 2,
    "DISDUR": 39.7,
    "EDUCYR": 14,
    "RANDDT": "2013-10-10",
    "TRTSDT": "2013-10-10",
    "TRTEDT": "2013-12-18",
    "TRTDURD": 70,
    "CUMDOSE": 5519,
    "COMPLFL": "N",
    "DCTREAS": "ADVERSE EVENT",
    "EOSSTT": "DISCONTINUED",
    "DCSREAS": "ADVERSE EVENT",
    "SAFFL": "Y",
    "ITTFL": "Y",
    "EFFFL": "Y"
  },
  {
    "STUDYID": "CDISCPILOT01",
    "USUBJID": "01-708-018",
    "SUBJID": 18,
    "SITEID": 708,
    "TRT01P": "Xanomeline High Dose",
    "TRT01PN": 2,
    "TRT01A": "Xanomeline High Dose",
    "TRT01AN": 2,
    "AGE": 61,
    "AGEGR1": "<65",
    "AGEGR1N": 1,
    "SEX": "M",
    "SEXN": 1,
    "RACE": "HISPANIC OR LATINO",
    "ETHNIC": "NOT HISPANIC OR LATINO",
    "COUNTRY": "USA",
    "MMSETOT": 16,
    "MMSEGRP": "Moderate (15-19)",
    "MMSEGRPN": 2,
    "DISDUR": 61.2,
    "EDUCYR": 15,
    "RANDDT": "2013-09-19",
    "TRTSDT": "2013-09-19",
    "TRTEDT": "2013-10-02",
    "TRTDURD": 14,
    "CUMDOSE": 1129.1,
    "COMPLFL": "N",
    "DCTREAS": "WITHDREW CONSENT",
    "EOSSTT": "DISCONTINUED",
    "DCSREAS": "WITHDREW CONSENT",
    "SAFFL": "Y",
    "ITTFL": "Y",
    "EFFFL": "Y"
  },
  {
    "STUDYID": "CDISCPILOT01",
    "USUBJID": "01-708-019",
    "SUBJID": 19,
    "SITEID": 708,
    "TRT01P": "Xanomeline Low Dose",
    "TRT01PN": 1,
    "TRT01A": "Xanomeline Low Dose",
    "TRT01AN": 1,
    "AGE": 84,
    "AGEGR1": ">80",
    "AGEGR1N": 3,
    "SEX": "F",
    "SEXN": 2,
    "RACE": "WHITE",
    "ETHNIC": "NOT HISPANIC OR LATINO",
    "COUNTRY": "USA",
    "MMSETOT": 16,
    "MMSEGRP": "Moderate (15-19)",
    "MMSEGRPN": 2,
    "DISDUR": 21.2,
    "EDUCYR": 11,
    "RANDDT": "2013-08-30",
    "TRTSDT": "2013-08-30",
    "TRTEDT": "2014-02-13",
    "TRTDURD": 168,
    "CUMDOSE": 9033.7,
    "COMPLFL": "Y",
    "DCTREAS": "COMPLETED",
    "EOSSTT": "DISCONTINUED",
    "DCSREAS": "LOST TO FOLLOW-UP",
    "SAFFL": "Y",
    "ITTFL": "Y",
    "EFFFL": "Y"
  },
  {
    "STUDYID": "CDISCPILOT01",
    "USUBJID": "01-708-020",
    "SUBJID": 20,
    "SITEID": 708,
    "TRT01P": "Placebo",
    "TRT01PN": 0,
    "TRT01A": "Placebo",
    "TRT01AN": 0,
    "AGE": 73,
    "AGEGR1": "65-80",
    "AGEGR1N": 2,
    "SEX": "F",
    "SEXN": 2,
    "RACE": "WHITE",
    "ETHNIC": "NOT HISPANIC OR LATINO",
    "COUNTRY": "USA",
    "MMSETOT": 11,
    "MMSEGRP": "Severe (0-14)",
    "MMSEGRPN": 1,
    "DISDUR": 23.8,
    "EDUCYR": 11,
    "RANDDT": "2013-07-26",
    "TRTSDT": "2013-07-26",
    "TRTEDT": "2014-01-09",
    "TRTDURD": 168,
    "CUMDOSE": 0,
    "COMPLFL": "Y",
    "DCTREAS": "COMPLETED",
    "EOSSTT": "COMPLETED",
    "DCSREAS": "COMPLETED",
    "SAFFL": "Y",
    "ITTFL": "Y",
    "EFFFL": "Y"
  },
  {
    "STUDYID": "CDISCPILOT01",
    "USUBJID": "01-709-001",
    "SUBJID": 1,
    "SITEID": 709,
    "TRT01P": "Xanomeline High Dose",
    "TRT01PN": 2,
    "TRT01A": "Xanomeline High Dose",
    "TRT01AN": 2,
    "AGE": 89,
    "AGEGR1": ">80",
    "AGEGR1N": 3,
    "SEX": "M",
    "SEXN": 1,
    "RACE": "WHITE",
    "ETHNIC": "NOT HISPANIC OR LATINO",
    "COUNTRY": "USA",
    "MMSETOT": 18,
    "MMSEGRP": "Moderate (15-19)",
    "MMSEGRPN": 2,
    "DISDUR": 32.8,
    "EDUCYR": 15,
    "RANDDT": "2013-12-23",
    "TRTSDT": "2013-12-23",
    "TRTEDT": "2014-03-02",
    "TRTDURD": 70,
    "CUMDOSE": 5545.5,
    "COMPLFL": "N",
    "DCTREAS": "ADVERSE EVENT",
    "EOSSTT": "DISCONTINUED",
    "DCSREAS": "ADVERSE EVENT",
    "SAFFL": "Y",
    "ITTFL": "Y",
    "EFFFL": "Y"
  },
  {
    "STUDYID": "CDISCPILOT01",
    "USUBJID": "01-709-002",
    "SUBJID": 2,
    "SITEID": 709,
    "TRT01P": "Placebo",
    "TRT01PN": 0,
    "TRT01A": "Placebo",
    "TRT01AN": 0,
    "AGE": 84,
    "AGEGR1": ">80",
    "AGEGR1N": 3,
    "SEX": "M",
    "SEXN": 1,
    "RACE": "WHITE",
    "ETHNIC": "NOT HISPANIC OR LATINO",
    "COUNTRY": "USA",
    "MMSETOT": 15,
    "MMSEGRP": "Moderate (15-19)",
    "MMSEGRPN": 2,
    "DISDUR": 64,
    "EDUCYR": 16,
    "RANDDT": "2013-02-22",
    "TRTSDT": "2013-02-22",
    "TRTEDT": "2013-08-08",
    "TRTDURD": 168,
    "CUMDOSE": 0,
    "COMPLFL": "Y",
    "DCTREAS": "COMPLETED",
    "EOSSTT": "COMPLETED",
    "DCSREAS": "COMPLETED",
    "SAFFL": "Y",
    "ITTFL": "Y",
    "EFFFL": "Y"
  },
  {
    "STUDYID": "CDISCPILOT01",
    "USUBJID": "01-709-003",
    "SUBJID": 3,
    "SITEID": 709,
    "TRT01P": "Xanomeline High Dose",
    "TRT01PN": 2,
    "TRT01A": "Xanomeline High Dose",
    "TRT01AN": 2,
    "AGE": 69,
    "AGEGR1": "65-80",
    "AGEGR1N": 2,
    "SEX": "F",
    "SEXN": 2,
    "RACE": "WHITE",
    "ETHNIC": "NOT HISPANIC OR LATINO",
    "COUNTRY": "USA",
    "MMSETOT": 24,
    "MMSEGRP": "Mild (20-24)",
    "MMSEGRPN": 3,
    "DISDUR": 77.8,
    "EDUCYR": 19,
    "RANDDT": "2013-10-20",
    "TRTSDT": "2013-10-20",
    "TRTEDT": "2014-04-05",
    "TRTDURD": 168,
    "CUMDOSE": 13577.7,
    "COMPLFL": "Y",
    "DCTREAS": "COMPLETED",
    "EOSSTT": "COMPLETED",
    "DCSREAS": "COMPLETED",
    "SAFFL": "Y",
    "ITTFL": "Y",
    "EFFFL": "Y"
  },
  {
    "STUDYID": "CDISCPILOT01",
    "USUBJID": "01-709-004",
    "SUBJID": 4,
    "SITEID": 709,
    "TRT01P": "Xanomeline High Dose",
    "TRT01PN": 2,
    "TRT01A": "Xanomeline High Dose",
    "TRT01AN": 2,
    "AGE": 75,
    "AGEGR1": "65-80",
    "AGEGR1N": 2,
    "SEX": "F",
    "SEXN": 2,
    "RACE": "WHITE",
    "ETHNIC": "NOT HISPANIC OR LATINO",
    "COUNTRY": "USA",
    "MMSETOT": 11,
    "MMSEGRP": "Severe (0-14)",
    "MMSEGRPN": 1,
    "DISDUR": 59,
    "EDUCYR": 16,
    "RANDDT": "2013-10-14",
    "TRTSDT": "2013-10-14",
    "TRTEDT": "2014-03-30",
    "TRTDURD": 168,
    "CUMDOSE": 13530.2,
    "COMPLFL": "Y",
    "DCTREAS": "COMPLETED",
    "EOSSTT": "COMPLETED",
    "DCSREAS": "COMPLETED",
    "SAFFL": "Y",
    "ITTFL": "Y",
    "EFFFL": "Y"
  },
  {
    "STUDYID": "CDISCPILOT01",
    "USUBJID": "01-709-005",
    "SUBJID": 5,
    "SITEID": 709,
    "TRT01P": "Xanomeline High Dose",
    "TRT01PN": 2,
    "TRT01A": "Xanomeline High Dose",
    "TRT01AN": 2,
    "AGE": 89,
    "AGEGR1": ">80",
    "AGEGR1N": 3,
    "SEX": "F",
    "SEXN": 2,
    "RACE": "WHITE",
    "ETHNIC": "NOT HISPANIC OR LATINO",
    "COUNTRY": "USA",
    "MMSETOT": 17,
    "MMSEGRP": "Moderate (15-19)",
    "MMSEGRPN": 2,
    "DISDUR": 32.2,
    "EDUCYR": 17,
    "RANDDT": "2013-03-13",
    "TRTSDT": "2013-03-13",
    "TRTEDT": "2013-04-16",
    "TRTDURD": 35,
    "CUMDOSE": 2726.8,
    "COMPLFL": "N",
    "DCTREAS": "ADVERSE EVENT",
    "EOSSTT": "DISCONTINUED",
    "DCSREAS": "ADVERSE EVENT",
    "SAFFL": "Y",
    "ITTFL": "Y",
    "EFFFL": "Y"
  },
  {
    "STUDYID": "CDISCPILOT01",
    "USUBJID": "01-709-006",
    "SUBJID": 6,
    "SITEID": 709,
    "TRT01P": "Xanomeline Low Dose",
    "TRT01PN": 1,
    "TRT01A": "Xanomeline Low Dose",
    "TRT01AN": 1,
    "AGE": 60,
    "AGEGR1": "<65",
    "AGEGR1N": 1,
    "SEX": "M",
    "SEXN": 1,
    "RACE": "WHITE",
    "ETHNIC": "NOT HISPANIC OR LATINO",
    "COUNTRY": "USA",
    "MMSETOT": 24,
    "MMSEGRP": "Mild (20-24)",
    "MMSEGRPN": 3,
    "DISDUR": 77.8,
    "EDUCYR": 14,
    "RANDDT": "2013-04-09",
    "TRTSDT": "2013-04-09",
    "TRTEDT": "2013-09-23",
    "TRTDURD": 168,
    "CUMDOSE": 8764.2,
    "COMPLFL": "Y",
    "DCTREAS": "COMPLETED",
    "EOSSTT": "COMPLETED",
    "DCSREAS": "COMPLETED",
    "SAFFL": "Y",
    "ITTFL": "Y",
    "EFFFL": "Y"
  },
  {
    "STUDYID": "CDISCPILOT01",
    "USUBJID": "01-709-007",
    "SUBJID": 7,
    "SITEID": 709,
    "TRT01P": "Xanomeline Low Dose",
    "TRT01PN": 1,
    "TRT01A": "Xanomeline Low Dose",
    "TRT01AN": 1,
    "AGE": 85,
    "AGEGR1": ">80",
    "AGEGR1N": 3,
    "SEX": "F",
    "SEXN": 2,
    "RACE": "WHITE",
    "ETHNIC": "NOT HISPANIC OR LATINO",
    "COUNTRY": "USA",
    "MMSETOT": 15,
    "MMSEGRP": "Moderate (15-19)",
    "MMSEGRPN": 2,
    "DISDUR": 88.9,
    "EDUCYR": 16,
    "RANDDT": "2013-02-03",
    "TRTSDT": "2013-02-03",
    "TRTEDT": "2013-02-09",
    "TRTDURD": 7,
    "CUMDOSE": 376.9,
    "COMPLFL": "N",
    "DCTREAS": "PROTOCOL VIOLATION",
    "EOSSTT": "DISCONTINUED",
    "DCSREAS": "PROTOCOL VIOLATION",
    "SAFFL": "Y",
    "ITTFL": "Y",
    "EFFFL": "Y"
  },
  {
    "STUDYID": "CDISCPILOT01",
    "USUBJID": "01-709-008",
    "SUBJID": 8,
    "SITEID": 709,
    "TRT01P": "Placebo",
    "TRT01PN": 0,
    "TRT01A": "Placebo",
    "TRT01AN": 0,
    "AGE": 59,
    "AGEGR1": "<65",
    "AGEGR1N": 1,
    "SEX": "F",
    "SEXN": 2,
    "RACE": "HISPANIC OR LATINO",
    "ETHNIC": "NOT HISPANIC OR LATINO",
    "COUNTRY": "USA",
    "MMSETOT": 19,
    "MMSEGRP": "Moderate (15-19)",
    "MMSEGRPN": 2,
    "DISDUR": 43.7,
    "EDUCYR": 12,
    "RANDDT": "2013-06-03",
    "TRTSDT": "2013-06-03",
    "TRTEDT": "2013-11-17",
    "TRTDURD": 168,
    "CUMDOSE": 0,
    "COMPLFL": "N",
    "DCTREAS": "WITHDREW CONSENT",
    "EOSSTT": "DISCONTINUED",
    "DCSREAS": "WITHDREW CONSENT",
    "SAFFL": "Y",
    "ITTFL": "Y",
    "EFFFL": "Y"
  },
  {
    "STUDYID": "CDISCPILOT01",
    "USUBJID": "01-709-009",
    "SUBJID": 9,
    "SITEID": 709,
    "TRT01P": "Xanomeline Low Dose",
    "TRT01PN": 1,
    "TRT01A": "Xanomeline Low Dose",
    "TRT01AN": 1,
    "AGE": 77,
    "AGEGR1": "65-80",
    "AGEGR1N": 2,
    "SEX": "F",
    "SEXN": 2,
    "RACE": "WHITE",
    "ETHNIC": "NOT HISPANIC OR LATINO",
    "COUNTRY": "USA",
    "MMSETOT": 16,
    "MMSEGRP": "Moderate (15-19)",
    "MMSEGRPN": 2,
    "DISDUR": 37.7,
    "EDUCYR": 9,
    "RANDDT": "2013-10-30",
    "TRTSDT": "2013-10-30",
    "TRTEDT": "2013-12-03",
    "TRTDURD": 35,
    "CUMDOSE": 1807.7,
    "COMPLFL": "N",
    "DCTREAS": "ADVERSE EVENT",
    "EOSSTT": "DISCONTINUED",
    "DCSREAS": "ADVERSE EVENT",
    "SAFFL": "Y",
    "ITTFL": "Y",
    "EFFFL": "Y"
  },
  {
    "STUDYID": "CDISCPILOT01",
    "USUBJID": "01-709-010",
    "SUBJID": 10,
    "SITEID": 709,
    "TRT01P": "Placebo",
    "TRT01PN": 0,
    "TRT01A": "Placebo",
    "TRT01AN": 0,
    "AGE": 62,
    "AGEGR1": "<65",
    "AGEGR1N": 1,
    "SEX": "M",
    "SEXN": 1,
    "RACE": "WHITE",
    "ETHNIC": "NOT HISPANIC OR LATINO",
    "COUNTRY": "USA",
    "MMSETOT": 19,
    "MMSEGRP": "Moderate (15-19)",
    "MMSEGRPN": 2,
    "DISDUR": 24.4,
    "EDUCYR": 13,
    "RANDDT": "2013-11-20",
    "TRTSDT": "2013-11-20",
    "TRTEDT": "2014-05-06",
    "TRTDURD": 168,
    "CUMDOSE": 0,
    "COMPLFL": "Y",
    "DCTREAS": "COMPLETED",
    "EOSSTT": "COMPLETED",
    "DCSREAS": "COMPLETED",
    "SAFFL": "Y",
    "ITTFL": "Y",
    "EFFFL": "Y"
  },
  {
    "STUDYID": "CDISCPILOT01",
    "USUBJID": "01-709-011",
    "SUBJID": 11,
    "SITEID": 709,
    "TRT01P": "Xanomeline Low Dose",
    "TRT01PN": 1,
    "TRT01A": "Xanomeline Low Dose",
    "TRT01AN": 1,
    "AGE": 70,
    "AGEGR1": "65-80",
    "AGEGR1N": 2,
    "SEX": "F",
    "SEXN": 2,
    "RACE": "BLACK OR AFRICAN AMERICAN",
    "ETHNIC": "NOT HISPANIC OR LATINO",
    "COUNTRY": "USA",
    "MMSETOT": 24,
    "MMSEGRP": "Mild (20-24)",
    "MMSEGRPN": 3,
    "DISDUR": 54.1,
    "EDUCYR": 11,
    "RANDDT": "2013-12-10",
    "TRTSDT": "2013-12-10",
    "TRTEDT": "2014-02-17",
    "TRTDURD": 70,
    "CUMDOSE": 3593.9,
    "COMPLFL": "N",
    "DCTREAS": "ADVERSE EVENT",
    "EOSSTT": "DISCONTINUED",
    "DCSREAS": "ADVERSE EVENT",
    "SAFFL": "Y",
    "ITTFL": "Y",
    "EFFFL": "Y"
  },
  {
    "STUDYID": "CDISCPILOT01",
    "USUBJID": "01-709-012",
    "SUBJID": 12,
    "SITEID": 709,
    "TRT01P": "Xanomeline Low Dose",
    "TRT01PN": 1,
    "TRT01A": "Xanomeline Low Dose",
    "TRT01AN": 1,
    "AGE": 79,
    "AGEGR1": "65-80",
    "AGEGR1N": 2,
    "SEX": "M",
    "SEXN": 1,
    "RACE": "WHITE",
    "ETHNIC": "NOT HISPANIC OR LATINO",
    "COUNTRY": "USA",
    "MMSETOT": 19,
    "MMSEGRP": "Moderate (15-19)",
    "MMSEGRPN": 2,
    "DISDUR": 43.7,
    "EDUCYR": 10,
    "RANDDT": "2013-07-01",
    "TRTSDT": "2013-07-01",
    "TRTEDT": "2013-08-11",
    "TRTDURD": 42,
    "CUMDOSE": 2171.5,
    "COMPLFL": "N",
    "DCTREAS": "ADVERSE EVENT",
    "EOSSTT": "DISCONTINUED",
    "DCSREAS": "ADVERSE EVENT",
    "SAFFL": "Y",
    "ITTFL": "Y",
    "EFFFL": "Y"
  },
  {
    "STUDYID": "CDISCPILOT01",
    "USUBJID": "01-709-013",
    "SUBJID": 13,
    "SITEID": 709,
    "TRT01P": "Xanomeline High Dose",
    "TRT01PN": 2,
    "TRT01A": "Xanomeline High Dose",
    "TRT01AN": 2,
    "AGE": 73,
    "AGEGR1": "65-80",
    "AGEGR1N": 2,
    "SEX": "F",
    "SEXN": 2,
    "RACE": "WHITE",
    "ETHNIC": "NOT HISPANIC OR LATINO",
    "COUNTRY": "USA",
    "MMSETOT": 12,
    "MMSEGRP": "Severe (0-14)",
    "MMSEGRPN": 1,
    "DISDUR": 60,
    "EDUCYR": 15,
    "RANDDT": "2013-04-06",
    "TRTSDT": "2013-04-06",
    "TRTEDT": "2013-09-20",
    "TRTDURD": 168,
    "CUMDOSE": 13059.8,
    "COMPLFL": "Y",
    "DCTREAS": "COMPLETED",
    "EOSSTT": "COMPLETED",
    "DCSREAS": "COMPLETED",
    "SAFFL": "Y",
    "ITTFL": "Y",
    "EFFFL": "Y"
  },
  {
    "STUDYID": "CDISCPILOT01",
    "USUBJID": "01-709-014",
    "SUBJID": 14,
    "SITEID": 709,
    "TRT01P": "Xanomeline Low Dose",
    "TRT01PN": 1,
    "TRT01A": "Xanomeline Low Dose",
    "TRT01AN": 1,
    "AGE": 82,
    "AGEGR1": ">80",
    "AGEGR1N": 3,
    "SEX": "M",
    "SEXN": 1,
    "RACE": "WHITE",
    "ETHNIC": "NOT HISPANIC OR LATINO",
    "COUNTRY": "USA",
    "MMSETOT": 12,
    "MMSEGRP": "Severe (0-14)",
    "MMSEGRPN": 1,
    "DISDUR": 69.3,
    "EDUCYR": 14,
    "RANDDT": "2014-01-02",
    "TRTSDT": "2014-01-02",
    "TRTEDT": "2014-01-08",
    "TRTDURD": 7,
    "CUMDOSE": 369.1,
    "COMPLFL": "N",
    "DCTREAS": "WITHDREW CONSENT",
    "EOSSTT": "DISCONTINUED",
    "DCSREAS": "WITHDREW CONSENT",
    "SAFFL": "Y",
    "ITTFL": "Y",
    "EFFFL": "Y"
  },
  {
    "STUDYID": "CDISCPILOT01",
    "USUBJID": "01-709-015",
    "SUBJID": 15,
    "SITEID": 709,
    "TRT01P": "Xanomeline Low Dose",
    "TRT01PN": 1,
    "TRT01A": "Xanomeline Low Dose",
    "TRT01AN": 1,
    "AGE": 78,
    "AGEGR1": "65-80",
    "AGEGR1N": 2,
    "SEX": "F",
    "SEXN": 2,
    "RACE": "WHITE",
    "ETHNIC": "NOT HISPANIC OR LATINO",
    "COUNTRY": "USA",
    "MMSETOT": 19,
    "MMSEGRP": "Moderate (15-19)",
    "MMSEGRPN": 2,
    "DISDUR": 58,
    "EDUCYR": 11,
    "RANDDT": "2013-05-04",
    "TRTSDT": "2013-05-04",
    "TRTEDT": "2013-10-18",
    "TRTDURD": 168,
    "CUMDOSE": 8935.9,
    "COMPLFL": "Y",
    "DCTREAS": "COMPLETED",
    "EOSSTT": "COMPLETED",
    "DCSREAS": "COMPLETED",
    "SAFFL": "Y",
    "ITTFL": "Y",
    "EFFFL": "Y"
  },
  {
    "STUDYID": "CDISCPILOT01",
    "USUBJID": "01-709-016",
    "SUBJID": 16,
    "SITEID": 709,
    "TRT01P": "Xanomeline High Dose",
    "TRT01PN": 2,
    "TRT01A": "Xanomeline High Dose",
    "TRT01AN": 2,
    "AGE": 83,
    "AGEGR1": ">80",
    "AGEGR1N": 3,
    "SEX": "F",
    "SEXN": 2,
    "RACE": "WHITE",
    "ETHNIC": "NOT HISPANIC OR LATINO",
    "COUNTRY": "USA",
    "MMSETOT": 10,
    "MMSEGRP": "Severe (0-14)",
    "MMSEGRPN": 1,
    "DISDUR": 69.1,
    "EDUCYR": 7,
    "RANDDT": "2013-04-04",
    "TRTSDT": "2013-04-04",
    "TRTEDT": "2013-07-24",
    "TRTDURD": 112,
    "CUMDOSE": 8890.7,
    "COMPLFL": "N",
    "DCTREAS": "ADVERSE EVENT",
    "EOSSTT": "DISCONTINUED",
    "DCSREAS": "ADVERSE EVENT",
    "SAFFL": "Y",
    "ITTFL": "Y",
    "EFFFL": "Y"
  },
  {
    "STUDYID": "CDISCPILOT01",
    "USUBJID": "01-709-017",
    "SUBJID": 17,
    "SITEID": 709,
    "TRT01P": "Xanomeline High Dose",
    "TRT01PN": 2,
    "TRT01A": "Xanomeline High Dose",
    "TRT01AN": 2,
    "AGE": 79,
    "AGEGR1": "65-80",
    "AGEGR1N": 2,
    "SEX": "M",
    "SEXN": 1,
    "RACE": "WHITE",
    "ETHNIC": "NOT HISPANIC OR LATINO",
    "COUNTRY": "USA",
    "MMSETOT": 18,
    "MMSEGRP": "Moderate (15-19)",
    "MMSEGRPN": 2,
    "DISDUR": 40.6,
    "EDUCYR": 11,
    "RANDDT": "2013-01-02",
    "TRTSDT": "2013-01-02",
    "TRTEDT": "2013-06-18",
    "TRTDURD": 168,
    "CUMDOSE": 13574.4,
    "COMPLFL": "Y",
    "DCTREAS": "COMPLETED",
    "EOSSTT": "COMPLETED",
    "DCSREAS": "COMPLETED",
    "SAFFL": "Y",
    "ITTFL": "Y",
    "EFFFL": "Y"
  },
  {
    "STUDYID": "CDISCPILOT01",
    "USUBJID": "01-709-018",
    "SUBJID": 18,
    "SITEID": 709,
    "TRT01P": "Placebo",
    "TRT01PN": 0,
    "TRT01A": "Placebo",
    "TRT01AN": 0,
    "AGE": 74,
    "AGEGR1": "65-80",
    "AGEGR1N": 2,
    "SEX": "F",
    "SEXN": 2,
    "RACE": "WHITE",
    "ETHNIC": "NOT HISPANIC OR LATINO",
    "COUNTRY": "USA",
    "MMSETOT": 18,
    "MMSEGRP": "Moderate (15-19)",
    "MMSEGRPN": 2,
    "DISDUR": 2,
    "EDUCYR": 14,
    "RANDDT": "2013-01-30",
    "TRTSDT": "2013-01-30",
    "TRTEDT": "2013-07-16",
    "TRTDURD": 168,
    "CUMDOSE": 0,
    "COMPLFL": "Y",
    "DCTREAS": "COMPLETED",
    "EOSSTT": "COMPLETED",
    "DCSREAS": "COMPLETED",
    "SAFFL": "Y",
    "ITTFL": "Y",
    "EFFFL": "Y"
  },
  {
    "STUDYID": "CDISCPILOT01",
    "USUBJID": "01-709-019",
    "SUBJID": 19,
    "SITEID": 709,
    "TRT01P": "Xanomeline High Dose",
    "TRT01PN": 2,
    "TRT01A": "Xanomeline High Dose",
    "TRT01AN": 2,
    "AGE": 89,
    "AGEGR1": ">80",
    "AGEGR1N": 3,
    "SEX": "M",
    "SEXN": 1,
    "RACE": "WHITE",
    "ETHNIC": "HISPANIC OR LATINO",
    "COUNTRY": "USA",
    "MMSETOT": 10,
    "MMSEGRP": "Severe (0-14)",
    "MMSEGRPN": 1,
    "DISDUR": 2,
    "EDUCYR": 16,
    "RANDDT": "2013-11-19",
    "TRTSDT": "2013-11-19",
    "TRTEDT": "2014-02-10",
    "TRTDURD": 84,
    "CUMDOSE": 6523.4,
    "COMPLFL": "N",
    "DCTREAS": "ADVERSE EVENT",
    "EOSSTT": "DISCONTINUED",
    "DCSREAS": "ADVERSE EVENT",
    "SAFFL": "Y",
    "ITTFL": "Y",
    "EFFFL": "Y"
  },
  {
    "STUDYID": "CDISCPILOT01",
    "USUBJID": "01-709-020",
    "SUBJID": 20,
    "SITEID": 709,
    "TRT01P": "Xanomeline Low Dose",
    "TRT01PN": 1,
    "TRT01A": "Xanomeline Low Dose",
    "TRT01AN": 1,
    "AGE": 75,
    "AGEGR1": "65-80",
    "AGEGR1N": 2,
    "SEX": "M",
    "SEXN": 1,
    "RACE": "WHITE",
    "ETHNIC": "NOT HISPANIC OR LATINO",
    "COUNTRY": "USA",
    "MMSETOT": 15,
    "MMSEGRP": "Moderate (15-19)",
    "MMSEGRPN": 2,
    "DISDUR": 95.7,
    "EDUCYR": 16,
    "RANDDT": "2013-10-09",
    "TRTSDT": "2013-10-09",
    "TRTEDT": "2013-12-03",
    "TRTDURD": 56,
    "CUMDOSE": 2960.1,
    "COMPLFL": "N",
    "DCTREAS": "WITHDREW CONSENT",
    "EOSSTT": "DISCONTINUED",
    "DCSREAS": "WITHDREW CONSENT",
    "SAFFL": "Y",
    "ITTFL": "Y",
    "EFFFL": "Y"
  },
  {
    "STUDYID": "CDISCPILOT01",
    "USUBJID": "01-709-021",
    "SUBJID": 21,
    "SITEID": 709,
    "TRT01P": "Placebo",
    "TRT01PN": 0,
    "TRT01A": "Placebo",
    "TRT01AN": 0,
    "AGE": 81,
    "AGEGR1": ">80",
    "AGEGR1N": 3,
    "SEX": "M",
    "SEXN": 1,
    "RACE": "WHITE",
    "ETHNIC": "NOT HISPANIC OR LATINO",
    "COUNTRY": "USA",
    "MMSETOT": 17,
    "MMSEGRP": "Moderate (15-19)",
    "MMSEGRPN": 2,
    "DISDUR": 16.8,
    "EDUCYR": 14,
    "RANDDT": "2013-04-08",
    "TRTSDT": "2013-04-08",
    "TRTEDT": "2013-04-14",
    "TRTDURD": 7,
    "CUMDOSE": 0,
    "COMPLFL": "N",
    "DCTREAS": "WITHDREW CONSENT",
    "EOSSTT": "DISCONTINUED",
    "DCSREAS": "WITHDREW CONSENT",
    "SAFFL": "Y",
    "ITTFL": "Y",
    "EFFFL": "Y"
  },
  {
    "STUDYID": "CDISCPILOT01",
    "USUBJID": "01-709-022",
    "SUBJID": 22,
    "SITEID": 709,
    "TRT01P": "Xanomeline Low Dose",
    "TRT01PN": 1,
    "TRT01A": "Xanomeline Low Dose",
    "TRT01AN": 1,
    "AGE": 61,
    "AGEGR1": "<65",
    "AGEGR1N": 1,
    "SEX": "F",
    "SEXN": 2,
    "RACE": "HISPANIC OR LATINO",
    "ETHNIC": "NOT HISPANIC OR LATINO",
    "COUNTRY": "USA",
    "MMSETOT": 14,
    "MMSEGRP": "Severe (0-14)",
    "MMSEGRPN": 1,
    "DISDUR": 2,
    "EDUCYR": 14,
    "RANDDT": "2013-05-17",
    "TRTSDT": "2013-05-17",
    "TRTEDT": "2013-07-11",
    "TRTDURD": 56,
    "CUMDOSE": 2908.4,
    "COMPLFL": "N",
    "DCTREAS": "ADVERSE EVENT",
    "EOSSTT": "DISCONTINUED",
    "DCSREAS": "ADVERSE EVENT",
    "SAFFL": "Y",
    "ITTFL": "Y",
    "EFFFL": "Y"
  },
  {
    "STUDYID": "CDISCPILOT01",
    "USUBJID": "01-709-023",
    "SUBJID": 23,
    "SITEID": 709,
    "TRT01P": "Xanomeline Low Dose",
    "TRT01PN": 1,
    "TRT01A": "Xanomeline Low Dose",
    "TRT01AN": 1,
    "AGE": 74,
    "AGEGR1": "65-80",
    "AGEGR1N": 2,
    "SEX": "F",
    "SEXN": 2,
    "RACE": "WHITE",
    "ETHNIC": "NOT HISPANIC OR LATINO",
    "COUNTRY": "USA",
    "MMSETOT": 22,
    "MMSEGRP": "Mild (20-24)",
    "MMSEGRPN": 3,
    "DISDUR": 44.9,
    "EDUCYR": 16,
    "RANDDT": "2013-07-01",
    "TRTSDT": "2013-07-01",
    "TRTEDT": "2013-10-27",
    "TRTDURD": 119,
    "CUMDOSE": 6357.8,
    "COMPLFL": "N",
    "DCTREAS": "ADVERSE EVENT",
    "EOSSTT": "DISCONTINUED",
    "DCSREAS": "ADVERSE EVENT",
    "SAFFL": "Y",
    "ITTFL": "Y",
    "EFFFL": "Y"
  },
  {
    "STUDYID": "CDISCPILOT01",
    "USUBJID": "01-710-001",
    "SUBJID": 1,
    "SITEID": 710,
    "TRT01P": "Xanomeline High Dose",
    "TRT01PN": 2,
    "TRT01A": "Xanomeline High Dose",
    "TRT01AN": 2,
    "AGE": 76,
    "AGEGR1": "65-80",
    "AGEGR1N": 2,
    "SEX": "M",
    "SEXN": 1,
    "RACE": "WHITE",
    "ETHNIC": "NOT HISPANIC OR LATINO",
    "COUNTRY": "USA",
    "MMSETOT": 11,
    "MMSEGRP": "Severe (0-14)",
    "MMSEGRPN": 1,
    "DISDUR": 53.2,
    "EDUCYR": 18,
    "RANDDT": "2013-03-30",
    "TRTSDT": "2013-03-30",
    "TRTEDT": "2013-09-13",
    "TRTDURD": 168,
    "CUMDOSE": 12932.3,
    "COMPLFL": "Y",
    "DCTREAS": "COMPLETED",
    "EOSSTT": "COMPLETED",
    "DCSREAS": "COMPLETED",
    "SAFFL": "Y",
    "ITTFL": "Y",
    "EFFFL": "Y"
  },
  {
    "STUDYID": "CDISCPILOT01",
    "USUBJID": "01-710-002",
    "SUBJID": 2,
    "SITEID": 710,
    "TRT01P": "Placebo",
    "TRT01PN": 0,
    "TRT01A": "Placebo",
    "TRT01AN": 0,
    "AGE": 89,
    "AGEGR1": ">80",
    "AGEGR1N": 3,
    "SEX": "M",
    "SEXN": 1,
    "RACE": "WHITE",
    "ETHNIC": "NOT HISPANIC OR LATINO",
    "COUNTRY": "USA",
    "MMSETOT": 24,
    "MMSEGRP": "Mild (20-24)",
    "MMSEGRPN": 3,
    "DISDUR": 31.2,
    "EDUCYR": 12,
    "RANDDT": "2013-06-28",
    "TRTSDT": "2013-06-28",
    "TRTEDT": "2013-12-12",
    "TRTDURD": 168,
    "CUMDOSE": 0,
    "COMPLFL": "N",
    "DCTREAS": "LACK OF EFFICACY",
    "EOSSTT": "DISCONTINUED",
    "DCSREAS": "LACK OF EFFICACY",
    "SAFFL": "Y",
    "ITTFL": "Y",
    "EFFFL": "Y"
  },
  {
    "STUDYID": "CDISCPILOT01",
    "USUBJID": "01-710-003",
    "SUBJID": 3,
    "SITEID": 710,
    "TRT01P": "Xanomeline Low Dose",
    "TRT01PN": 1,
    "TRT01A": "Xanomeline Low Dose",
    "TRT01AN": 1,
    "AGE": 77,
    "AGEGR1": "65-80",
    "AGEGR1N": 2,
    "SEX": "M",
    "SEXN": 1,
    "RACE": "WHITE",
    "ETHNIC": "HISPANIC OR LATINO",
    "COUNTRY": "USA",
    "MMSETOT": 13,
    "MMSEGRP": "Severe (0-14)",
    "MMSEGRPN": 1,
    "DISDUR": 77.8,
    "EDUCYR": 14,
    "RANDDT": "2013-11-24",
    "TRTSDT": "2013-11-24",
    "TRTEDT": "2014-05-10",
    "TRTDURD": 168,
    "CUMDOSE": 8776.2,
    "COMPLFL": "Y",
    "DCTREAS": "COMPLETED",
    "EOSSTT": "DISCONTINUED",
    "DCSREAS": "WITHDREW CONSENT",
    "SAFFL": "Y",
    "ITTFL": "Y",
    "EFFFL": "Y"
  },
  {
    "STUDYID": "CDISCPILOT01",
    "USUBJID": "01-710-004",
    "SUBJID": 4,
    "SITEID": 710,
    "TRT01P": "Placebo",
    "TRT01PN": 0,
    "TRT01A": "Placebo",
    "TRT01AN": 0,
    "AGE": 74,
    "AGEGR1": "65-80",
    "AGEGR1N": 2,
    "SEX": "M",
    "SEXN": 1,
    "RACE": "BLACK OR AFRICAN AMERICAN",
    "ETHNIC": "NOT HISPANIC OR LATINO",
    "COUNTRY": "USA",
    "MMSETOT": 16,
    "MMSEGRP": "Moderate (15-19)",
    "MMSEGRPN": 2,
    "DISDUR": 30.4,
    "EDUCYR": 12,
    "RANDDT": "2013-04-18",
    "TRTSDT": "2013-04-18",
    "TRTEDT": "2013-10-02",
    "TRTDURD": 168,
    "CUMDOSE": 0,
    "COMPLFL": "Y",
    "DCTREAS": "COMPLETED",
    "EOSSTT": "COMPLETED",
    "DCSREAS": "COMPLETED",
    "SAFFL": "Y",
    "ITTFL": "Y",
    "EFFFL": "Y"
  },
  {
    "STUDYID": "CDISCPILOT01",
    "USUBJID": "01-710-005",
    "SUBJID": 5,
    "SITEID": 710,
    "TRT01P": "Xanomeline High Dose",
    "TRT01PN": 2,
    "TRT01A": "Xanomeline High Dose",
    "TRT01AN": 2,
    "AGE": 77,
    "AGEGR1": "65-80",
    "AGEGR1N": 2,
    "SEX": "F",
    "SEXN": 2,
    "RACE": "WHITE",
    "ETHNIC": "NOT HISPANIC OR LATINO",
    "COUNTRY": "USA",
    "MMSETOT": 18,
    "MMSEGRP": "Moderate (15-19)",
    "MMSEGRPN": 2,
    "DISDUR": 25.7,
    "EDUCYR": 8,
    "RANDDT": "2013-01-22",
    "TRTSDT": "2013-01-22",
    "TRTEDT": "2013-03-04",
    "TRTDURD": 42,
    "CUMDOSE": 3294.6,
    "COMPLFL": "N",
    "DCTREAS": "PROTOCOL CRITERIA NOT MET",
    "EOSSTT": "DISCONTINUED",
    "DCSREAS": "PROTOCOL CRITERIA NOT MET",
    "SAFFL": "Y",
    "ITTFL": "Y",
    "EFFFL": "Y"
  },
  {
    "STUDYID": "CDISCPILOT01",
    "USUBJID": "01-710-006",
    "SUBJID": 6,
    "SITEID": 710,
    "TRT01P": "Placebo",
    "TRT01PN": 0,
    "TRT01A": "Placebo",
    "TRT01AN": 0,
    "AGE": 78,
    "AGEGR1": "65-80",
    "AGEGR1N": 2,
    "SEX": "M",
    "SEXN": 1,
    "RACE": "WHITE",
    "ETHNIC": "NOT HISPANIC OR LATINO",
    "COUNTRY": "USA",
    "MMSETOT": 21,
    "MMSEGRP": "Mild (20-24)",
    "MMSEGRPN": 3,
    "DISDUR": 51.8,
    "EDUCYR": 11,
    "RANDDT": "2013-04-28",
    "TRTSDT": "2013-04-28",
    "TRTEDT": "2013-08-17",
    "TRTDURD": 112,
    "CUMDOSE": 0,
    "COMPLFL": "N",
    "DCTREAS": "ADVERSE EVENT",
    "EOSSTT": "DISCONTINUED",
    "DCSREAS": "ADVERSE EVENT",
    "SAFFL": "Y",
    "ITTFL": "Y",
    "EFFFL": "Y"
  },
  {
    "STUDYID": "CDISCPILOT01",
    "USUBJID": "01-710-007",
    "SUBJID": 7,
    "SITEID": 710,
    "TRT01P": "Xanomeline High Dose",
    "TRT01PN": 2,
    "TRT01A": "Xanomeline High Dose",
    "TRT01AN": 2,
    "AGE": 64,
    "AGEGR1": "<65",
    "AGEGR1N": 1,
    "SEX": "F",
    "SEXN": 2,
    "RACE": "HISPANIC OR LATINO",
    "ETHNIC": "NOT HISPANIC OR LATINO",
    "COUNTRY": "USA",
    "MMSETOT": 18,
    "MMSEGRP": "Moderate (15-19)",
    "MMSEGRPN": 2,
    "DISDUR": 55.1,
    "EDUCYR": 9,
    "RANDDT": "2013-05-06",
    "TRTSDT": "2013-05-06",
    "TRTEDT": "2013-10-20",
    "TRTDURD": 168,
    "CUMDOSE": 12956.6,
    "COMPLFL": "Y",
    "DCTREAS": "COMPLETED",
    "EOSSTT": "COMPLETED",
    "DCSREAS": "COMPLETED",
    "SAFFL": "Y",
    "ITTFL": "Y",
    "EFFFL": "Y"
  },
  {
    "STUDYID": "CDISCPILOT01",
    "USUBJID": "01-710-008",
    "SUBJID": 8,
    "SITEID": 710,
    "TRT01P": "Xanomeline Low Dose",
    "TRT01PN": 1,
    "TRT01A": "Xanomeline Low Dose",
    "TRT01AN": 1,
    "AGE": 66,
    "AGEGR1": "65-80",
    "AGEGR1N": 2,
    "SEX": "M",
    "SEXN": 1,
    "RACE": "WHITE",
    "ETHNIC": "NOT HISPANIC OR LATINO",
    "COUNTRY": "USA",
    "MMSETOT": 20,
    "MMSEGRP": "Mild (20-24)",
    "MMSEGRPN": 3,
    "DISDUR": 15.2,
    "EDUCYR": 15,
    "RANDDT": "2013-10-27",
    "TRTSDT": "2013-10-27",
    "TRTEDT": "2014-04-05",
    "TRTDURD": 161,
    "CUMDOSE": 8315.8,
    "COMPLFL": "N",
    "DCTREAS": "WITHDREW CONSENT",
    "EOSSTT": "DISCONTINUED",
    "DCSREAS": "WITHDREW CONSENT",
    "SAFFL": "Y",
    "ITTFL": "Y",
    "EFFFL": "Y"
  },
  {
    "STUDYID": "CDISCPILOT01",
    "USUBJID": "01-710-009",
    "SUBJID": 9,
    "SITEID": 710,
    "TRT01P": "Xanomeline Low Dose",
    "TRT01PN": 1,
    "TRT01A": "Xanomeline Low Dose",
    "TRT01AN": 1,
    "AGE": 75,
    "AGEGR1": "65-80",
    "AGEGR1N": 2,
    "SEX": "F",
    "SEXN": 2,
    "RACE": "WHITE",
    "ETHNIC": "NOT HISPANIC OR LATINO",
    "COUNTRY": "USA",
    "MMSETOT": 13,
    "MMSEGRP": "Severe (0-14)",
    "MMSEGRPN": 1,
    "DISDUR": 2,
    "EDUCYR": 17,
    "RANDDT": "2013-10-14",
    "TRTSDT": "2013-10-14",
    "TRTEDT": "2013-12-08",
    "TRTDURD": 56,
    "CUMDOSE": 2932.9,
    "COMPLFL": "N",
    "DCTREAS": "ADVERSE EVENT",
    "EOSSTT": "DISCONTINUED",
    "DCSREAS": "ADVERSE EVENT",
    "SAFFL": "Y",
    "ITTFL": "Y",
    "EFFFL": "Y"
  },
  {
    "STUDYID": "CDISCPILOT01",
    "USUBJID": "01-710-010",
    "SUBJID": 10,
    "SITEID": 710,
    "TRT01P": "Xanomeline Low Dose",
    "TRT01PN": 1,
    "TRT01A": "Xanomeline Low Dose",
    "TRT01AN": 1,
    "AGE": 65,
    "AGEGR1": "65-80",
    "AGEGR1N": 2,
    "SEX": "F",
    "SEXN": 2,
    "RACE": "WHITE",
    "ETHNIC": "NOT HISPANIC OR LATINO",
    "COUNTRY": "USA",
    "MMSETOT": 16,
    "MMSEGRP": "Moderate (15-19)",
    "MMSEGRPN": 2,
    "DISDUR": 50.4,
    "EDUCYR": 19,
    "RANDDT": "2013-07-15",
    "TRTSDT": "2013-07-15",
    "TRTEDT": "2013-12-29",
    "TRTDURD": 168,
    "CUMDOSE": 8639.2,
    "COMPLFL": "Y",
    "DCTREAS": "COMPLETED",
    "EOSSTT": "COMPLETED",
    "DCSREAS": "COMPLETED",
    "SAFFL": "Y",
    "ITTFL": "Y",
    "EFFFL": "Y"
  },
  {
    "STUDYID": "CDISCPILOT01",
    "USUBJID": "01-710-011",
    "SUBJID": 11,
    "SITEID": 710,
    "TRT01P": "Placebo",
    "TRT01PN": 0,
    "TRT01A": "Placebo",
    "TRT01AN": 0,
    "AGE": 75,
    "AGEGR1": "65-80",
    "AGEGR1N": 2,
    "SEX": "F",
    "SEXN": 2,
    "RACE": "WHITE",
    "ETHNIC": "NOT HISPANIC OR LATINO",
    "COUNTRY": "USA",
    "MMSETOT": 10,
    "MMSEGRP": "Severe (0-14)",
    "MMSEGRPN": 1,
    "DISDUR": 10.7,
    "EDUCYR": 7,
    "RANDDT": "2013-11-16",
    "TRTSDT": "2013-11-16",
    "TRTEDT": "2014-05-02",
    "TRTDURD": 168,
    "CUMDOSE": 0,
    "COMPLFL": "Y",
    "DCTREAS": "COMPLETED",
    "EOSSTT": "COMPLETED",
    "DCSREAS": "COMPLETED",
    "SAFFL": "Y",
    "ITTFL": "Y",
    "EFFFL": "Y"
  },
  {
    "STUDYID": "CDISCPILOT01",
    "USUBJID": "01-710-012",
    "SUBJID": 12,
    "SITEID": 710,
    "TRT01P": "Xanomeline High Dose",
    "TRT01PN": 2,
    "TRT01A": "Xanomeline High Dose",
    "TRT01AN": 2,
    "AGE": 71,
    "AGEGR1": "65-80",
    "AGEGR1N": 2,
    "SEX": "F",
    "SEXN": 2,
    "RACE": "WHITE",
    "ETHNIC": "NOT HISPANIC OR LATINO",
    "COUNTRY": "USA",
    "MMSETOT": 17,
    "MMSEGRP": "Moderate (15-19)",
    "MMSEGRPN": 2,
    "DISDUR": 21,
    "EDUCYR": 12,
    "RANDDT": "2013-07-24",
    "TRTSDT": "2013-07-24",
    "TRTEDT": "2013-08-06",
    "TRTDURD": 14,
    "CUMDOSE": 1094.9,
    "COMPLFL": "N",
    "DCTREAS": "PHYSICIAN DECISION",
    "EOSSTT": "DISCONTINUED",
    "DCSREAS": "PHYSICIAN DECISION",
    "SAFFL": "Y",
    "ITTFL": "Y",
    "EFFFL": "Y"
  },
  {
    "STUDYID": "CDISCPILOT01",
    "USUBJID": "01-710-013",
    "SUBJID": 13,
    "SITEID": 710,
    "TRT01P": "Placebo",
    "TRT01PN": 0,
    "TRT01A": "Placebo",
    "TRT01AN": 0,
    "AGE": 59,
    "AGEGR1": "<65",
    "AGEGR1N": 1,
    "SEX": "M",
    "SEXN": 1,
    "RACE": "WHITE",
    "ETHNIC": "NOT HISPANIC OR LATINO",
    "COUNTRY": "USA",
    "MMSETOT": 10,
    "MMSEGRP": "Severe (0-14)",
    "MMSEGRPN": 1,
    "DISDUR": 51.9,
    "EDUCYR": 11,
    "RANDDT": "2013-11-15",
    "TRTSDT": "2013-11-15",
    "TRTEDT": "2014-05-01",
    "TRTDURD": 168,
    "CUMDOSE": 0,
    "COMPLFL": "Y",
    "DCTREAS": "COMPLETED",
    "EOSSTT": "COMPLETED",
    "DCSREAS": "COMPLETED",
    "SAFFL": "Y",
    "ITTFL": "Y",
    "EFFFL": "Y"
  },
  {
    "STUDYID": "CDISCPILOT01",
    "USUBJID": "01-710-014",
    "SUBJID": 14,
    "SITEID": 710,
    "TRT01P": "Placebo",
    "TRT01PN": 0,
    "TRT01A": "Placebo",
    "TRT01AN": 0,
    "AGE": 78,
    "AGEGR1": "65-80",
    "AGEGR1N": 2,
    "SEX": "F",
    "SEXN": 2,
    "RACE": "WHITE",
    "ETHNIC": "NOT HISPANIC OR LATINO",
    "COUNTRY": "USA",
    "MMSETOT": 19,
    "MMSEGRP": "Moderate (15-19)",
    "MMSEGRPN": 2,
    "DISDUR": 74.9,
    "EDUCYR": 15,
    "RANDDT": "2013-06-14",
    "TRTSDT": "2013-06-14",
    "TRTEDT": "2013-11-28",
    "TRTDURD": 168,
    "CUMDOSE": 0,
    "COMPLFL": "Y",
    "DCTREAS": "COMPLETED",
    "EOSSTT": "COMPLETED",
    "DCSREAS": "COMPLETED",
    "SAFFL": "Y",
    "ITTFL": "Y",
    "EFFFL": "Y"
  },
  {
    "STUDYID": "CDISCPILOT01",
    "USUBJID": "01-710-015",
    "SUBJID": 15,
    "SITEID": 710,
    "TRT01P": "Placebo",
    "TRT01PN": 0,
    "TRT01A": "Placebo",
    "TRT01AN": 0,
    "AGE": 61,
    "AGEGR1": "<65",
    "AGEGR1N": 1,
    "SEX": "F",
    "SEXN": 2,
    "RACE": "WHITE",
    "ETHNIC": "NOT HISPANIC OR LATINO",
    "COUNTRY": "USA",
    "MMSETOT": 17,
    "MMSEGRP": "Moderate (15-19)",
    "MMSEGRPN": 2,
    "DISDUR": 90.4,
    "EDUCYR": 14,
    "RANDDT": "2013-07-27",
    "TRTSDT": "2013-07-27",
    "TRTEDT": "2014-01-10",
    "TRTDURD": 168,
    "CUMDOSE": 0,
    "COMPLFL": "Y",
    "DCTREAS": "COMPLETED",
    "EOSSTT": "DISCONTINUED",
    "DCSREAS": "OTHER",
    "SAFFL": "Y",
    "ITTFL": "Y",
    "EFFFL": "Y"
  },
  {
    "STUDYID": "CDISCPILOT01",
    "USUBJID": "01-710-016",
    "SUBJID": 16,
    "SITEID": 710,
    "TRT01P": "Xanomeline High Dose",
    "TRT01PN": 2,
    "TRT01A": "Xanomeline High Dose",
    "TRT01AN": 2,
    "AGE": 56,
    "AGEGR1": "<65",
    "AGEGR1N": 1,
    "SEX": "F",
    "SEXN": 2,
    "RACE": "WHITE",
    "ETHNIC": "NOT HISPANIC OR LATINO",
    "COUNTRY": "USA",
    "MMSETOT": 13,
    "MMSEGRP": "Severe (0-14)",
    "MMSEGRPN": 1,
    "DISDUR": 2,
    "EDUCYR": 13,
    "RANDDT": "2013-03-28",
    "TRTSDT": "2013-03-28",
    "TRTEDT": "2013-09-11",
    "TRTDURD": 168,
    "CUMDOSE": 13603.4,
    "COMPLFL": "Y",
    "DCTREAS": "COMPLETED",
    "EOSSTT": "COMPLETED",
    "DCSREAS": "COMPLETED",
    "SAFFL": "Y",
    "ITTFL": "Y",
    "EFFFL": "Y"
  },
  {
    "STUDYID": "CDISCPILOT01",
    "USUBJID": "01-710-017",
    "SUBJID": 17,
    "SITEID": 710,
    "TRT01P": "Xanomeline Low Dose",
    "TRT01PN": 1,
    "TRT01A": "Xanomeline Low Dose",
    "TRT01AN": 1,
    "AGE": 80,
    "AGEGR1": ">80",
    "AGEGR1N": 3,
    "SEX": "M",
    "SEXN": 1,
    "RACE": "WHITE",
    "ETHNIC": "NOT HISPANIC OR LATINO",
    "COUNTRY": "USA",
    "MMSETOT": 19,
    "MMSEGRP": "Moderate (15-19)",
    "MMSEGRPN": 2,
    "DISDUR": 26.7,
    "EDUCYR": 16,
    "RANDDT": "2013-08-25",
    "TRTSDT": "2013-08-25",
    "TRTEDT": "2013-10-05",
    "TRTDURD": 42,
    "CUMDOSE": 2157.2,
    "COMPLFL": "N",
    "DCTREAS": "ADVERSE EVENT",
    "EOSSTT": "DISCONTINUED",
    "DCSREAS": "ADVERSE EVENT",
    "SAFFL": "Y",
    "ITTFL": "Y",
    "EFFFL": "Y"
  },
  {
    "STUDYID": "CDISCPILOT01",
    "USUBJID": "01-710-018",
    "SUBJID": 18,
    "SITEID": 710,
    "TRT01P": "Placebo",
    "TRT01PN": 0,
    "TRT01A": "Placebo",
    "TRT01AN": 0,
    "AGE": 78,
    "AGEGR1": "65-80",
    "AGEGR1N": 2,
    "SEX": "M",
    "SEXN": 1,
    "RACE": "WHITE",
    "ETHNIC": "NOT HISPANIC OR LATINO",
    "COUNTRY": "USA",
    "MMSETOT": 24,
    "MMSEGRP": "Mild (20-24)",
    "MMSEGRPN": 3,
    "DISDUR": 43.3,
    "EDUCYR": 13,
    "RANDDT": "2013-08-28",
    "TRTSDT": "2013-08-28",
    "TRTEDT": "2014-01-07",
    "TRTDURD": 133,
    "CUMDOSE": 0,
    "COMPLFL": "N",
    "DCTREAS": "ADVERSE EVENT",
    "EOSSTT": "DISCONTINUED",
    "DCSREAS": "ADVERSE EVENT",
    "SAFFL": "Y",
    "ITTFL": "Y",
    "EFFFL": "Y"
  },
  {
    "STUDYID": "CDISCPILOT01",
    "USUBJID": "01-710-019",
    "SUBJID": 19,
    "SITEID": 710,
    "TRT01P": "Xanomeline High Dose",
    "TRT01PN": 2,
    "TRT01A": "Xanomeline High Dose",
    "TRT01AN": 2,
    "AGE": 65,
    "AGEGR1": "65-80",
    "AGEGR1N": 2,
    "SEX": "F",
    "SEXN": 2,
    "RACE": "BLACK OR AFRICAN AMERICAN",
    "ETHNIC": "NOT HISPANIC OR LATINO",
    "COUNTRY": "USA",
    "MMSETOT": 18,
    "MMSEGRP": "Moderate (15-19)",
    "MMSEGRPN": 2,
    "DISDUR": 60.5,
    "EDUCYR": 13,
    "RANDDT": "2013-02-25",
    "TRTSDT": "2013-02-25",
    "TRTEDT": "2013-03-24",
    "TRTDURD": 28,
    "CUMDOSE": 2201,
    "COMPLFL": "N",
    "DCTREAS": "ADVERSE EVENT",
    "EOSSTT": "DISCONTINUED",
    "DCSREAS": "ADVERSE EVENT",
    "SAFFL": "Y",
    "ITTFL": "Y",
    "EFFFL": "Y"
  },
  {
    "STUDYID": "CDISCPILOT01",
    "USUBJID": "01-710-020",
    "SUBJID": 20,
    "SITEID": 710,
    "TRT01P": "Placebo",
    "TRT01PN": 0,
    "TRT01A": "Placebo",
    "TRT01AN": 0,
    "AGE": 85,
    "AGEGR1": ">80",
    "AGEGR1N": 3,
    "SEX": "F",
    "SEXN": 2,
    "RACE": "WHITE",
    "ETHNIC": "NOT HISPANIC OR LATINO",
    "COUNTRY": "USA",
    "MMSETOT": 24,
    "MMSEGRP": "Mild (20-24)",
    "MMSEGRPN": 3,
    "DISDUR": 72.4,
    "EDUCYR": 14,
    "RANDDT": "2013-05-22",
    "TRTSDT": "2013-05-22",
    "TRTEDT": "2013-11-05",
    "TRTDURD": 168,
    "CUMDOSE": 0,
    "COMPLFL": "Y",
    "DCTREAS": "COMPLETED",
    "EOSSTT": "COMPLETED",
    "DCSREAS": "COMPLETED",
    "SAFFL": "Y",
    "ITTFL": "Y",
    "EFFFL": "Y"
  },
  {
    "STUDYID": "CDISCPILOT01",
    "USUBJID": "01-710-021",
    "SUBJID": 21,
    "SITEID": 710,
    "TRT01P": "Placebo",
    "TRT01PN": 0,
    "TRT01A": "Placebo",
    "TRT01AN": 0,
    "AGE": 75,
    "AGEGR1": "65-80",
    "AGEGR1N": 2,
    "SEX": "F",
    "SEXN": 2,
    "RACE": "HISPANIC OR LATINO",
    "ETHNIC": "NOT HISPANIC OR LATINO",
    "COUNTRY": "USA",
    "MMSETOT": 15,
    "MMSEGRP": "Moderate (15-19)",
    "MMSEGRPN": 2,
    "DISDUR": 93.4,
    "EDUCYR": 11,
    "RANDDT": "2013-07-03",
    "TRTSDT": "2013-07-03",
    "TRTEDT": "2013-12-17",
    "TRTDURD": 168,
    "CUMDOSE": 0,
    "COMPLFL": "Y",
    "DCTREAS": "COMPLETED",
    "EOSSTT": "COMPLETED",
    "DCSREAS": "COMPLETED",
    "SAFFL": "Y",
    "ITTFL": "Y",
    "EFFFL": "Y"
  },
  {
    "STUDYID": "CDISCPILOT01",
    "USUBJID": "01-710-022",
    "SUBJID": 22,
    "SITEID": 710,
    "TRT01P": "Xanomeline Low Dose",
    "TRT01PN": 1,
    "TRT01A": "Xanomeline Low Dose",
    "TRT01AN": 1,
    "AGE": 82,
    "AGEGR1": ">80",
    "AGEGR1N": 3,
    "SEX": "M",
    "SEXN": 1,
    "RACE": "WHITE",
    "ETHNIC": "NOT HISPANIC OR LATINO",
    "COUNTRY": "USA",
    "MMSETOT": 23,
    "MMSEGRP": "Mild (20-24)",
    "MMSEGRPN": 3,
    "DISDUR": 44.6,
    "EDUCYR": 11,
    "RANDDT": "2013-03-05",
    "TRTSDT": "2013-03-05",
    "TRTEDT": "2013-08-19",
    "TRTDURD": 168,
    "CUMDOSE": 8700.7,
    "COMPLFL": "N",
    "DCTREAS": "ADVERSE EVENT",
    "EOSSTT": "DISCONTINUED",
    "DCSREAS": "ADVERSE EVENT",
    "SAFFL": "Y",
    "ITTFL": "Y",
    "EFFFL": "Y"
  },
  {
    "STUDYID": "CDISCPILOT01",
    "USUBJID": "01-710-023",
    "SUBJID": 23,
    "SITEID": 710,
    "TRT01P": "Placebo",
    "TRT01PN": 0,
    "TRT01A": "Placebo",
    "TRT01AN": 0,
    "AGE": 89,
    "AGEGR1": ">80",
    "AGEGR1N": 3,
    "SEX": "F",
    "SEXN": 2,
    "RACE": "WHITE",
    "ETHNIC": "NOT HISPANIC OR LATINO",
    "COUNTRY": "USA",
    "MMSETOT": 22,
    "MMSEGRP": "Mild (20-24)",
    "MMSEGRPN": 3,
    "DISDUR": 2,
    "EDUCYR": 5,
    "RANDDT": "2013-05-11",
    "TRTSDT": "2013-05-11",
    "TRTEDT": "2013-10-25",
    "TRTDURD": 168,
    "CUMDOSE": 0,
    "COMPLFL": "Y",
    "DCTREAS": "COMPLETED",
    "EOSSTT": "COMPLETED",
    "DCSREAS": "COMPLETED",
    "SAFFL": "Y",
    "ITTFL": "Y",
    "EFFFL": "Y"
  },
  {
    "STUDYID": "CDISCPILOT01",
    "USUBJID": "01-710-024",
    "SUBJID": 24,
    "SITEID": 710,
    "TRT01P": "Xanomeline Low Dose",
    "TRT01PN": 1,
    "TRT01A": "Xanomeline Low Dose",
    "TRT01AN": 1,
    "AGE": 80,
    "AGEGR1": ">80",
    "AGEGR1N": 3,
    "SEX": "F",
    "SEXN": 2,
    "RACE": "WHITE",
    "ETHNIC": "NOT HISPANIC OR LATINO",
    "COUNTRY": "USA",
    "MMSETOT": 21,
    "MMSEGRP": "Mild (20-24)",
    "MMSEGRPN": 3,
    "DISDUR": 126.1,
    "EDUCYR": 13,
    "RANDDT": "2013-09-18",
    "TRTSDT": "2013-09-18",
    "TRTEDT": "2014-01-14",
    "TRTDURD": 119,
    "CUMDOSE": 6183.7,
    "COMPLFL": "N",
    "DCTREAS": "DEATH",
    "EOSSTT": "DISCONTINUED",
    "DCSREAS": "DEATH",
    "SAFFL": "Y",
    "ITTFL": "Y",
    "EFFFL": "Y"
  },
  {
    "STUDYID": "CDISCPILOT01",
    "USUBJID": "01-710-025",
    "SUBJID": 25,
    "SITEID": 710,
    "TRT01P": "Xanomeline Low Dose",
    "TRT01PN": 1,
    "TRT01A": "Xanomeline Low Dose",
    "TRT01AN": 1,
    "AGE": 71,
    "AGEGR1": "65-80",
    "AGEGR1N": 2,
    "SEX": "M",
    "SEXN": 1,
    "RACE": "WHITE",
    "ETHNIC": "NOT HISPANIC OR LATINO",
    "COUNTRY": "USA",
    "MMSETOT": 19,
    "MMSEGRP": "Moderate (15-19)",
    "MMSEGRPN": 2,
    "DISDUR": 85.7,
    "EDUCYR": 21,
    "RANDDT": "2013-09-22",
    "TRTSDT": "2013-09-22",
    "TRTEDT": "2014-03-08",
    "TRTDURD": 168,
    "CUMDOSE": 8730.1,
    "COMPLFL": "Y",
    "DCTREAS": "COMPLETED",
    "EOSSTT": "COMPLETED",
    "DCSREAS": "COMPLETED",
    "SAFFL": "Y",
    "ITTFL": "Y",
    "EFFFL": "Y"
  },
  {
    "STUDYID": "CDISCPILOT01",
    "USUBJID": "01-710-026",
    "SUBJID": 26,
    "SITEID": 710,
    "TRT01P": "Xanomeline High Dose",
    "TRT01PN": 2,
    "TRT01A": "Xanomeline High Dose",
    "TRT01AN": 2,
    "AGE": 77,
    "AGEGR1": "65-80",
    "AGEGR1N": 2,
    "SEX": "F",
    "SEXN": 2,
    "RACE": "BLACK OR AFRICAN AMERICAN",
    "ETHNIC": "NOT HISPANIC OR LATINO",
    "COUNTRY": "USA",
    "MMSETOT": 21,
    "MMSEGRP": "Mild (20-24)",
    "MMSEGRPN": 3,
    "DISDUR": 42.9,
    "EDUCYR": 9,
    "RANDDT": "2013-02-15",
    "TRTSDT": "2013-02-15",
    "TRTEDT": "2013-08-01",
    "TRTDURD": 168,
    "CUMDOSE": 13345.6,
    "COMPLFL": "Y",
    "DCTREAS": "COMPLETED",
    "EOSSTT": "COMPLETED",
    "DCSREAS": "COMPLETED",
    "SAFFL": "Y",
    "ITTFL": "Y",
    "EFFFL": "Y"
  },
  {
    "STUDYID": "CDISCPILOT01",
    "USUBJID": "01-710-027",
    "SUBJID": 27,
    "SITEID": 710,
    "TRT01P": "Xanomeline Low Dose",
    "TRT01PN": 1,
    "TRT01A": "Xanomeline Low Dose",
    "TRT01AN": 1,
    "AGE": 85,
    "AGEGR1": ">80",
    "AGEGR1N": 3,
    "SEX": "M",
    "SEXN": 1,
    "RACE": "WHITE",
    "ETHNIC": "NOT HISPANIC OR LATINO",
    "COUNTRY": "USA",
    "MMSETOT": 11,
    "MMSEGRP": "Severe (0-14)",
    "MMSEGRPN": 1,
    "DISDUR": 47.1,
    "EDUCYR": 11,
    "RANDDT": "2013-03-09",
    "TRTSDT": "2013-03-09",
    "TRTEDT": "2013-04-19",
    "TRTDURD": 42,
    "CUMDOSE": 2224.7,
    "COMPLFL": "N",
    "DCTREAS": "ADVERSE EVENT",
    "EOSSTT": "DISCONTINUED",
    "DCSREAS": "ADVERSE EVENT",
    "SAFFL": "Y",
    "ITTFL": "Y",
    "EFFFL": "Y"
  },
  {
    "STUDYID": "CDISCPILOT01",
    "USUBJID": "01-710-028",
    "SUBJID": 28,
    "SITEID": 710,
    "TRT01P": "Xanomeline High Dose",
    "TRT01PN": 2,
    "TRT01A": "Xanomeline High Dose",
    "TRT01AN": 2,
    "AGE": 69,
    "AGEGR1": "65-80",
    "AGEGR1N": 2,
    "SEX": "M",
    "SEXN": 1,
    "RACE": "WHITE",
    "ETHNIC": "NOT HISPANIC OR LATINO",
    "COUNTRY": "USA",
    "MMSETOT": 24,
    "MMSEGRP": "Mild (20-24)",
    "MMSEGRPN": 3,
    "DISDUR": 73.3,
    "EDUCYR": 8,
    "RANDDT": "2013-08-22",
    "TRTSDT": "2013-08-22",
    "TRTEDT": "2014-02-05",
    "TRTDURD": 168,
    "CUMDOSE": 13253.7,
    "COMPLFL": "Y",
    "DCTREAS": "COMPLETED",
    "EOSSTT": "COMPLETED",
    "DCSREAS": "COMPLETED",
    "SAFFL": "Y",
    "ITTFL": "Y",
    "EFFFL": "Y"
  },
  {
    "STUDYID": "CDISCPILOT01",
    "USUBJID": "01-710-029",
    "SUBJID": 29,
    "SITEID": 710,
    "TRT01P": "Placebo",
    "TRT01PN": 0,
    "TRT01A": "Placebo",
    "TRT01AN": 0,
    "AGE": 75,
    "AGEGR1": "65-80",
    "AGEGR1N": 2,
    "SEX": "F",
    "SEXN": 2,
    "RACE": "WHITE",
    "ETHNIC": "NOT HISPANIC OR LATINO",
    "COUNTRY": "USA",
    "MMSETOT": 18,
    "MMSEGRP": "Moderate (15-19)",
    "MMSEGRPN": 2,
    "DISDUR": 66.4,
    "EDUCYR": 17,
    "RANDDT": "2013-10-04",
    "TRTSDT": "2013-10-04",
    "TRTEDT": "2013-11-21",
    "TRTDURD": 49,
    "CUMDOSE": 0,
    "COMPLFL": "N",
    "DCTREAS": "PROTOCOL VIOLATION",
    "EOSSTT": "DISCONTINUED",
    "DCSREAS": "PROTOCOL VIOLATION",
    "SAFFL": "Y",
    "ITTFL": "Y",
    "EFFFL": "Y"
  },
  {
    "STUDYID": "CDISCPILOT01",
    "USUBJID": "01-711-001",
    "SUBJID": 1,
    "SITEID": 711,
    "TRT01P": "Placebo",
    "TRT01PN": 0,
    "TRT01A": "Placebo",
    "TRT01AN": 0,
    "AGE": 78,
    "AGEGR1": "65-80",
    "AGEGR1N": 2,
    "SEX": "F",
    "SEXN": 2,
    "RACE": "WHITE",
    "ETHNIC": "NOT HISPANIC OR LATINO",
    "COUNTRY": "USA",
    "MMSETOT": 15,
    "MMSEGRP": "Moderate (15-19)",
    "MMSEGRPN": 2,
    "DISDUR": 34.8,
    "EDUCYR": 19,
    "RANDDT": "2013-08-06",
    "TRTSDT": "2013-08-06",
    "TRTEDT": "2013-09-16",
    "TRTDURD": 42,
    "CUMDOSE": 0,
    "COMPLFL": "N",
    "DCTREAS": "LACK OF EFFICACY",
    "EOSSTT": "DISCONTINUED",
    "DCSREAS": "LACK OF EFFICACY",
    "SAFFL": "Y",
    "ITTFL": "Y",
    "EFFFL": "Y"
  },
  {
    "STUDYID": "CDISCPILOT01",
    "USUBJID": "01-711-002",
    "SUBJID": 2,
    "SITEID": 711,
    "TRT01P": "Placebo",
    "TRT01PN": 0,
    "TRT01A": "Placebo",
    "TRT01AN": 0,
    "AGE": 71,
    "AGEGR1": "65-80",
    "AGEGR1N": 2,
    "SEX": "F",
    "SEXN": 2,
    "RACE": "WHITE",
    "ETHNIC": "NOT HISPANIC OR LATINO",
    "COUNTRY": "USA",
    "MMSETOT": 15,
    "MMSEGRP": "Moderate (15-19)",
    "MMSEGRPN": 2,
    "DISDUR": 42.7,
    "EDUCYR": 18,
    "RANDDT": "2013-01-03",
    "TRTSDT": "2013-01-03",
    "TRTEDT": "2013-06-19",
    "TRTDURD": 168,
    "CUMDOSE": 0,
    "COMPLFL": "Y",
    "DCTREAS": "COMPLETED",
    "EOSSTT": "COMPLETED",
    "DCSREAS": "COMPLETED",
    "SAFFL": "Y",
    "ITTFL": "Y",
    "EFFFL": "Y"
  },
  {
    "STUDYID": "CDISCPILOT01",
    "USUBJID": "01-711-003",
    "SUBJID": 3,
    "SITEID": 711,
    "TRT01P": "Xanomeline High Dose",
    "TRT01PN": 2,
    "TRT01A": "Xanomeline High Dose",
    "TRT01AN": 2,
    "AGE": 74,
    "AGEGR1": "65-80",
    "AGEGR1N": 2,
    "SEX": "F",
    "SEXN": 2,
    "RACE": "WHITE",
    "ETHNIC": "NOT HISPANIC OR LATINO",
    "COUNTRY": "USA",
    "MMSETOT": 24,
    "MMSEGRP": "Mild (20-24)",
    "MMSEGRPN": 3,
    "DISDUR": 45.7,
    "EDUCYR": 17,
    "RANDDT": "2013-11-19",
    "TRTSDT": "2013-11-19",
    "TRTEDT": "2013-12-23",
    "TRTDURD": 35,
    "CUMDOSE": 2829.2,
    "COMPLFL": "N",
    "DCTREAS": "ADVERSE EVENT",
    "EOSSTT": "DISCONTINUED",
    "DCSREAS": "ADVERSE EVENT",
    "SAFFL": "Y",
    "ITTFL": "Y",
    "EFFFL": "Y"
  },
  {
    "STUDYID": "CDISCPILOT01",
    "USUBJID": "01-711-004",
    "SUBJID": 4,
    "SITEID": 711,
    "TRT01P": "Xanomeline Low Dose",
    "TRT01PN": 1,
    "TRT01A": "Xanomeline Low Dose",
    "TRT01AN": 1,
    "AGE": 66,
    "AGEGR1": "65-80",
    "AGEGR1N": 2,
    "SEX": "M",
    "SEXN": 1,
    "RACE": "WHITE",
    "ETHNIC": "NOT HISPANIC OR LATINO",
    "COUNTRY": "USA",
    "MMSETOT": 18,
    "MMSEGRP": "Moderate (15-19)",
    "MMSEGRPN": 2,
    "DISDUR": 2,
    "EDUCYR": 19,
    "RANDDT": "2013-10-02",
    "TRTSDT": "2013-10-02",
    "TRTEDT": "2013-10-22",
    "TRTDURD": 21,
    "CUMDOSE": 1101.2,
    "COMPLFL": "N",
    "DCTREAS": "WITHDREW CONSENT",
    "EOSSTT": "DISCONTINUED",
    "DCSREAS": "WITHDREW CONSENT",
    "SAFFL": "Y",
    "ITTFL": "Y",
    "EFFFL": "Y"
  },
  {
    "STUDYID": "CDISCPILOT01",
    "USUBJID": "01-713-001",
    "SUBJID": 1,
    "SITEID": 713,
    "TRT01P": "Placebo",
    "TRT01PN": 0,
    "TRT01A": "Placebo",
    "TRT01AN": 0,
    "AGE": 75,
    "AGEGR1": "65-80",
    "AGEGR1N": 2,
    "SEX": "M",
    "SEXN": 1,
    "RACE": "WHITE",
    "ETHNIC": "NOT HISPANIC OR LATINO",
    "COUNTRY": "USA",
    "MMSETOT": 15,
    "MMSEGRP": "Moderate (15-19)",
    "MMSEGRPN": 2,
    "DISDUR": 32.1,
    "EDUCYR": 13,
    "RANDDT": "2013-01-03",
    "TRTSDT": "2013-01-03",
    "TRTEDT": "2013-04-17",
    "TRTDURD": 105,
    "CUMDOSE": 0,
    "COMPLFL": "N",
    "DCTREAS": "WITHDREW CONSENT",
    "EOSSTT": "DISCONTINUED",
    "DCSREAS": "WITHDREW CONSENT",
    "SAFFL": "Y",
    "ITTFL": "Y",
    "EFFFL": "Y"
  },
  {
    "STUDYID": "CDISCPILOT01",
    "USUBJID": "01-713-002",
    "SUBJID": 2,
    "SITEID": 713,
    "TRT01P": "Xanomeline Low Dose",
    "TRT01PN": 1,
    "TRT01A": "Xanomeline Low Dose",
    "TRT01AN": 1,
    "AGE": 64,
    "AGEGR1": "<65",
    "AGEGR1N": 1,
    "SEX": "M",
    "SEXN": 1,
    "RACE": "WHITE",
    "ETHNIC": "NOT HISPANIC OR LATINO",
    "COUNTRY": "USA",
    "MMSETOT": 17,
    "MMSEGRP": "Moderate (15-19)",
    "MMSEGRPN": 2,
    "DISDUR": 31.9,
    "EDUCYR": 15,
    "RANDDT": "2013-05-27",
    "TRTSDT": "2013-05-27",
    "TRTEDT": "2013-11-10",
    "TRTDURD": 168,
    "CUMDOSE": 8813.5,
    "COMPLFL": "Y",
    "DCTREAS": "COMPLETED",
    "EOSSTT": "COMPLETED",
    "DCSREAS": "COMPLETED",
    "SAFFL": "Y",
    "ITTFL": "Y",
    "EFFFL": "Y"
  },
  {
    "STUDYID": "CDISCPILOT01",
    "USUBJID": "01-713-003",
    "SUBJID": 3,
    "SITEID": 713,
    "TRT01P": "Xanomeline High Dose",
    "TRT01PN": 2,
    "TRT01A": "Xanomeline High Dose",
    "TRT01AN": 2,
    "AGE": 75,
    "AGEGR1": "65-80",
    "AGEGR1N": 2,
    "SEX": "M",
    "SEXN": 1,
    "RACE": "WHITE",
    "ETHNIC": "NOT HISPANIC OR LATINO",
    "COUNTRY": "USA",
    "MMSETOT": 16,
    "MMSEGRP": "Moderate (15-19)",
    "MMSEGRPN": 2,
    "DISDUR": 9.9,
    "EDUCYR": 9,
    "RANDDT": "2013-09-19",
    "TRTSDT": "2013-09-19",
    "TRTEDT": "2014-03-05",
    "TRTDURD": 168,
    "CUMDOSE": 13575,
    "COMPLFL": "Y",
    "DCTREAS": "COMPLETED",
    "EOSSTT": "COMPLETED",
    "DCSREAS": "COMPLETED",
    "SAFFL": "Y",
    "ITTFL": "Y",
    "EFFFL": "Y"
  },
  {
    "STUDYID": "CDISCPILOT01",
    "USUBJID": "01-713-004",
    "SUBJID": 4,
    "SITEID": 713,
    "TRT01P": "Xanomeline High Dose",
    "TRT01PN": 2,
    "TRT01A": "Xanomeline High Dose",
    "TRT01AN": 2,
    "AGE": 81,
    "AGEGR1": ">80",
    "AGEGR1N": 3,
    "SEX": "F",
    "SEXN": 2,
    "RACE": "WHITE",
    "ETHNIC": "NOT HISPANIC OR LATINO",
    "COUNTRY": "USA",
    "MMSETOT": 14,
    "MMSEGRP": "Severe (0-14)",
    "MMSEGRPN": 1,
    "DISDUR": 32.8,
    "EDUCYR": 12,
    "RANDDT": "2013-06-21",
    "TRTSDT": "2013-06-21",
    "TRTEDT": "2013-11-14",
    "TRTDURD": 147,
    "CUMDOSE": 11552.4,
    "COMPLFL": "N",
    "DCTREAS": "WITHDREW CONSENT",
    "EOSSTT": "DISCONTINUED",
    "DCSREAS": "WITHDREW CONSENT",
    "SAFFL": "Y",
    "ITTFL": "Y",
    "EFFFL": "Y"
  },
  {
    "STUDYID": "CDISCPILOT01",
    "USUBJID": "01-713-005",
    "SUBJID": 5,
    "SITEID": 713,
    "TRT01P": "Placebo",
    "TRT01PN": 0,
    "TRT01A": "Placebo",
    "TRT01AN": 0,
    "AGE": 89,
    "AGEGR1": ">80",
    "AGEGR1N": 3,
    "SEX": "M",
    "SEXN": 1,
    "RACE": "WHITE",
    "ETHNIC": "NOT HISPANIC OR LATINO",
    "COUNTRY": "USA",
    "MMSETOT": 10,
    "MMSEGRP": "Severe (0-14)",
    "MMSEGRPN": 1,
    "DISDUR": 61.5,
    "EDUCYR": 16,
    "RANDDT": "2013-07-12",
    "TRTSDT": "2013-07-12",
    "TRTEDT": "2013-11-14",
    "TRTDURD": 126,
    "CUMDOSE": 0,
    "COMPLFL": "N",
    "DCTREAS": "ADVERSE EVENT",
    "EOSSTT": "DISCONTINUED",
    "DCSREAS": "ADVERSE EVENT",
    "SAFFL": "Y",
    "ITTFL": "Y",
    "EFFFL": "Y"
  },
  {
    "STUDYID": "CDISCPILOT01",
    "USUBJID": "01-713-006",
    "SUBJID": 6,
    "SITEID": 713,
    "TRT01P": "Xanomeline High Dose",
    "TRT01PN": 2,
    "TRT01A": "Xanomeline High Dose",
    "TRT01AN": 2,
    "AGE": 69,
    "AGEGR1": "65-80",
    "AGEGR1N": 2,
    "SEX": "F",
    "SEXN": 2,
    "RACE": "WHITE",
    "ETHNIC": "NOT HISPANIC OR LATINO",
    "COUNTRY": "USA",
    "MMSETOT": 24,
    "MMSEGRP": "Mild (20-24)",
    "MMSEGRPN": 3,
    "DISDUR": 46.3,
    "EDUCYR": 14,
    "RANDDT": "2013-10-23",
    "TRTSDT": "2013-10-23",
    "TRTEDT": "2013-11-12",
    "TRTDURD": 21,
    "CUMDOSE": 1633.2,
    "COMPLFL": "N",
    "DCTREAS": "ADVERSE EVENT",
    "EOSSTT": "DISCONTINUED",
    "DCSREAS": "ADVERSE EVENT",
    "SAFFL": "Y",
    "ITTFL": "Y",
    "EFFFL": "Y"
  },
  {
    "STUDYID": "CDISCPILOT01",
    "USUBJID": "01-713-007",
    "SUBJID": 7,
    "SITEID": 713,
    "TRT01P": "Placebo",
    "TRT01PN": 0,
    "TRT01A": "Placebo",
    "TRT01AN": 0,
    "AGE": 73,
    "AGEGR1": "65-80",
    "AGEGR1N": 2,
    "SEX": "M",
    "SEXN": 1,
    "RACE": "WHITE",
    "ETHNIC": "NOT HISPANIC OR LATINO",
    "COUNTRY": "USA",
    "MMSETOT": 22,
    "MMSEGRP": "Mild (20-24)",
    "MMSEGRPN": 3,
    "DISDUR": 74.6,
    "EDUCYR": 18,
    "RANDDT": "2013-04-23",
    "TRTSDT": "2013-04-23",
    "TRTEDT": "2013-06-24",
    "TRTDURD": 63,
    "CUMDOSE": 0,
    "COMPLFL": "N",
    "DCTREAS": "ADVERSE EVENT",
    "EOSSTT": "DISCONTINUED",
    "DCSREAS": "ADVERSE EVENT",
    "SAFFL": "Y",
    "ITTFL": "Y",
    "EFFFL": "Y"
  },
  {
    "STUDYID": "CDISCPILOT01",
    "USUBJID": "01-713-008",
    "SUBJID": 8,
    "SITEID": 713,
    "TRT01P": "Xanomeline Low Dose",
    "TRT01PN": 1,
    "TRT01A": "Xanomeline Low Dose",
    "TRT01AN": 1,
    "AGE": 65,
    "AGEGR1": "65-80",
    "AGEGR1N": 2,
    "SEX": "F",
    "SEXN": 2,
    "RACE": "WHITE",
    "ETHNIC": "NOT HISPANIC OR LATINO",
    "COUNTRY": "USA",
    "MMSETOT": 16,
    "MMSEGRP": "Moderate (15-19)",
    "MMSEGRPN": 2,
    "DISDUR": 51.5,
    "EDUCYR": 19,
    "RANDDT": "2013-12-08",
    "TRTSDT": "2013-12-08",
    "TRTEDT": "2014-02-15",
    "TRTDURD": 70,
    "CUMDOSE": 3710.9,
    "COMPLFL": "N",
    "DCTREAS": "ADVERSE EVENT",
    "EOSSTT": "DISCONTINUED",
    "DCSREAS": "ADVERSE EVENT",
    "SAFFL": "Y",
    "ITTFL": "Y",
    "EFFFL": "Y"
  },
  {
    "STUDYID": "CDISCPILOT01",
    "USUBJID": "01-714-001",
    "SUBJID": 1,
    "SITEID": 714,
    "TRT01P": "Placebo",
    "TRT01PN": 0,
    "TRT01A": "Placebo",
    "TRT01AN": 0,
    "AGE": 68,
    "AGEGR1": "65-80",
    "AGEGR1N": 2,
    "SEX": "M",
    "SEXN": 1,
    "RACE": "WHITE",
    "ETHNIC": "NOT HISPANIC OR LATINO",
    "COUNTRY": "USA",
    "MMSETOT": 14,
    "MMSEGRP": "Severe (0-14)",
    "MMSEGRPN": 1,
    "DISDUR": 53.7,
    "EDUCYR": 10,
    "RANDDT": "2013-10-06",
    "TRTSDT": "2013-10-06",
    "TRTEDT": "2013-11-02",
    "TRTDURD": 28,
    "CUMDOSE": 0,
    "COMPLFL": "N",
    "DCTREAS": "ADVERSE EVENT",
    "EOSSTT": "DISCONTINUED",
    "DCSREAS": "ADVERSE EVENT",
    "SAFFL": "Y",
    "ITTFL": "Y",
    "EFFFL": "Y"
  },
  {
    "STUDYID": "CDISCPILOT01",
    "USUBJID": "01-714-002",
    "SUBJID": 2,
    "SITEID": 714,
    "TRT01P": "Xanomeline Low Dose",
    "TRT01PN": 1,
    "TRT01A": "Xanomeline Low Dose",
    "TRT01AN": 1,
    "AGE": 84,
    "AGEGR1": ">80",
    "AGEGR1N": 3,
    "SEX": "M",
    "SEXN": 1,
    "RACE": "WHITE",
    "ETHNIC": "NOT HISPANIC OR LATINO",
    "COUNTRY": "USA",
    "MMSETOT": 15,
    "MMSEGRP": "Moderate (15-19)",
    "MMSEGRPN": 2,
    "DISDUR": 60.6,
    "EDUCYR": 12,
    "RANDDT": "2013-10-26",
    "TRTSDT": "2013-10-26",
    "TRTEDT": "2013-11-29",
    "TRTDURD": 35,
    "CUMDOSE": 1888.7,
    "COMPLFL": "N",
    "DCTREAS": "ADVERSE EVENT",
    "EOSSTT": "DISCONTINUED",
    "DCSREAS": "ADVERSE EVENT",
    "SAFFL": "Y",
    "ITTFL": "Y",
    "EFFFL": "Y"
  },
  {
    "STUDYID": "CDISCPILOT01",
    "USUBJID": "01-714-003",
    "SUBJID": 3,
    "SITEID": 714,
    "TRT01P": "Xanomeline Low Dose",
    "TRT01PN": 1,
    "TRT01A": "Xanomeline Low Dose",
    "TRT01AN": 1,
    "AGE": 69,
    "AGEGR1": "65-80",
    "AGEGR1N": 2,
    "SEX": "F",
    "SEXN": 2,
    "RACE": "WHITE",
    "ETHNIC": "NOT HISPANIC OR LATINO",
    "COUNTRY": "USA",
    "MMSETOT": 16,
    "MMSEGRP": "Moderate (15-19)",
    "MMSEGRPN": 2,
    "DISDUR": 57.5,
    "EDUCYR": 13,
    "RANDDT": "2013-10-24",
    "TRTSDT": "2013-10-24",
    "TRTEDT": "2014-04-09",
    "TRTDURD": 168,
    "CUMDOSE": 8897.8,
    "COMPLFL": "Y",
    "DCTREAS": "COMPLETED",
    "EOSSTT": "COMPLETED",
    "DCSREAS": "COMPLETED",
    "SAFFL": "Y",
    "ITTFL": "Y",
    "EFFFL": "Y"
  },
  {
    "STUDYID": "CDISCPILOT01",
    "USUBJID": "01-715-001",
    "SUBJID": 1,
    "SITEID": 715,
    "TRT01P": "Xanomeline High Dose",
    "TRT01PN": 2,
    "TRT01A": "Xanomeline High Dose",
    "TRT01AN": 2,
    "AGE": 70,
    "AGEGR1": "65-80",
    "AGEGR1N": 2,
    "SEX": "F",
    "SEXN": 2,
    "RACE": "WHITE",
    "ETHNIC": "NOT HISPANIC OR LATINO",
    "COUNTRY": "USA",
    "MMSETOT": 24,
    "MMSEGRP": "Mild (20-24)",
    "MMSEGRPN": 3,
    "DISDUR": 55.3,
    "EDUCYR": 13,
    "RANDDT": "2013-08-01",
    "TRTSDT": "2013-08-01",
    "TRTEDT": "2014-01-15",
    "TRTDURD": 168,
    "CUMDOSE": 13028.6,
    "COMPLFL": "Y",
    "DCTREAS": "COMPLETED",
    "EOSSTT": "DISCONTINUED",
    "DCSREAS": "WITHDREW CONSENT",
    "SAFFL": "Y",
    "ITTFL": "Y",
    "EFFFL": "Y"
  },
  {
    "STUDYID": "CDISCPILOT01",
    "USUBJID": "01-715-002",
    "SUBJID": 2,
    "SITEID": 715,
    "TRT01P": "Xanomeline High Dose",
    "TRT01PN": 2,
    "TRT01A": "Xanomeline High Dose",
    "TRT01AN": 2,
    "AGE": 59,
    "AGEGR1": "<65",
    "AGEGR1N": 1,
    "SEX": "F",
    "SEXN": 2,
    "RACE": "BLACK OR AFRICAN AMERICAN",
    "ETHNIC": "NOT HISPANIC OR LATINO",
    "COUNTRY": "USA",
    "MMSETOT": 19,
    "MMSEGRP": "Moderate (15-19)",
    "MMSEGRPN": 2,
    "DISDUR": 17,
    "EDUCYR": 13,
    "RANDDT": "2013-05-30",
    "TRTSDT": "2013-05-30",
    "TRTEDT": "2013-09-11",
    "TRTDURD": 105,
    "CUMDOSE": 8501.1,
    "COMPLFL": "N",
    "DCTREAS": "ADVERSE EVENT",
    "EOSSTT": "DISCONTINUED",
    "DCSREAS": "ADVERSE EVENT",
    "SAFFL": "Y",
    "ITTFL": "Y",
    "EFFFL": "Y"
  },
  {
    "STUDYID": "CDISCPILOT01",
    "USUBJID": "01-715-003",
    "SUBJID": 3,
    "SITEID": 715,
    "TRT01P": "Placebo",
    "TRT01PN": 0,
    "TRT01A": "Placebo",
    "TRT01AN": 0,
    "AGE": 68,
    "AGEGR1": "65-80",
    "AGEGR1N": 2,
    "SEX": "M",
    "SEXN": 1,
    "RACE": "HISPANIC OR LATINO",
    "ETHNIC": "NOT HISPANIC OR LATINO",
    "COUNTRY": "USA",
    "MMSETOT": 21,
    "MMSEGRP": "Mild (20-24)",
    "MMSEGRPN": 3,
    "DISDUR": 2,
    "EDUCYR": 6,
    "RANDDT": "2013-10-16",
    "TRTSDT": "2013-10-16",
    "TRTEDT": "2013-11-26",
    "TRTDURD": 42,
    "CUMDOSE": 0,
    "COMPLFL": "N",
    "DCTREAS": "PROTOCOL VIOLATION",
    "EOSSTT": "DISCONTINUED",
    "DCSREAS": "PROTOCOL VIOLATION",
    "SAFFL": "Y",
    "ITTFL": "Y",
    "EFFFL": "Y"
  },
  {
    "STUDYID": "CDISCPILOT01",
    "USUBJID": "01-715-004",
    "SUBJID": 4,
    "SITEID": 715,
    "TRT01P": "Placebo",
    "TRT01PN": 0,
    "TRT01A": "Placebo",
    "TRT01AN": 0,
    "AGE": 76,
    "AGEGR1": "65-80",
    "AGEGR1N": 2,
    "SEX": "F",
    "SEXN": 2,
    "RACE": "WHITE",
    "ETHNIC": "NOT HISPANIC OR LATINO",
    "COUNTRY": "USA",
    "MMSETOT": 22,
    "MMSEGRP": "Mild (20-24)",
    "MMSEGRPN": 3,
    "DISDUR": 56.9,
    "EDUCYR": 15,
    "RANDDT": "2013-10-21",
    "TRTSDT": "2013-10-21",
    "TRTEDT": "2014-04-06",
    "TRTDURD": 168,
    "CUMDOSE": 0,
    "COMPLFL": "Y",
    "DCTREAS": "COMPLETED",
    "EOSSTT": "COMPLETED",
    "DCSREAS": "COMPLETED",
    "SAFFL": "Y",
    "ITTFL": "Y",
    "EFFFL": "Y"
  },
  {
    "STUDYID": "CDISCPILOT01",
    "USUBJID": "01-715-005",
    "SUBJID": 5,
    "SITEID": 715,
    "TRT01P": "Placebo",
    "TRT01PN": 0,
    "TRT01A": "Placebo",
    "TRT01AN": 0,
    "AGE": 66,
    "AGEGR1": "65-80",
    "AGEGR1N": 2,
    "SEX": "F",
    "SEXN": 2,
    "RACE": "WHITE",
    "ETHNIC": "NOT HISPANIC OR LATINO",
    "COUNTRY": "USA",
    "MMSETOT": 15,
    "MMSEGRP": "Moderate (15-19)",
    "MMSEGRPN": 2,
    "DISDUR": 79.2,
    "EDUCYR": 14,
    "RANDDT": "2013-12-08",
    "TRTSDT": "2013-12-08",
    "TRTEDT": "2014-02-15",
    "TRTDURD": 70,
    "CUMDOSE": 0,
    "COMPLFL": "N",
    "DCTREAS": "ADVERSE EVENT",
    "EOSSTT": "DISCONTINUED",
    "DCSREAS": "ADVERSE EVENT",
    "SAFFL": "Y",
    "ITTFL": "Y",
    "EFFFL": "Y"
  },
  {
    "STUDYID": "CDISCPILOT01",
    "USUBJID": "01-715-006",
    "SUBJID": 6,
    "SITEID": 715,
    "TRT01P": "Xanomeline Low Dose",
    "TRT01PN": 1,
    "TRT01A": "Xanomeline Low Dose",
    "TRT01AN": 1,
    "AGE": 79,
    "AGEGR1": "65-80",
    "AGEGR1N": 2,
    "SEX": "F",
    "SEXN": 2,
    "RACE": "WHITE",
    "ETHNIC": "NOT HISPANIC OR LATINO",
    "COUNTRY": "USA",
    "MMSETOT": 18,
    "MMSEGRP": "Moderate (15-19)",
    "MMSEGRPN": 2,
    "DISDUR": 29.7,
    "EDUCYR": 14,
    "RANDDT": "2013-02-08",
    "TRTSDT": "2013-02-08",
    "TRTEDT": "2013-04-11",
    "TRTDURD": 63,
    "CUMDOSE": 3301.7,
    "COMPLFL": "N",
    "DCTREAS": "ADVERSE EVENT",
    "EOSSTT": "DISCONTINUED",
    "DCSREAS": "ADVERSE EVENT",
    "SAFFL": "Y",
    "ITTFL": "Y",
    "EFFFL": "Y"
  },
  {
    "STUDYID": "CDISCPILOT01",
    "USUBJID": "01-715-007",
    "SUBJID": 7,
    "SITEID": 715,
    "TRT01P": "Placebo",
    "TRT01PN": 0,
    "TRT01A": "Placebo",
    "TRT01AN": 0,
    "AGE": 62,
    "AGEGR1": "<65",
    "AGEGR1N": 1,
    "SEX": "F",
    "SEXN": 2,
    "RACE": "WHITE",
    "ETHNIC": "NOT HISPANIC OR LATINO",
    "COUNTRY": "USA",
    "MMSETOT": 16,
    "MMSEGRP": "Moderate (15-19)",
    "MMSEGRPN": 2,
    "DISDUR": 67.6,
    "EDUCYR": 17,
    "RANDDT": "2013-11-07",
    "TRTSDT": "2013-11-07",
    "TRTEDT": "2014-04-23",
    "TRTDURD": 168,
    "CUMDOSE": 0,
    "COMPLFL": "Y",
    "DCTREAS": "COMPLETED",
    "EOSSTT": "COMPLETED",
    "DCSREAS": "COMPLETED",
    "SAFFL": "Y",
    "ITTFL": "Y",
    "EFFFL": "Y"
  },
  {
    "STUDYID": "CDISCPILOT01",
    "USUBJID": "01-716-001",
    "SUBJID": 1,
    "SITEID": 716,
    "TRT01P": "Xanomeline Low Dose",
    "TRT01PN": 1,
    "TRT01A": "Xanomeline Low Dose",
    "TRT01AN": 1,
    "AGE": 76,
    "AGEGR1": "65-80",
    "AGEGR1N": 2,
    "SEX": "M",
    "SEXN": 1,
    "RACE": "BLACK OR AFRICAN AMERICAN",
    "ETHNIC": "NOT HISPANIC OR LATINO",
    "COUNTRY": "USA",
    "MMSETOT": 20,
    "MMSEGRP": "Mild (20-24)",
    "MMSEGRPN": 3,
    "DISDUR": 24.6,
    "EDUCYR": 13,
    "RANDDT": "2013-05-19",
    "TRTSDT": "2013-05-19",
    "TRTEDT": "2013-06-08",
    "TRTDURD": 21,
    "CUMDOSE": 1123,
    "COMPLFL": "N",
    "DCTREAS": "ADVERSE EVENT",
    "EOSSTT": "DISCONTINUED",
    "DCSREAS": "ADVERSE EVENT",
    "SAFFL": "Y",
    "ITTFL": "Y",
    "EFFFL": "Y"
  },
  {
    "STUDYID": "CDISCPILOT01",
    "USUBJID": "01-716-002",
    "SUBJID": 2,
    "SITEID": 716,
    "TRT01P": "Xanomeline Low Dose",
    "TRT01PN": 1,
    "TRT01A": "Xanomeline Low Dose",
    "TRT01AN": 1,
    "AGE": 62,
    "AGEGR1": "<65",
    "AGEGR1N": 1,
    "SEX": "F",
    "SEXN": 2,
    "RACE": "WHITE",
    "ETHNIC": "NOT HISPANIC OR LATINO",
    "COUNTRY": "USA",
    "MMSETOT": 17,
    "MMSEGRP": "Moderate (15-19)",
    "MMSEGRPN": 2,
    "DISDUR": 28.3,
    "EDUCYR": 14,
    "RANDDT": "2013-08-27",
    "TRTSDT": "2013-08-27",
    "TRTEDT": "2013-10-21",
    "TRTDURD": 56,
    "CUMDOSE": 2875,
    "COMPLFL": "N",
    "DCTREAS": "ADVERSE EVENT",
    "EOSSTT": "DISCONTINUED",
    "DCSREAS": "ADVERSE EVENT",
    "SAFFL": "Y",
    "ITTFL": "Y",
    "EFFFL": "Y"
  },
  {
    "STUDYID": "CDISCPILOT01",
    "USUBJID": "01-716-003",
    "SUBJID": 3,
    "SITEID": 716,
    "TRT01P": "Placebo",
    "TRT01PN": 0,
    "TRT01A": "Placebo",
    "TRT01AN": 0,
    "AGE": 76,
    "AGEGR1": "65-80",
    "AGEGR1N": 2,
    "SEX": "F",
    "SEXN": 2,
    "RACE": "WHITE",
    "ETHNIC": "NOT HISPANIC OR LATINO",
    "COUNTRY": "USA",
    "MMSETOT": 22,
    "MMSEGRP": "Mild (20-24)",
    "MMSEGRPN": 3,
    "DISDUR": 65.1,
    "EDUCYR": 15,
    "RANDDT": "2013-11-13",
    "TRTSDT": "2013-11-13",
    "TRTEDT": "2014-04-29",
    "TRTDURD": 168,
    "CUMDOSE": 0,
    "COMPLFL": "Y",
    "DCTREAS": "COMPLETED",
    "EOSSTT": "COMPLETED",
    "DCSREAS": "COMPLETED",
    "SAFFL": "Y",
    "ITTFL": "Y",
    "EFFFL": "Y"
  },
  {
    "STUDYID": "CDISCPILOT01",
    "USUBJID": "01-716-004",
    "SUBJID": 4,
    "SITEID": 716,
    "TRT01P": "Xanomeline High Dose",
    "TRT01PN": 2,
    "TRT01A": "Xanomeline High Dose",
    "TRT01AN": 2,
    "AGE": 70,
    "AGEGR1": "65-80",
    "AGEGR1N": 2,
    "SEX": "F",
    "SEXN": 2,
    "RACE": "WHITE",
    "ETHNIC": "NOT HISPANIC OR LATINO",
    "COUNTRY": "USA",
    "MMSETOT": 18,
    "MMSEGRP": "Moderate (15-19)",
    "MMSEGRPN": 2,
    "DISDUR": 47.4,
    "EDUCYR": 14,
    "RANDDT": "2013-09-08",
    "TRTSDT": "2013-09-08",
    "TRTEDT": "2014-02-22",
    "TRTDURD": 168,
    "CUMDOSE": 12986.5,
    "COMPLFL": "Y",
    "DCTREAS": "COMPLETED",
    "EOSSTT": "COMPLETED",
    "DCSREAS": "COMPLETED",
    "SAFFL": "Y",
    "ITTFL": "Y",
    "EFFFL": "Y"
  },
  {
    "STUDYID": "CDISCPILOT01",
    "USUBJID": "01-716-005",
    "SUBJID": 5,
    "SITEID": 716,
    "TRT01P": "Xanomeline High Dose",
    "TRT01PN": 2,
    "TRT01A": "Xanomeline High Dose",
    "TRT01AN": 2,
    "AGE": 81,
    "AGEGR1": ">80",
    "AGEGR1N": 3,
    "SEX": "M",
    "SEXN": 1,
    "RACE": "WHITE",
    "ETHNIC": "NOT HISPANIC OR LATINO",
    "COUNTRY": "USA",
    "MMSETOT": 23,
    "MMSEGRP": "Mild (20-24)",
    "MMSEGRPN": 3,
    "DISDUR": 67.2,
    "EDUCYR": 11,
    "RANDDT": "2013-08-31",
    "TRTSDT": "2013-08-31",
    "TRTEDT": "2013-09-13",
    "TRTDURD": 14,
    "CUMDOSE": 1078.2,
    "COMPLFL": "N",
    "DCTREAS": "PROTOCOL VIOLATION",
    "EOSSTT": "DISCONTINUED",
    "DCSREAS": "PROTOCOL VIOLATION",
    "SAFFL": "Y",
    "ITTFL": "Y",
    "EFFFL": "Y"
  },
  {
    "STUDYID": "CDISCPILOT01",
    "USUBJID": "01-716-006",
    "SUBJID": 6,
    "SITEID": 716,
    "TRT01P": "Xanomeline High Dose",
    "TRT01PN": 2,
    "TRT01A": "Xanomeline High Dose",
    "TRT01AN": 2,
    "AGE": 76,
    "AGEGR1": "65-80",
    "AGEGR1N": 2,
    "SEX": "F",
    "SEXN": 2,
    "RACE": "WHITE",
    "ETHNIC": "NOT HISPANIC OR LATINO",
    "COUNTRY": "USA",
    "MMSETOT": 24,
    "MMSEGRP": "Mild (20-24)",
    "MMSEGRPN": 3,
    "DISDUR": 29.7,
    "EDUCYR": 7,
    "RANDDT": "2013-11-10",
    "TRTSDT": "2013-11-10",
    "TRTEDT": "2014-04-19",
    "TRTDURD": 161,
    "CUMDOSE": 12627.9,
    "COMPLFL": "N",
    "DCTREAS": "ADVERSE EVENT",
    "EOSSTT": "DISCONTINUED",
    "DCSREAS": "ADVERSE EVENT",
    "SAFFL": "Y",
    "ITTFL": "Y",
    "EFFFL": "Y"
  },
  {
    "STUDYID": "CDISCPILOT01",
    "USUBJID": "01-716-007",
    "SUBJID": 7,
    "SITEID": 716,
    "TRT01P": "Placebo",
    "TRT01PN": 0,
    "TRT01A": "Placebo",
    "TRT01AN": 0,
    "AGE": 84,
    "AGEGR1": ">80",
    "AGEGR1N": 3,
    "SEX": "F",
    "SEXN": 2,
    "RACE": "WHITE",
    "ETHNIC": "NOT HISPANIC OR LATINO",
    "COUNTRY": "USA",
    "MMSETOT": 22,
    "MMSEGRP": "Mild (20-24)",
    "MMSEGRPN": 3,
    "DISDUR": 2,
    "EDUCYR": 10,
    "RANDDT": "2013-03-18",
    "TRTSDT": "2013-03-18",
    "TRTEDT": "2013-09-01",
    "TRTDURD": 168,
    "CUMDOSE": 0,
    "COMPLFL": "Y",
    "DCTREAS": "COMPLETED",
    "EOSSTT": "COMPLETED",
    "DCSREAS": "COMPLETED",
    "SAFFL": "Y",
    "ITTFL": "Y",
    "EFFFL": "Y"
  },
  {
    "STUDYID": "CDISCPILOT01",
    "USUBJID": "01-716-008",
    "SUBJID": 8,
    "SITEID": 716,
    "TRT01P": "Xanomeline High Dose",
    "TRT01PN": 2,
    "TRT01A": "Xanomeline High Dose",
    "TRT01AN": 2,
    "AGE": 78,
    "AGEGR1": "65-80",
    "AGEGR1N": 2,
    "SEX": "F",
    "SEXN": 2,
    "RACE": "WHITE",
    "ETHNIC": "NOT HISPANIC OR LATINO",
    "COUNTRY": "USA",
    "MMSETOT": 13,
    "MMSEGRP": "Severe (0-14)",
    "MMSEGRPN": 1,
    "DISDUR": 3.2,
    "EDUCYR": 7,
    "RANDDT": "2013-04-22",
    "TRTSDT": "2013-04-22",
    "TRTEDT": "2013-06-23",
    "TRTDURD": 63,
    "CUMDOSE": 4940,
    "COMPLFL": "N",
    "DCTREAS": "ADVERSE EVENT",
    "EOSSTT": "DISCONTINUED",
    "DCSREAS": "ADVERSE EVENT",
    "SAFFL": "Y",
    "ITTFL": "Y",
    "EFFFL": "Y"
  },
  {
    "STUDYID": "CDISCPILOT01",
    "USUBJID": "01-716-009",
    "SUBJID": 9,
    "SITEID": 716,
    "TRT01P": "Xanomeline High Dose",
    "TRT01PN": 2,
    "TRT01A": "Xanomeline High Dose",
    "TRT01AN": 2,
    "AGE": 78,
    "AGEGR1": "65-80",
    "AGEGR1N": 2,
    "SEX": "M",
    "SEXN": 1,
    "RACE": "WHITE",
    "ETHNIC": "NOT HISPANIC OR LATINO",
    "COUNTRY": "USA",
    "MMSETOT": 19,
    "MMSEGRP": "Moderate (15-19)",
    "MMSEGRPN": 2,
    "DISDUR": 90,
    "EDUCYR": 14,
    "RANDDT": "2013-09-23",
    "TRTSDT": "2013-09-23",
    "TRTEDT": "2014-02-09",
    "TRTDURD": 140,
    "CUMDOSE": 11193.8,
    "COMPLFL": "N",
    "DCTREAS": "ADVERSE EVENT",
    "EOSSTT": "DISCONTINUED",
    "DCSREAS": "ADVERSE EVENT",
    "SAFFL": "Y",
    "ITTFL": "Y",
    "EFFFL": "Y"
  },
  {
    "STUDYID": "CDISCPILOT01",
    "USUBJID": "01-716-010",
    "SUBJID": 10,
    "SITEID": 716,
    "TRT01P": "Xanomeline High Dose",
    "TRT01PN": 2,
    "TRT01A": "Xanomeline High Dose",
    "TRT01AN": 2,
    "AGE": 87,
    "AGEGR1": ">80",
    "AGEGR1N": 3,
    "SEX": "F",
    "SEXN": 2,
    "RACE": "BLACK OR AFRICAN AMERICAN",
    "ETHNIC": "NOT HISPANIC OR LATINO",
    "COUNTRY": "USA",
    "MMSETOT": 16,
    "MMSEGRP": "Moderate (15-19)",
    "MMSEGRPN": 2,
    "DISDUR": 28.3,
    "EDUCYR": 19,
    "RANDDT": "2013-12-28",
    "TRTSDT": "2013-12-28",
    "TRTEDT": "2014-04-25",
    "TRTDURD": 119,
    "CUMDOSE": 9177.9,
    "COMPLFL": "N",
    "DCTREAS": "ADVERSE EVENT",
    "EOSSTT": "DISCONTINUED",
    "DCSREAS": "ADVERSE EVENT",
    "SAFFL": "Y",
    "ITTFL": "Y",
    "EFFFL": "Y"
  },
  {
    "STUDYID": "CDISCPILOT01",
    "USUBJID": "01-716-011",
    "SUBJID": 11,
    "SITEID": 716,
    "TRT01P": "Xanomeline High Dose",
    "TRT01PN": 2,
    "TRT01A": "Xanomeline High Dose",
    "TRT01AN": 2,
    "AGE": 76,
    "AGEGR1": "65-80",
    "AGEGR1N": 2,
    "SEX": "M",
    "SEXN": 1,
    "RACE": "WHITE",
    "ETHNIC": "NOT HISPANIC OR LATINO",
    "COUNTRY": "USA",
    "MMSETOT": 13,
    "MMSEGRP": "Severe (0-14)",
    "MMSEGRPN": 1,
    "DISDUR": 44.6,
    "EDUCYR": 12,
    "RANDDT": "2013-12-30",
    "TRTSDT": "2013-12-30",
    "TRTEDT": "2014-01-26",
    "TRTDURD": 28,
    "CUMDOSE": 2190,
    "COMPLFL": "N",
    "DCTREAS": "ADVERSE EVENT",
    "EOSSTT": "DISCONTINUED",
    "DCSREAS": "ADVERSE EVENT",
    "SAFFL": "Y",
    "ITTFL": "Y",
    "EFFFL": "Y"
  },
  {
    "STUDYID": "CDISCPILOT01",
    "USUBJID": "01-716-012",
    "SUBJID": 12,
    "SITEID": 716,
    "TRT01P": "Placebo",
    "TRT01PN": 0,
    "TRT01A": "Placebo",
    "TRT01AN": 0,
    "AGE": 64,
    "AGEGR1": "<65",
    "AGEGR1N": 1,
    "SEX": "F",
    "SEXN": 2,
    "RACE": "OTHER",
    "ETHNIC": "NOT HISPANIC OR LATINO",
    "COUNTRY": "USA",
    "MMSETOT": 15,
    "MMSEGRP": "Moderate (15-19)",
    "MMSEGRPN": 2,
    "DISDUR": 50.6,
    "EDUCYR": 12,
    "RANDDT": "2013-11-21",
    "TRTSDT": "2013-11-21",
    "TRTEDT": "2014-01-08",
    "TRTDURD": 49,
    "CUMDOSE": 0,
    "COMPLFL": "N",
    "DCTREAS": "WITHDREW CONSENT",
    "EOSSTT": "DISCONTINUED",
    "DCSREAS": "WITHDREW CONSENT",
    "SAFFL": "Y",
    "ITTFL": "Y",
    "EFFFL": "Y"
  },
  {
    "STUDYID": "CDISCPILOT01",
    "USUBJID": "01-716-013",
    "SUBJID": 13,
    "SITEID": 716,
    "TRT01P": "Xanomeline Low Dose",
    "TRT01PN": 1,
    "TRT01A": "Xanomeline Low Dose",
    "TRT01AN": 1,
    "AGE": 73,
    "AGEGR1": "65-80",
    "AGEGR1N": 2,
    "SEX": "F",
    "SEXN": 2,
    "RACE": "WHITE",
    "ETHNIC": "NOT HISPANIC OR LATINO",
    "COUNTRY": "USA",
    "MMSETOT": 17,
    "MMSEGRP": "Moderate (15-19)",
    "MMSEGRPN": 2,
    "DISDUR": 44.3,
    "EDUCYR": 6,
    "RANDDT": "2013-11-19",
    "TRTSDT": "2013-11-19",
    "TRTEDT": "2014-01-13",
    "TRTDURD": 56,
    "CUMDOSE": 2921.2,
    "COMPLFL": "N",
    "DCTREAS": "ADVERSE EVENT",
    "EOSSTT": "DISCONTINUED",
    "DCSREAS": "ADVERSE EVENT",
    "SAFFL": "Y",
    "ITTFL": "Y",
    "EFFFL": "Y"
  },
  {
    "STUDYID": "CDISCPILOT01",
    "USUBJID": "01-716-014",
    "SUBJID": 14,
    "SITEID": 716,
    "TRT01P": "Xanomeline High Dose",
    "TRT01PN": 2,
    "TRT01A": "Xanomeline High Dose",
    "TRT01AN": 2,
    "AGE": 69,
    "AGEGR1": "65-80",
    "AGEGR1N": 2,
    "SEX": "F",
    "SEXN": 2,
    "RACE": "WHITE",
    "ETHNIC": "NOT HISPANIC OR LATINO",
    "COUNTRY": "USA",
    "MMSETOT": 16,
    "MMSEGRP": "Moderate (15-19)",
    "MMSEGRPN": 2,
    "DISDUR": 10.2,
    "EDUCYR": 13,
    "RANDDT": "2013-12-26",
    "TRTSDT": "2013-12-26",
    "TRTEDT": "2014-01-08",
    "TRTDURD": 14,
    "CUMDOSE": 1100.3,
    "COMPLFL": "N",
    "DCTREAS": "ADVERSE EVENT",
    "EOSSTT": "DISCONTINUED",
    "DCSREAS": "ADVERSE EVENT",
    "SAFFL": "Y",
    "ITTFL": "Y",
    "EFFFL": "Y"
  },
  {
    "STUDYID": "CDISCPILOT01",
    "USUBJID": "01-716-015",
    "SUBJID": 15,
    "SITEID": 716,
    "TRT01P": "Xanomeline High Dose",
    "TRT01PN": 2,
    "TRT01A": "Xanomeline High Dose",
    "TRT01AN": 2,
    "AGE": 77,
    "AGEGR1": "65-80",
    "AGEGR1N": 2,
    "SEX": "F",
    "SEXN": 2,
    "RACE": "WHITE",
    "ETHNIC": "NOT HISPANIC OR LATINO",
    "COUNTRY": "USA",
    "MMSETOT": 24,
    "MMSEGRP": "Mild (20-24)",
    "MMSEGRPN": 3,
    "DISDUR": 11.9,
    "EDUCYR": 14,
    "RANDDT": "2013-02-12",
    "TRTSDT": "2013-02-12",
    "TRTEDT": "2013-07-08",
    "TRTDURD": 147,
    "CUMDOSE": 11533.3,
    "COMPLFL": "N",
    "DCTREAS": "ADVERSE EVENT",
    "EOSSTT": "DISCONTINUED",
    "DCSREAS": "ADVERSE EVENT",
    "SAFFL": "Y",
    "ITTFL": "Y",
    "EFFFL": "Y"
  },
  {
    "STUDYID": "CDISCPILOT01",
    "USUBJID": "01-716-016",
    "SUBJID": 16,
    "SITEID": 716,
    "TRT01P": "Xanomeline High Dose",
    "TRT01PN": 2,
    "TRT01A": "Xanomeline High Dose",
    "TRT01AN": 2,
    "AGE": 74,
    "AGEGR1": "65-80",
    "AGEGR1N": 2,
    "SEX": "F",
    "SEXN": 2,
    "RACE": "WHITE",
    "ETHNIC": "NOT HISPANIC OR LATINO",
    "COUNTRY": "USA",
    "MMSETOT": 14,
    "MMSEGRP": "Severe (0-14)",
    "MMSEGRPN": 1,
    "DISDUR": 73.2,
    "EDUCYR": 11,
    "RANDDT": "2013-07-24",
    "TRTSDT": "2013-07-24",
    "TRTEDT": "2013-08-27",
    "TRTDURD": 35,
    "CUMDOSE": 2771.8,
    "COMPLFL": "N",
    "DCTREAS": "WITHDREW CONSENT",
    "EOSSTT": "DISCONTINUED",
    "DCSREAS": "WITHDREW CONSENT",
    "SAFFL": "Y",
    "ITTFL": "Y",
    "EFFFL": "Y"
  },
  {
    "STUDYID": "CDISCPILOT01",
    "USUBJID": "01-716-017",
    "SUBJID": 17,
    "SITEID": 716,
    "TRT01P": "Xanomeline Low Dose",
    "TRT01PN": 1,
    "TRT01A": "Xanomeline Low Dose",
    "TRT01AN": 1,
    "AGE": 61,
    "AGEGR1": "<65",
    "AGEGR1N": 1,
    "SEX": "M",
    "SEXN": 1,
    "RACE": "WHITE",
    "ETHNIC": "NOT HISPANIC OR LATINO",
    "COUNTRY": "USA",
    "MMSETOT": 13,
    "MMSEGRP": "Severe (0-14)",
    "MMSEGRPN": 1,
    "DISDUR": 61.9,
    "EDUCYR": 15,
    "RANDDT": "2013-02-11",
    "TRTSDT": "2013-02-11",
    "TRTEDT": "2013-07-28",
    "TRTDURD": 168,
    "CUMDOSE": 8888.7,
    "COMPLFL": "Y",
    "DCTREAS": "COMPLETED",
    "EOSSTT": "COMPLETED",
    "DCSREAS": "COMPLETED",
    "SAFFL": "Y",
    "ITTFL": "Y",
    "EFFFL": "Y"
  },
  {
    "STUDYID": "CDISCPILOT01",
    "USUBJID": "01-716-018",
    "SUBJID": 18,
    "SITEID": 716,
    "TRT01P": "Xanomeline Low Dose",
    "TRT01PN": 1,
    "TRT01A": "Xanomeline Low Dose",
    "TRT01AN": 1,
    "AGE": 66,
    "AGEGR1": "65-80",
    "AGEGR1N": 2,
    "SEX": "M",
    "SEXN": 1,
    "RACE": "WHITE",
    "ETHNIC": "NOT HISPANIC OR LATINO",
    "COUNTRY": "USA",
    "MMSETOT": 24,
    "MMSEGRP": "Mild (20-24)",
    "MMSEGRPN": 3,
    "DISDUR": 89.6,
    "EDUCYR": 15,
    "RANDDT": "2013-11-26",
    "TRTSDT": "2013-11-26",
    "TRTEDT": "2013-12-02",
    "TRTDURD": 7,
    "CUMDOSE": 359.9,
    "COMPLFL": "N",
    "DCTREAS": "ADVERSE EVENT",
    "EOSSTT": "DISCONTINUED",
    "DCSREAS": "ADVERSE EVENT",
    "SAFFL": "Y",
    "ITTFL": "Y",
    "EFFFL": "Y"
  },
  {
    "STUDYID": "CDISCPILOT01",
    "USUBJID": "01-716-019",
    "SUBJID": 19,
    "SITEID": 716,
    "TRT01P": "Placebo",
    "TRT01PN": 0,
    "TRT01A": "Placebo",
    "TRT01AN": 0,
    "AGE": 75,
    "AGEGR1": "65-80",
    "AGEGR1N": 2,
    "SEX": "M",
    "SEXN": 1,
    "RACE": "WHITE",
    "ETHNIC": "NOT HISPANIC OR LATINO",
    "COUNTRY": "USA",
    "MMSETOT": 20,
    "MMSEGRP": "Mild (20-24)",
    "MMSEGRPN": 3,
    "DISDUR": 60.2,
    "EDUCYR": 15,
    "RANDDT": "2013-07-14",
    "TRTSDT": "2013-07-14",
    "TRTEDT": "2013-12-28",
    "TRTDURD": 168,
    "CUMDOSE": 0,
    "COMPLFL": "Y",
    "DCTREAS": "COMPLETED",
    "EOSSTT": "COMPLETED",
    "DCSREAS": "COMPLETED",
    "SAFFL": "Y",
    "ITTFL": "Y",
    "EFFFL": "Y"
  },
  {
    "STUDYID": "CDISCPILOT01",
    "USUBJID": "01-716-020",
    "SUBJID": 20,
    "SITEID": 716,
    "TRT01P": "Placebo",
    "TRT01PN": 0,
    "TRT01A": "Placebo",
    "TRT01AN": 0,
    "AGE": 80,
    "AGEGR1": ">80",
    "AGEGR1N": 3,
    "SEX": "F",
    "SEXN": 2,
    "RACE": "WHITE",
    "ETHNIC": "NOT HISPANIC OR LATINO",
    "COUNTRY": "USA",
    "MMSETOT": 22,
    "MMSEGRP": "Mild (20-24)",
    "MMSEGRPN": 3,
    "DISDUR": 35.2,
    "EDUCYR": 8,
    "RANDDT": "2013-09-08",
    "TRTSDT": "2013-09-08",
    "TRTEDT": "2013-12-07",
    "TRTDURD": 91,
    "CUMDOSE": 0,
    "COMPLFL": "N",
    "DCTREAS": "DEATH",
    "EOSSTT": "DISCONTINUED",
    "DCSREAS": "DEATH",
    "SAFFL": "Y",
    "ITTFL": "Y",
    "EFFFL": "Y"
  },
  {
    "STUDYID": "CDISCPILOT01",
    "USUBJID": "01-716-021",
    "SUBJID": 21,
    "SITEID": 716,
    "TRT01P": "Placebo",
    "TRT01PN": 0,
    "TRT01A": "Placebo",
    "TRT01AN": 0,
    "AGE": 70,
    "AGEGR1": "65-80",
    "AGEGR1N": 2,
    "SEX": "F",
    "SEXN": 2,
    "RACE": "WHITE",
    "ETHNIC": "NOT HISPANIC OR LATINO",
    "COUNTRY": "USA",
    "MMSETOT": 10,
    "MMSEGRP": "Severe (0-14)",
    "MMSEGRPN": 1,
    "DISDUR": 21.8,
    "EDUCYR": 9,
    "RANDDT": "2013-11-08",
    "TRTSDT": "2013-11-08",
    "TRTEDT": "2014-03-20",
    "TRTDURD": 133,
    "CUMDOSE": 0,
    "COMPLFL": "N",
    "DCTREAS": "ADVERSE EVENT",
    "EOSSTT": "DISCONTINUED",
    "DCSREAS": "ADVERSE EVENT",
    "SAFFL": "Y",
    "ITTFL": "Y",
    "EFFFL": "Y"
  },
  {
    "STUDYID": "CDISCPILOT01",
    "USUBJID": "01-716-022",
    "SUBJID": 22,
    "SITEID": 716,
    "TRT01P": "Xanomeline Low Dose",
    "TRT01PN": 1,
    "TRT01A": "Xanomeline Low Dose",
    "TRT01AN": 1,
    "AGE": 83,
    "AGEGR1": ">80",
    "AGEGR1N": 3,
    "SEX": "F",
    "SEXN": 2,
    "RACE": "WHITE",
    "ETHNIC": "NOT HISPANIC OR LATINO",
    "COUNTRY": "USA",
    "MMSETOT": 21,
    "MMSEGRP": "Mild (20-24)",
    "MMSEGRPN": 3,
    "DISDUR": 2,
    "EDUCYR": 4,
    "RANDDT": "2013-08-08",
    "TRTSDT": "2013-08-08",
    "TRTEDT": "2013-09-11",
    "TRTDURD": 35,
    "CUMDOSE": 1833.1,
    "COMPLFL": "N",
    "DCTREAS": "ADVERSE EVENT",
    "EOSSTT": "DISCONTINUED",
    "DCSREAS": "ADVERSE EVENT",
    "SAFFL": "Y",
    "ITTFL": "Y",
    "EFFFL": "Y"
  },
  {
    "STUDYID": "CDISCPILOT01",
    "USUBJID": "01-716-023",
    "SUBJID": 23,
    "SITEID": 716,
    "TRT01P": "Placebo",
    "TRT01PN": 0,
    "TRT01A": "Placebo",
    "TRT01AN": 0,
    "AGE": 68,
    "AGEGR1": "65-80",
    "AGEGR1N": 2,
    "SEX": "M",
    "SEXN": 1,
    "RACE": "WHITE",
    "ETHNIC": "HISPANIC OR LATINO",
    "COUNTRY": "USA",
    "MMSETOT": 24,
    "MMSEGRP": "Mild (20-24)",
    "MMSEGRPN": 3,
    "DISDUR": 38.1,
    "EDUCYR": 11,
    "RANDDT": "2013-07-18",
    "TRTSDT": "2013-07-18",
    "TRTEDT": "2013-08-14",
    "TRTDURD": 28,
    "CUMDOSE": 0,
    "COMPLFL": "N",
    "DCTREAS": "WITHDREW CONSENT",
    "EOSSTT": "DISCONTINUED",
    "DCSREAS": "WITHDREW CONSENT",
    "SAFFL": "Y",
    "ITTFL": "Y",
    "EFFFL": "Y"
  },
  {
    "STUDYID": "CDISCPILOT01",
    "USUBJID": "01-716-024",
    "SUBJID": 24,
    "SITEID": 716,
    "TRT01P": "Xanomeline Low Dose",
    "TRT01PN": 1,
    "TRT01A": "Xanomeline Low Dose",
    "TRT01AN": 1,
    "AGE": 70,
    "AGEGR1": "65-80",
    "AGEGR1N": 2,
    "SEX": "M",
    "SEXN": 1,
    "RACE": "WHITE",
    "ETHNIC": "NOT HISPANIC OR LATINO",
    "COUNTRY": "USA",
    "MMSETOT": 23,
    "MMSEGRP": "Mild (20-24)",
    "MMSEGRPN": 3,
    "DISDUR": 73.1,
    "EDUCYR": 14,
    "RANDDT": "2013-01-10",
    "TRTSDT": "2013-01-10",
    "TRTEDT": "2013-06-26",
    "TRTDURD": 168,
    "CUMDOSE": 8975.9,
    "COMPLFL": "Y",
    "DCTREAS": "COMPLETED",
    "EOSSTT": "DISCONTINUED",
    "DCSREAS": "OTHER",
    "SAFFL": "Y",
    "ITTFL": "Y",
    "EFFFL": "Y"
  },
  {
    "STUDYID": "CDISCPILOT01",
    "USUBJID": "01-716-025",
    "SUBJID": 25,
    "SITEID": 716,
    "TRT01P": "Xanomeline High Dose",
    "TRT01PN": 2,
    "TRT01A": "Xanomeline High Dose",
    "TRT01AN": 2,
    "AGE": 77,
    "AGEGR1": "65-80",
    "AGEGR1N": 2,
    "SEX": "F",
    "SEXN": 2,
    "RACE": "WHITE",
    "ETHNIC": "NOT HISPANIC OR LATINO",
    "COUNTRY": "USA",
    "MMSETOT": 15,
    "MMSEGRP": "Moderate (15-19)",
    "MMSEGRPN": 2,
    "DISDUR": 16.1,
    "EDUCYR": 17,
    "RANDDT": "2013-02-26",
    "TRTSDT": "2013-02-26",
    "TRTEDT": "2013-06-03",
    "TRTDURD": 98,
    "CUMDOSE": 7793.1,
    "COMPLFL": "N",
    "DCTREAS": "WITHDREW CONSENT",
    "EOSSTT": "DISCONTINUED",
    "DCSREAS": "WITHDREW CONSENT",
    "SAFFL": "Y",
    "ITTFL": "Y",
    "EFFFL": "Y"
  },
  {
    "STUDYID": "CDISCPILOT01",
    "USUBJID": "01-716-026",
    "SUBJID": 26,
    "SITEID": 716,
    "TRT01P": "Xanomeline Low Dose",
    "TRT01PN": 1,
    "TRT01A": "Xanomeline Low Dose",
    "TRT01AN": 1,
    "AGE": 69,
    "AGEGR1": "65-80",
    "AGEGR1N": 2,
    "SEX": "M",
    "SEXN": 1,
    "RACE": "WHITE",
    "ETHNIC": "NOT HISPANIC OR LATINO",
    "COUNTRY": "USA",
    "MMSETOT": 21,
    "MMSEGRP": "Mild (20-24)",
    "MMSEGRPN": 3,
    "DISDUR": 30.6,
    "EDUCYR": 19,
    "RANDDT": "2013-08-02",
    "TRTSDT": "2013-08-02",
    "TRTEDT": "2013-08-29",
    "TRTDURD": 28,
    "CUMDOSE": 1448.4,
    "COMPLFL": "N",
    "DCTREAS": "ADVERSE EVENT",
    "EOSSTT": "DISCONTINUED",
    "DCSREAS": "ADVERSE EVENT",
    "SAFFL": "Y",
    "ITTFL": "Y",
    "EFFFL": "Y"
  },
  {
    "STUDYID": "CDISCPILOT01",
    "USUBJID": "01-716-027",
    "SUBJID": 27,
    "SITEID": 716,
    "TRT01P": "Xanomeline High Dose",
    "TRT01PN": 2,
    "TRT01A": "Xanomeline High Dose",
    "TRT01AN": 2,
    "AGE": 72,
    "AGEGR1": "65-80",
    "AGEGR1N": 2,
    "SEX": "F",
    "SEXN": 2,
    "RACE": "WHITE",
    "ETHNIC": "NOT HISPANIC OR LATINO",
    "COUNTRY": "USA",
    "MMSETOT": 18,
    "MMSEGRP": "Moderate (15-19)",
    "MMSEGRPN": 2,
    "DISDUR": 38,
    "EDUCYR": 15,
    "RANDDT": "2013-03-17",
    "TRTSDT": "2013-03-17",
    "TRTEDT": "2013-04-13",
    "TRTDURD": 28,
    "CUMDOSE": 2187.2,
    "COMPLFL": "N",
    "DCTREAS": "ADVERSE EVENT",
    "EOSSTT": "DISCONTINUED",
    "DCSREAS": "ADVERSE EVENT",
    "SAFFL": "Y",
    "ITTFL": "Y",
    "EFFFL": "Y"
  },
  {
    "STUDYID": "CDISCPILOT01",
    "USUBJID": "01-717-001",
    "SUBJID": 1,
    "SITEID": 717,
    "TRT01P": "Xanomeline High Dose",
    "TRT01PN": 2,
    "TRT01A": "Xanomeline High Dose",
    "TRT01AN": 2,
    "AGE": 89,
    "AGEGR1": ">80",
    "AGEGR1N": 3,
    "SEX": "M",
    "SEXN": 1,
    "RACE": "WHITE",
    "ETHNIC": "NOT HISPANIC OR LATINO",
    "COUNTRY": "USA",
    "MMSETOT": 22,
    "MMSEGRP": "Mild (20-24)",
    "MMSEGRPN": 3,
    "DISDUR": 15.5,
    "EDUCYR": 13,
    "RANDDT": "2013-11-02",
    "TRTSDT": "2013-11-02",
    "TRTEDT": "2013-11-15",
    "TRTDURD": 14,
    "CUMDOSE": 1104.8,
    "COMPLFL": "N",
    "DCTREAS": "ADVERSE EVENT",
    "EOSSTT": "DISCONTINUED",
    "DCSREAS": "ADVERSE EVENT",
    "SAFFL": "Y",
    "ITTFL": "Y",
    "EFFFL": "Y"
  },
  {
    "STUDYID": "CDISCPILOT01",
    "USUBJID": "01-717-002",
    "SUBJID": 2,
    "SITEID": 717,
    "TRT01P": "Xanomeline High Dose",
    "TRT01PN": 2,
    "TRT01A": "Xanomeline High Dose",
    "TRT01AN": 2,
    "AGE": 74,
    "AGEGR1": "65-80",
    "AGEGR1N": 2,
    "SEX": "M",
    "SEXN": 1,
    "RACE": "WHITE",
    "ETHNIC": "NOT HISPANIC OR LATINO",
    "COUNTRY": "USA",
    "MMSETOT": 21,
    "MMSEGRP": "Mild (20-24)",
    "MMSEGRPN": 3,
    "DISDUR": 71.3,
    "EDUCYR": 9,
    "RANDDT": "2013-04-09",
    "TRTSDT": "2013-04-09",
    "TRTEDT": "2013-06-24",
    "TRTDURD": 77,
    "CUMDOSE": 6097.5,
    "COMPLFL": "N",
    "DCTREAS": "ADVERSE EVENT",
    "EOSSTT": "DISCONTINUED",
    "DCSREAS": "ADVERSE EVENT",
    "SAFFL": "Y",
    "ITTFL": "Y",
    "EFFFL": "Y"
  },
  {
    "STUDYID": "CDISCPILOT01",
    "USUBJID": "01-717-003",
    "SUBJID": 3,
    "SITEID": 717,
    "TRT01P": "Placebo",
    "TRT01PN": 0,
    "TRT01A": "Placebo",
    "TRT01AN": 0,
    "AGE": 66,
    "AGEGR1": "65-80",
    "AGEGR1N": 2,
    "SEX": "F",
    "SEXN": 2,
    "RACE": "WHITE",
    "ETHNIC": "NOT HISPANIC OR LATINO",
    "COUNTRY": "USA",
    "MMSETOT": 24,
    "MMSEGRP": "Mild (20-24)",
    "MMSEGRPN": 3,
    "DISDUR": 40.4,
    "EDUCYR": 9,
    "RANDDT": "2013-01-17",
    "TRTSDT": "2013-01-17",
    "TRTEDT": "2013-07-03",
    "TRTDURD": 168,
    "CUMDOSE": 0,
    "COMPLFL": "Y",
    "DCTREAS": "COMPLETED",
    "EOSSTT": "COMPLETED",
    "DCSREAS": "COMPLETED",
    "SAFFL": "Y",
    "ITTFL": "Y",
    "EFFFL": "Y"
  },
  {
    "STUDYID": "CDISCPILOT01",
    "USUBJID": "01-718-001",
    "SUBJID": 1,
    "SITEID": 718,
    "TRT01P": "Xanomeline High Dose",
    "TRT01PN": 2,
    "TRT01A": "Xanomeline High Dose",
    "TRT01AN": 2,
    "AGE": 82,
    "AGEGR1": ">80",
    "AGEGR1N": 3,
    "SEX": "M",
    "SEXN": 1,
    "RACE": "WHITE",
    "ETHNIC": "NOT HISPANIC OR LATINO",
    "COUNTRY": "USA",
    "MMSETOT": 18,
    "MMSEGRP": "Moderate (15-19)",
    "MMSEGRPN": 2,
    "DISDUR": 55.1,
    "EDUCYR": 14,
    "RANDDT": "2013-06-05",
    "TRTSDT": "2013-06-05",
    "TRTEDT": "2013-07-02",
    "TRTDURD": 28,
    "CUMDOSE": 2220.2,
    "COMPLFL": "N",
    "DCTREAS": "PROTOCOL VIOLATION",
    "EOSSTT": "DISCONTINUED",
    "DCSREAS": "PROTOCOL VIOLATION",
    "SAFFL": "Y",
    "ITTFL": "Y",
    "EFFFL": "Y"
  },
  {
    "STUDYID": "CDISCPILOT01",
    "USUBJID": "01-718-002",
    "SUBJID": 2,
    "SITEID": 718,
    "TRT01P": "Placebo",
    "TRT01PN": 0,
    "TRT01A": "Placebo",
    "TRT01AN": 0,
    "AGE": 73,
    "AGEGR1": "65-80",
    "AGEGR1N": 2,
    "SEX": "F",
    "SEXN": 2,
    "RACE": "WHITE",
    "ETHNIC": "NOT HISPANIC OR LATINO",
    "COUNTRY": "USA",
    "MMSETOT": 19,
    "MMSEGRP": "Moderate (15-19)",
    "MMSEGRPN": 2,
    "DISDUR": 25.3,
    "EDUCYR": 13,
    "RANDDT": "2013-05-08",
    "TRTSDT": "2013-05-08",
    "TRTEDT": "2013-10-22",
    "TRTDURD": 168,
    "CUMDOSE": 0,
    "COMPLFL": "Y",
    "DCTREAS": "COMPLETED",
    "EOSSTT": "COMPLETED",
    "DCSREAS": "COMPLETED",
    "SAFFL": "Y",
    "ITTFL": "Y",
    "EFFFL": "Y"
  },
  {
    "STUDYID": "CDISCPILOT01",
    "USUBJID": "01-718-003",
    "SUBJID": 3,
    "SITEID": 718,
    "TRT01P": "Xanomeline Low Dose",
    "TRT01PN": 1,
    "TRT01A": "Xanomeline Low Dose",
    "TRT01AN": 1,
    "AGE": 85,
    "AGEGR1": ">80",
    "AGEGR1N": 3,
    "SEX": "M",
    "SEXN": 1,
    "RACE": "BLACK OR AFRICAN AMERICAN",
    "ETHNIC": "NOT HISPANIC OR LATINO",
    "COUNTRY": "USA",
    "MMSETOT": 16,
    "MMSEGRP": "Moderate (15-19)",
    "MMSEGRPN": 2,
    "DISDUR": 93.4,
    "EDUCYR": 13,
    "RANDDT": "2013-05-15",
    "TRTSDT": "2013-05-15",
    "TRTEDT": "2013-06-18",
    "TRTDURD": 35,
    "CUMDOSE": 1833.1,
    "COMPLFL": "N",
    "DCTREAS": "ADVERSE EVENT",
    "EOSSTT": "DISCONTINUED",
    "DCSREAS": "ADVERSE EVENT",
    "SAFFL": "Y",
    "ITTFL": "Y",
    "EFFFL": "Y"
  },
  {
    "STUDYID": "CDISCPILOT01",
    "USUBJID": "01-718-004",
    "SUBJID": 4,
    "SITEID": 718,
    "TRT01P": "Xanomeline High Dose",
    "TRT01PN": 2,
    "TRT01A": "Xanomeline High Dose",
    "TRT01AN": 2,
    "AGE": 79,
    "AGEGR1": "65-80",
    "AGEGR1N": 2,
    "SEX": "F",
    "SEXN": 2,
    "RACE": "WHITE",
    "ETHNIC": "NOT HISPANIC OR LATINO",
    "COUNTRY": "USA",
    "MMSETOT": 20,
    "MMSEGRP": "Mild (20-24)",
    "MMSEGRPN": 3,
    "DISDUR": 31.7,
    "EDUCYR": 17,
    "RANDDT": "2013-12-27",
    "TRTSDT": "2013-12-27",
    "TRTEDT": "2014-06-12",
    "TRTDURD": 168,
    "CUMDOSE": 13084.8,
    "COMPLFL": "Y",
    "DCTREAS": "COMPLETED",
    "EOSSTT": "COMPLETED",
    "DCSREAS": "COMPLETED",
    "SAFFL": "Y",
    "ITTFL": "Y",
    "EFFFL": "Y"
  },
  {
    "STUDYID": "CDISCPILOT01",
    "USUBJID": "01-718-005",
    "SUBJID": 5,
    "SITEID": 718,
    "TRT01P": "Xanomeline Low Dose",
    "TRT01PN": 1,
    "TRT01A": "Xanomeline Low Dose",
    "TRT01AN": 1,
    "AGE": 82,
    "AGEGR1": ">80",
    "AGEGR1N": 3,
    "SEX": "F",
    "SEXN": 2,
    "RACE": "WHITE",
    "ETHNIC": "NOT HISPANIC OR LATINO",
    "COUNTRY": "USA",
    "MMSETOT": 19,
    "MMSEGRP": "Moderate (15-19)",
    "MMSEGRPN": 2,
    "DISDUR": 63.5,
    "EDUCYR": 14,
    "RANDDT": "2013-06-09",
    "TRTSDT": "2013-06-09",
    "TRTEDT": "2013-07-13",
    "TRTDURD": 35,
    "CUMDOSE": 1889.4,
    "COMPLFL": "N",
    "DCTREAS": "ADVERSE EVENT",
    "EOSSTT": "DISCONTINUED",
    "DCSREAS": "ADVERSE EVENT",
    "SAFFL": "Y",
    "ITTFL": "Y",
    "EFFFL": "Y"
  },
  {
    "STUDYID": "CDISCPILOT01",
    "USUBJID": "01-718-006",
    "SUBJID": 6,
    "SITEID": 718,
    "TRT01P": "Xanomeline High Dose",
    "TRT01PN": 2,
    "TRT01A": "Xanomeline High Dose",
    "TRT01AN": 2,
    "AGE": 72,
    "AGEGR1": "65-80",
    "AGEGR1N": 2,
    "SEX": "F",
    "SEXN": 2,
    "RACE": "WHITE",
    "ETHNIC": "NOT HISPANIC OR LATINO",
    "COUNTRY": "USA",
    "MMSETOT": 18,
    "MMSEGRP": "Moderate (15-19)",
    "MMSEGRPN": 2,
    "DISDUR": 2,
    "EDUCYR": 16,
    "RANDDT": "2013-05-31",
    "TRTSDT": "2013-05-31",
    "TRTEDT": "2013-11-14",
    "TRTDURD": 168,
    "CUMDOSE": 12985.6,
    "COMPLFL": "Y",
    "DCTREAS": "COMPLETED",
    "EOSSTT": "COMPLETED",
    "DCSREAS": "COMPLETED",
    "SAFFL": "Y",
    "ITTFL": "Y",
    "EFFFL": "Y"
  },
  {
    "STUDYID": "CDISCPILOT01",
    "USUBJID": "01-718-007",
    "SUBJID": 7,
    "SITEID": 718,
    "TRT01P": "Xanomeline High Dose",
    "TRT01PN": 2,
    "TRT01A": "Xanomeline High Dose",
    "TRT01AN": 2,
    "AGE": 63,
    "AGEGR1": "<65",
    "AGEGR1N": 1,
    "SEX": "M",
    "SEXN": 1,
    "RACE": "WHITE",
    "ETHNIC": "NOT HISPANIC OR LATINO",
    "COUNTRY": "USA",
    "MMSETOT": 20,
    "MMSEGRP": "Mild (20-24)",
    "MMSEGRPN": 3,
    "DISDUR": 62.9,
    "EDUCYR": 11,
    "RANDDT": "2013-09-22",
    "TRTSDT": "2013-09-22",
    "TRTEDT": "2014-03-08",
    "TRTDURD": 168,
    "CUMDOSE": 13415,
    "COMPLFL": "Y",
    "DCTREAS": "COMPLETED",
    "EOSSTT": "COMPLETED",
    "DCSREAS": "COMPLETED",
    "SAFFL": "Y",
    "ITTFL": "Y",
    "EFFFL": "Y"
  },
  {
    "STUDYID": "CDISCPILOT01",
    "USUBJID": "01-718-008",
    "SUBJID": 8,
    "SITEID": 718,
    "TRT01P": "Xanomeline Low Dose",
    "TRT01PN": 1,
    "TRT01A": "Xanomeline Low Dose",
    "TRT01AN": 1,
    "AGE": 80,
    "AGEGR1": ">80",
    "AGEGR1N": 3,
    "SEX": "F",
    "SEXN": 2,
    "RACE": "WHITE",
    "ETHNIC": "NOT HISPANIC OR LATINO",
    "COUNTRY": "USA",
    "MMSETOT": 24,
    "MMSEGRP": "Mild (20-24)",
    "MMSEGRPN": 3,
    "DISDUR": 30,
    "EDUCYR": 10,
    "RANDDT": "2013-09-16",
    "TRTSDT": "2013-09-16",
    "TRTEDT": "2013-09-29",
    "TRTDURD": 14,
    "CUMDOSE": 728.9,
    "COMPLFL": "N",
    "DCTREAS": "WITHDREW CONSENT",
    "EOSSTT": "DISCONTINUED",
    "DCSREAS": "WITHDREW CONSENT",
    "SAFFL": "Y",
    "ITTFL": "Y",
    "EFFFL": "Y"
  },
  {
    "STUDYID": "CDISCPILOT01",
    "USUBJID": "01-718-009",
    "SUBJID": 9,
    "SITEID": 718,
    "TRT01P": "Placebo",
    "TRT01PN": 0,
    "TRT01A": "Placebo",
    "TRT01AN": 0,
    "AGE": 69,
    "AGEGR1": "65-80",
    "AGEGR1N": 2,
    "SEX": "M",
    "SEXN": 1,
    "RACE": "WHITE",
    "ETHNIC": "NOT HISPANIC OR LATINO",
    "COUNTRY": "USA",
    "MMSETOT": 20,
    "MMSEGRP": "Mild (20-24)",
    "MMSEGRPN": 3,
    "DISDUR": 80.9,
    "EDUCYR": 16,
    "RANDDT": "2013-03-13",
    "TRTSDT": "2013-03-13",
    "TRTEDT": "2013-08-27",
    "TRTDURD": 168,
    "CUMDOSE": 0,
    "COMPLFL": "Y",
    "DCTREAS": "COMPLETED",
    "EOSSTT": "COMPLETED",
    "DCSREAS": "COMPLETED",
    "SAFFL": "Y",
    "ITTFL": "Y",
    "EFFFL": "Y"
  },
  {
    "STUDYID": "CDISCPILOT01",
    "USUBJID": "01-718-010",
    "SUBJID": 10,
    "SITEID": 718,
    "TRT01P": "Placebo",
    "TRT01PN": 0,
    "TRT01A": "Placebo",
    "TRT01AN": 0,
    "AGE": 85,
    "AGEGR1": ">80",
    "AGEGR1N": 3,
    "SEX": "M",
    "SEXN": 1,
    "RACE": "WHITE",
    "ETHNIC": "NOT HISPANIC OR LATINO",
    "COUNTRY": "USA",
    "MMSETOT": 22,
    "MMSEGRP": "Mild (20-24)",
    "MMSEGRPN": 3,
    "DISDUR": 41.1,
    "EDUCYR": 12,
    "RANDDT": "2013-03-11",
    "TRTSDT": "2013-03-11",
    "TRTEDT": "2013-08-25",
    "TRTDURD": 168,
    "CUMDOSE": 0,
    "COMPLFL": "Y",
    "DCTREAS": "COMPLETED",
    "EOSSTT": "COMPLETED",
    "DCSREAS": "COMPLETED",
    "SAFFL": "Y",
    "ITTFL": "Y",
    "EFFFL": "Y"
  },
  {
    "STUDYID": "CDISCPILOT01",
    "USUBJID": "01-718-011",
    "SUBJID": 11,
    "SITEID": 718,
    "TRT01P": "Xanomeline High Dose",
    "TRT01PN": 2,
    "TRT01A": "Xanomeline High Dose",
    "TRT01AN": 2,
    "AGE": 72,
    "AGEGR1": "65-80",
    "AGEGR1N": 2,
    "SEX": "F",
    "SEXN": 2,
    "RACE": "WHITE",
    "ETHNIC": "NOT HISPANIC OR LATINO",
    "COUNTRY": "USA",
    "MMSETOT": 23,
    "MMSEGRP": "Mild (20-24)",
    "MMSEGRPN": 3,
    "DISDUR": 28.8,
    "EDUCYR": 10,
    "RANDDT": "2013-11-21",
    "TRTSDT": "2013-11-21",
    "TRTEDT": "2014-03-19",
    "TRTDURD": 119,
    "CUMDOSE": 9260.1,
    "COMPLFL": "N",
    "DCTREAS": "ADVERSE EVENT",
    "EOSSTT": "DISCONTINUED",
    "DCSREAS": "ADVERSE EVENT",
    "SAFFL": "Y",
    "ITTFL": "Y",
    "EFFFL": "Y"
  },
  {
    "STUDYID": "CDISCPILOT01",
    "USUBJID": "01-718-012",
    "SUBJID": 12,
    "SITEID": 718,
    "TRT01P": "Placebo",
    "TRT01PN": 0,
    "TRT01A": "Placebo",
    "TRT01AN": 0,
    "AGE": 63,
    "AGEGR1": "<65",
    "AGEGR1N": 1,
    "SEX": "F",
    "SEXN": 2,
    "RACE": "WHITE",
    "ETHNIC": "NOT HISPANIC OR LATINO",
    "COUNTRY": "USA",
    "MMSETOT": 14,
    "MMSEGRP": "Severe (0-14)",
    "MMSEGRPN": 1,
    "DISDUR": 50.4,
    "EDUCYR": 20,
    "RANDDT": "2013-11-26",
    "TRTSDT": "2013-11-26",
    "TRTEDT": "2014-05-12",
    "TRTDURD": 168,
    "CUMDOSE": 0,
    "COMPLFL": "Y",
    "DCTREAS": "COMPLETED",
    "EOSSTT": "COMPLETED",
    "DCSREAS": "COMPLETED",
    "SAFFL": "Y",
    "ITTFL": "Y",
    "EFFFL": "Y"
  },
  {
    "STUDYID": "CDISCPILOT01",
    "USUBJID": "01-718-013",
    "SUBJID": 13,
    "SITEID": 718,
    "TRT01P": "Xanomeline Low Dose",
    "TRT01PN": 1,
    "TRT01A": "Xanomeline Low Dose",
    "TRT01AN": 1,
    "AGE": 74,
    "AGEGR1": "65-80",
    "AGEGR1N": 2,
    "SEX": "M",
    "SEXN": 1,
    "RACE": "WHITE",
    "ETHNIC": "NOT HISPANIC OR LATINO",
    "COUNTRY": "USA",
    "MMSETOT": 23,
    "MMSEGRP": "Mild (20-24)",
    "MMSEGRPN": 3,
    "DISDUR": 65.2,
    "EDUCYR": 12,
    "RANDDT": "2013-05-24",
    "TRTSDT": "2013-05-24",
    "TRTEDT": "2013-11-07",
    "TRTDURD": 168,
    "CUMDOSE": 8655.9,
    "COMPLFL": "Y",
    "DCTREAS": "COMPLETED",
    "EOSSTT": "COMPLETED",
    "DCSREAS": "COMPLETED",
    "SAFFL": "Y",
    "ITTFL": "Y",
    "EFFFL": "Y"
  },
  {
    "STUDYID": "CDISCPILOT01",
    "USUBJID": "01-718-014",
    "SUBJID": 14,
    "SITEID": 718,
    "TRT01P": "Xanomeline Low Dose",
    "TRT01PN": 1,
    "TRT01A": "Xanomeline Low Dose",
    "TRT01AN": 1,
    "AGE": 75,
    "AGEGR1": "65-80",
    "AGEGR1N": 2,
    "SEX": "M",
    "SEXN": 1,
    "RACE": "WHITE",
    "ETHNIC": "NOT HISPANIC OR LATINO",
    "COUNTRY": "USA",
    "MMSETOT": 19,
    "MMSEGRP": "Moderate (15-19)",
    "MMSEGRPN": 2,
    "DISDUR": 48,
    "EDUCYR": 18,
    "RANDDT": "2013-07-05",
    "TRTSDT": "2013-07-05",
    "TRTEDT": "2013-12-19",
    "TRTDURD": 168,
    "CUMDOSE": 8688.2,
    "COMPLFL": "Y",
    "DCTREAS": "COMPLETED",
    "EOSSTT": "COMPLETED",
    "DCSREAS": "COMPLETED",
    "SAFFL": "Y",
    "ITTFL": "Y",
    "EFFFL": "Y"
  },
  {
    "STUDYID": "CDISCPILOT01",
    "USUBJID": "01-718-015",
    "SUBJID": 15,
    "SITEID": 718,
    "TRT01P": "Xanomeline Low Dose",
    "TRT01PN": 1,
    "TRT01A": "Xanomeline Low Dose",
    "TRT01AN": 1,
    "AGE": 71,
    "AGEGR1": "65-80",
    "AGEGR1N": 2,
    "SEX": "M",
    "SEXN": 1,
    "RACE": "HISPANIC OR LATINO",
    "ETHNIC": "NOT HISPANIC OR LATINO",
    "COUNTRY": "USA",
    "MMSETOT": 16,
    "MMSEGRP": "Moderate (15-19)",
    "MMSEGRPN": 2,
    "DISDUR": 68.9,
    "EDUCYR": 15,
    "RANDDT": "2013-03-12",
    "TRTSDT": "2013-03-12",
    "TRTEDT": "2013-04-08",
    "TRTDURD": 28,
    "CUMDOSE": 1456.4,
    "COMPLFL": "N",
    "DCTREAS": "ADVERSE EVENT",
    "EOSSTT": "DISCONTINUED",
    "DCSREAS": "ADVERSE EVENT",
    "SAFFL": "Y",
    "ITTFL": "Y",
    "EFFFL": "Y"
  },
  {
    "STUDYID": "CDISCPILOT01",
    "USUBJID": "01-718-016",
    "SUBJID": 16,
    "SITEID": 718,
    "TRT01P": "Xanomeline High Dose",
    "TRT01PN": 2,
    "TRT01A": "Xanomeline High Dose",
    "TRT01AN": 2,
    "AGE": 69,
    "AGEGR1": "65-80",
    "AGEGR1N": 2,
    "SEX": "F",
    "SEXN": 2,
    "RACE": "BLACK OR AFRICAN AMERICAN",
    "ETHNIC": "NOT HISPANIC OR LATINO",
    "COUNTRY": "USA",
    "MMSETOT": 10,
    "MMSEGRP": "Severe (0-14)",
    "MMSEGRPN": 1,
    "DISDUR": 39.1,
    "EDUCYR": 11,
    "RANDDT": "2013-03-03",
    "TRTSDT": "2013-03-03",
    "TRTEDT": "2013-08-17",
    "TRTDURD": 168,
    "CUMDOSE": 13394.5,
    "COMPLFL": "Y",
    "DCTREAS": "COMPLETED",
    "EOSSTT": "COMPLETED",
    "DCSREAS": "COMPLETED",
    "SAFFL": "Y",
    "ITTFL": "Y",
    "EFFFL": "Y"
  },
  {
    "STUDYID": "CDISCPILOT01",
    "USUBJID": "01-718-017",
    "SUBJID": 17,
    "SITEID": 718,
    "TRT01P": "Placebo",
    "TRT01PN": 0,
    "TRT01A": "Placebo",
    "TRT01AN": 0,
    "AGE": 67,
    "AGEGR1": "65-80",
    "AGEGR1N": 2,
    "SEX": "F",
    "SEXN": 2,
    "RACE": "WHITE",
    "ETHNIC": "NOT HISPANIC OR LATINO",
    "COUNTRY": "USA",
    "MMSETOT": 24,
    "MMSEGRP": "Mild (20-24)",
    "MMSEGRPN": 3,
    "DISDUR": 13.5,
    "EDUCYR": 12,
    "RANDDT": "2013-03-28",
    "TRTSDT": "2013-03-28",
    "TRTEDT": "2013-09-11",
    "TRTDURD": 168,
    "CUMDOSE": 0,
    "COMPLFL": "Y",
    "DCTREAS": "COMPLETED",
    "EOSSTT": "COMPLETED",
    "DCSREAS": "COMPLETED",
    "SAFFL": "Y",
    "ITTFL": "Y",
    "EFFFL": "Y"
  },
  {
    "STUDYID": "CDISCPILOT01",
    "USUBJID": "01-718-018",
    "SUBJID": 18,
    "SITEID": 718,
    "TRT01P": "Placebo",
    "TRT01PN": 0,
    "TRT01A": "Placebo",
    "TRT01AN": 0,
    "AGE": 88,
    "AGEGR1": ">80",
    "AGEGR1N": 3,
    "SEX": "F",
    "SEXN": 2,
    "RACE": "BLACK OR AFRICAN AMERICAN",
    "ETHNIC": "HISPANIC OR LATINO",
    "COUNTRY": "USA",
    "MMSETOT": 24,
    "MMSEGRP": "Mild (20-24)",
    "MMSEGRPN": 3,
    "DISDUR": 43.2,
    "EDUCYR": 14,
    "RANDDT": "2013-10-06",
    "TRTSDT": "2013-10-06",
    "TRTEDT": "2014-03-08",
    "TRTDURD": 154,
    "CUMDOSE": 0,
    "COMPLFL": "N",
    "DCTREAS": "WITHDREW CONSENT",
    "EOSSTT": "DISCONTINUED",
    "DCSREAS": "WITHDREW CONSENT",
    "SAFFL": "Y",
    "ITTFL": "Y",
    "EFFFL": "Y"
  },
  {
    "STUDYID": "CDISCPILOT01",
    "USUBJID": "01-718-019",
    "SUBJID": 19,
    "SITEID": 718,
    "TRT01P": "Xanomeline Low Dose",
    "TRT01PN": 1,
    "TRT01A": "Xanomeline Low Dose",
    "TRT01AN": 1,
    "AGE": 75,
    "AGEGR1": "65-80",
    "AGEGR1N": 2,
    "SEX": "F",
    "SEXN": 2,
    "RACE": "WHITE",
    "ETHNIC": "NOT HISPANIC OR LATINO",
    "COUNTRY": "USA",
    "MMSETOT": 12,
    "MMSEGRP": "Severe (0-14)",
    "MMSEGRPN": 1,
    "DISDUR": 36.7,
    "EDUCYR": 10,
    "RANDDT": "2013-05-25",
    "TRTSDT": "2013-05-25",
    "TRTEDT": "2013-08-30",
    "TRTDURD": 98,
    "CUMDOSE": 5244.4,
    "COMPLFL": "N",
    "DCTREAS": "WITHDREW CONSENT",
    "EOSSTT": "DISCONTINUED",
    "DCSREAS": "WITHDREW CONSENT",
    "SAFFL": "Y",
    "ITTFL": "Y",
    "EFFFL": "Y"
  },
  {
    "STUDYID": "CDISCPILOT01",
    "USUBJID": "01-718-020",
    "SUBJID": 20,
    "SITEID": 718,
    "TRT01P": "Xanomeline High Dose",
    "TRT01PN": 2,
    "TRT01A": "Xanomeline High Dose",
    "TRT01AN": 2,
    "AGE": 79,
    "AGEGR1": "65-80",
    "AGEGR1N": 2,
    "SEX": "F",
    "SEXN": 2,
    "RACE": "WHITE",
    "ETHNIC": "NOT HISPANIC OR LATINO",
    "COUNTRY": "USA",
    "MMSETOT": 13,
    "MMSEGRP": "Severe (0-14)",
    "MMSEGRPN": 1,
    "DISDUR": 15.5,
    "EDUCYR": 12,
    "RANDDT": "2013-02-06",
    "TRTSDT": "2013-02-06",
    "TRTEDT": "2013-07-23",
    "TRTDURD": 168,
    "CUMDOSE": 13463.1,
    "COMPLFL": "Y",
    "DCTREAS": "COMPLETED",
    "EOSSTT": "DISCONTINUED",
    "DCSREAS": "WITHDREW CONSENT",
    "SAFFL": "Y",
    "ITTFL": "Y",
    "EFFFL": "Y"
  },
  {
    "STUDYID": "CDISCPILOT01",
    "USUBJID": "01-718-021",
    "SUBJID": 21,
    "SITEID": 718,
    "TRT01P": "Xanomeline High Dose",
    "TRT01PN": 2,
    "TRT01A": "Xanomeline High Dose",
    "TRT01AN": 2,
    "AGE": 81,
    "AGEGR1": ">80",
    "AGEGR1N": 3,
    "SEX": "M",
    "SEXN": 1,
    "RACE": "WHITE",
    "ETHNIC": "NOT HISPANIC OR LATINO",
    "COUNTRY": "USA",
    "MMSETOT": 24,
    "MMSEGRP": "Mild (20-24)",
    "MMSEGRPN": 3,
    "DISDUR": 66.9,
    "EDUCYR": 18,
    "RANDDT": "2013-09-05",
    "TRTSDT": "2013-09-05",
    "TRTEDT": "2013-11-20",
    "TRTDURD": 77,
    "CUMDOSE": 6124.5,
    "COMPLFL": "N",
    "DCTREAS": "WITHDREW CONSENT",
    "EOSSTT": "DISCONTINUED",
    "DCSREAS": "WITHDREW CONSENT",
    "SAFFL": "Y",
    "ITTFL": "Y",
    "EFFFL": "Y"
  },
  {
    "STUDYID": "CDISCPILOT01",
    "USUBJID": "01-718-022",
    "SUBJID": 22,
    "SITEID": 718,
    "TRT01P": "Placebo",
    "TRT01PN": 0,
    "TRT01A": "Placebo",
    "TRT01AN": 0,
    "AGE": 57,
    "AGEGR1": "<65",
    "AGEGR1N": 1,
    "SEX": "M",
    "SEXN": 1,
    "RACE": "BLACK OR AFRICAN AMERICAN",
    "ETHNIC": "NOT HISPANIC OR LATINO",
    "COUNTRY": "USA",
    "MMSETOT": 13,
    "MMSEGRP": "Severe (0-14)",
    "MMSEGRPN": 1,
    "DISDUR": 28.7,
    "EDUCYR": 14,
    "RANDDT": "2013-09-24",
    "TRTSDT": "2013-09-24",
    "TRTEDT": "2014-03-10",
    "TRTDURD": 168,
    "CUMDOSE": 0,
    "COMPLFL": "Y",
    "DCTREAS": "COMPLETED",
    "EOSSTT": "COMPLETED",
    "DCSREAS": "COMPLETED",
    "SAFFL": "Y",
    "ITTFL": "Y",
    "EFFFL": "Y"
  }
]
