[
  {
    "STUDYID": "CDISCPILOT01",
    "USUBJID": "01-701-001",
    "TRTP": "Xanomeline Low Dose",
    "TRTPN": 1,
    "PARAMCD": "DIABP",
    "PARAM": "Diastolic Blood Pressure ( mmHg )",
    "AVAL": 77.6,
    "BASE": 78.4,
    "CHG": -0.8,
    "PCHG": -1.0204,
    "ADT": "2013-10-10",
    "ADY": 115,
    "AVISIT": "WEEK 16",
    "AVISITN": 7,
    "ABLFL": "",
    "ANL01FL": "Y",
    "SAFFL": "Y"
  },
  {
    "STUDYID": "CDISCPILOT01",
    "USUBJID": "01-701-001",
    "TRTP": "Xanomeline Low Dose",
    "TRTPN": 1,
    "PARAMCD": "DIABP",
    "PARAM": "Diastolic Blood Pressure ( mmHg )",
    "AVAL": 77.4,
    "BASE": 78.4,
    "CHG": -1,
    "PCHG": -1.2755,
    "ADT": "2013-11-05",
    "ADY": 141,
    "AVISIT": "WEEK 20",
    "AVISITN": 8,
    "ABLFL": "",
    "ANL01FL": "Y",
    "SAFFL": "Y"
  },
  {
    "STUDYID": "CDISCPILOT01",
    "USUBJID": "01-701-001",
    "TRTP": "Xanomeline Low Dose",
    "TRTPN": 1,
    "PARAMCD": "DIABP",
    "PARAM": "Diastolic Blood Pressure ( mmHg )",
    "AVAL": 80.9,
    "BASE": 78.4,
    "CHG": 2.5,
    "PCHG": 3.1888,
    "ADT": "2013-09-12",
    "ADY": 87,
    "AVISIT": "WEEK 12",
    "AVISITN": 6,
    "ABLFL": "",
    "ANL01FL": "Y",
    "SAFFL": "Y"
  },
  {
    "STUDYID": "CDISCPILOT01",
    "USUBJID": "01-701-001",
    "TRTP": "Xanomeline Low Dose",
    "TRTPN": 1,
    "PARAMCD": "DIABP",
    "PARAM": "Diastolic Blood Pressure ( mmHg )",
    "AVAL": 76.8,
    "BASE": 78.4,
    "CHG": -1.6,
    "PCHG": -2.0408,
    "ADT": "2013-06-18",
    "ADY": 1,
    "AVISIT": "BASELINE",
    "AVISITN": 2,
    "ABLFL": "",
    "ANL01FL": "Y",
    "SAFFL": "Y"
  },
  {
    "STUDYID": "CDISCPILOT01",
    "USUBJID": "01-701-001",
    "TRTP": "Xanomeline Low Dose",
    "TRTPN": 1,
    "PARAMCD": "DIABP",
    "PARAM": "Diastolic Blood Pressure ( mmHg )",
    "AVAL": 80.2,
    "BASE": 78.4,
    "CHG": 1.8,
    "PCHG": 2.2959,
    "ADT": "2013-12-03",
    "ADY": 169,
    "AVISIT": "WEEK 24",
    "AVISITN": 9,
    "ABLFL": "",
    "ANL01FL": "Y",
    "SAFFL": "Y"
  },
  {
    "STUDYID": "CDISCPILOT01",
    "USUBJID": "01-701-001",
    "TRTP": "Xanomeline Low Dose",
    "TRTPN": 1,
    "PARAMCD": "DIABP",
    "PARAM": "Diastolic Blood Pressure ( mmHg )",
    "AVAL": 75.9,
    "BASE": 78.4,
    "CHG": -2.5,
    "PCHG": -3.1888,
    "ADT": "2013-07-03",
    "ADY": 16,
    "AVISIT": "WEEK 2",
    "AVISITN": 3,
    "ABLFL": "",
    "ANL01FL": "Y",
    "SAFFL": "Y"
  },
  {
    "STUDYID": "CDISCPILOT01",
    "USUBJID": "01-701-001",
    "TRTP": "Xanomeline Low Dose",
    "TRTPN": 1,
    "PARAMCD": "DIABP",
    "PARAM": "Diastolic Blood Pressure ( mmHg )",
    "AVAL": 76.9,
    "BASE": 78.4,
    "CHG": -1.5,
    "PCHG": -1.9133,
    "ADT": "2013-07-16",
    "ADY": 29,
    "AVISIT": "WEEK 4",
    "AVISITN": 4,
    "ABLFL": "",
    "ANL01FL": "Y",
    "SAFFL": "Y"
  },
  {
    "STUDYID": "CDISCPILOT01",
    "USUBJID": "01-701-001",
    "TRTP": "Xanomeline Low Dose",
    "TRTPN": 1,
    "PARAMCD": "DIABP",
    "PARAM": "Diastolic Blood Pressure ( mmHg )",
    "AVAL": 78.4,
    "BASE": 78.4,
    "CHG": 0,
    "PCHG": 0,
    "ADT": "2013-08-15",
    "ADY": 59,
    "AVISIT": "WEEK 8",
    "AVISITN": 5,
    "ABLFL": "",
    "ANL01FL": "Y",
    "SAFFL": "Y"
  },
  {
    "STUDYID": "CDISCPILOT01",
    "USUBJID": "01-701-001",
    "TRTP": "Xanomeline Low Dose",
    "TRTPN": 1,
    "PARAMCD": "DIABP",
    "PARAM": "Diastolic Blood Pressure ( mmHg )",
    "AVAL": 78.4,
    "BASE": 78.4,
    "CHG": 0,
    "PCHG": 0,
    "ADT": "2013-06-10",
    "ADY": -8,
    "AVISIT": "SCREENING",
    "AVISITN": 1,
    "ABLFL": "Y",
    "ANL01FL": "Y",
    "SAFFL": "Y"
  },
  {
    "STUDYID": "CDISCPILOT01",
    "USUBJID": "01-701-001",
    "TRTP": "Xanomeline Low Dose",
    "TRTPN": 1,
    "PARAMCD": "HEIGHT",
    "PARAM": "Height ( cm )",
    "AVAL": 152.1,
    "BASE": 152.1,
    "CHG": 0,
    "PCHG": 0,
    "ADT": "2013-12-04",
    "ADY": 170,
    "AVISIT": "WEEK 24",
    "AVISITN": 9,
    "ABLFL": "",
    "ANL01FL": "Y",
    "SAFFL": "Y"
  },
  {
    "STUDYID": "CDISCPILOT01",
    "USUBJID": "01-701-001",
    "TRTP": "Xanomeline Low Dose",
    "TRTPN": 1,
    "PARAMCD": "HEIGHT",
    "PARAM": "Height ( cm )",
    "AVAL": 152.1,
    "BASE": 152.1,
    "CHG": 0,
    "PCHG": 0,
    "ADT": "2013-06-18",
    "ADY": 1,
    "AVISIT": "BASELINE",
    "AVISITN": 2,
    "ABLFL": "",
    "ANL01FL": "Y",
    "SAFFL": "Y"
  },
  {
    "STUDYID": "CDISCPILOT01",
    "USUBJID": "01-701-001",
    "TRTP": "Xanomeline Low Dose",
    "TRTPN": 1,
    "PARAMCD": "HEIGHT",
    "PARAM": "Height ( cm )",
    "AVAL": 152.1,
    "BASE": 152.1,
    "CHG": 0,
    "PCHG": 0,
    "ADT": "2013-11-06",
    "ADY": 142,
    "AVISIT": "WEEK 20",
    "AVISITN": 8,
    "ABLFL": "",
    "ANL01FL": "Y",
    "SAFFL": "Y"
  },
  {
    "STUDYID": "CDISCPILOT01",
    "USUBJID": "01-701-001",
    "TRTP": "Xanomeline Low Dose",
    "TRTPN": 1,
    "PARAMCD": "HEIGHT",
    "PARAM": "Height ( cm )",
    "AVAL": 152.1,
    "BASE": 152.1,
    "CHG": 0,
    "PCHG": 0,
    "ADT": "2013-10-08",
    "ADY": 113,
    "AVISIT": "WEEK 16",
    "AVISITN": 7,
    "ABLFL": "",
    "ANL01FL": "Y",
    "SAFFL": "Y"
  },
  {
    "STUDYID": "CDISCPILOT01",
    "USUBJID": "01-701-001",
    "TRTP": "Xanomeline Low Dose",
    "TRTPN": 1,
    "PARAMCD": "HEIGHT",
    "PARAM": "Height ( cm )",
    "AVAL": 152.1,
    "BASE": 152.1,
    "CHG": 0,
    "PCHG": 0,
    "ADT": "2013-08-14",
    "ADY": 58,
    "AVISIT": "WEEK 8",
    "AVISITN": 5,
    "ABLFL": "",
    "ANL01FL": "Y",
    "SAFFL": "Y"
  },
  {
    "STUDYID": "CDISCPILOT01",
    "USUBJID": "01-701-001",
    "TRTP": "Xanomeline Low Dose",
    "TRTPN": 1,
    "PARAMCD": "HEIGHT",
    "PARAM": "Height ( cm )",
    "AVAL": 152.1,
    "BASE": 152.1,
    "CHG": 0,
    "PCHG": 0,
    "ADT": "2013-06-10",
    "ADY": -8,
    "AVISIT": "SCREENING",
    "AVISITN": 1,
    "ABLFL": "Y",
    "ANL01FL": "Y",
    "SAFFL": "Y"
  },
  {
    "STUDYID": "CDISCPILOT01",
    "USUBJID": "01-701-001",
    "TRTP": "Xanomeline Low Dose",
    "TRTPN": 1,
    "PARAMCD": "HEIGHT",
    "PARAM": "Height ( cm )",
    "AVAL": 152.1,
    "BASE": 152.1,
    "CHG": 0,
    "PCHG": 0,
    "ADT": "2013-09-11",
    "ADY": 86,
    "AVISIT": "WEEK 12",
    "AVISITN": 6,
    "ABLFL": "",
    "ANL01FL": "Y",
    "SAFFL": "Y"
  },
  {
    "STUDYID": "CDISCPILOT01",
    "USUBJID": "01-701-001",
    "TRTP": "Xanomeline Low Dose",
    "TRTPN": 1,
    "PARAMCD": "HEIGHT",
    "PARAM": "Height ( cm )",
    "AVAL": 152.1,
    "BASE": 152.1,
    "CHG": 0,
    "PCHG": 0,
    "ADT": "2013-07-03",
    "ADY": 16,
    "AVISIT": "WEEK 2",
    "AVISITN": 3,
    "ABLFL": "",
    "ANL01FL": "Y",
    "SAFFL": "Y"
  },
  {
    "STUDYID": "CDISCPILOT01",
    "USUBJID": "01-701-001",
    "TRTP": "Xanomeline Low Dose",
    "TRTPN": 1,
    "PARAMCD": "HEIGHT",
    "PARAM": "Height ( cm )",
    "AVAL": 152.1,
    "BASE": 152.1,
    "CHG": 0,
    "PCHG": 0,
    "ADT": "2013-07-16",
    "ADY": 29,
    "AVISIT": "WEEK 4",
    "AVISITN": 4,
    "ABLFL": "",
    "ANL01FL": "Y",
    "SAFFL": "Y"
  },
  {
    "STUDYID": "CDISCPILOT01",
    "USUBJID": "01-701-001",
    "TRTP": "Xanomeline Low Dose",
    "TRTPN": 1,
    "PARAMCD": "PULSE",
    "PARAM": "Pulse Rate ( beats/min )",
    "AVAL": 68,
    "BASE": 70.6,
    "CHG": -2.6,
    "PCHG": -3.6827,
    "ADT": "2013-09-11",
    "ADY": 86,
    "AVISIT": "WEEK 12",
    "AVISITN": 6,
    "ABLFL": "",
    "ANL01FL": "Y",
    "SAFFL": "Y"
  },
  {
    "STUDYID": "CDISCPILOT01",
    "USUBJID": "01-701-001",
    "TRTP": "Xanomeline Low Dose",
    "TRTPN": 1,
    "PARAMCD": "PULSE",
    "PARAM": "Pulse Rate ( beats/min )",
    "AVAL": 66.1,
    "BASE": 70.6,
    "CHG": -4.5,
    "PCHG": -6.3739,
    "ADT": "2013-10-10",
    "ADY": 115,
    "AVISIT": "WEEK 16",
    "AVISITN": 7,
    "ABLFL": "",
    "ANL01FL": "Y",
    "SAFFL": "Y"
  },
  {
    "STUDYID": "CDISCPILOT01",
    "USUBJID": "01-701-001",
    "TRTP": "Xanomeline Low Dose",
    "TRTPN": 1,
    "PARAMCD": "PULSE",
    "PARAM": "Pulse Rate ( beats/min )",
    "AVAL": 68.9,
    "BASE": 70.6,
    "CHG": -1.7,
    "PCHG": -2.4079,
    "ADT": "2013-07-18",
    "ADY": 31,
    "AVISIT": "WEEK 4",
    "AVISITN": 4,
    "ABLFL": "",
    "ANL01FL": "Y",
    "SAFFL": "Y"
  },
  {
    "STUDYID": "CDISCPILOT01",
    "USUBJID": "01-701-001",
    "TRTP": "Xanomeline Low Dose",
    "TRTPN": 1,
    "PARAMCD": "PULSE",
    "PARAM": "Pulse Rate ( beats/min )",
    "AVAL": 67.8,
    "BASE": 70.6,
    "CHG": -2.8,
    "PCHG": -3.966,
    "ADT": "2013-12-05",
    "ADY": 171,
    "AVISIT": "WEEK 24",
    "AVISITN": 9,
    "ABLFL": "",
    "ANL01FL": "Y",
    "SAFFL": "Y"
  },
  {
    "STUDYID": "CDISCPILOT01",
    "USUBJID": "01-701-001",
    "TRTP": "Xanomeline Low Dose",
    "TRTPN": 1,
    "PARAMCD": "PULSE",
    "PARAM": "Pulse Rate ( beats/min )",
    "AVAL": 65.5,
    "BASE": 70.6,
    "CHG": -5.1,
    "PCHG": -7.2238,
    "ADT": "2013-08-13",
    "ADY": 57,
    "AVISIT": "WEEK 8",
    "AVISITN": 5,
    "ABLFL": "",
    "ANL01FL": "Y",
    "SAFFL": "Y"
  },
  {
    "STUDYID": "CDISCPILOT01",
    "USUBJID": "01-701-001",
    "TRTP": "Xanomeline Low Dose",
    "TRTPN": 1,
    "PARAMCD": "PULSE",
    "PARAM": "Pulse Rate ( beats/min )",
    "AVAL": 69.4,
    "BASE": 70.6,
    "CHG": -1.2,
    "PCHG": -1.6997,
    "ADT": "2013-07-03",
    "ADY": 16,
    "AVISIT": "WEEK 2",
    "AVISITN": 3,
    "ABLFL": "",
    "ANL01FL": "Y",
    "SAFFL": "Y"
  },
  {
    "STUDYID": "CDISCPILOT01",
    "USUBJID": "01-701-001",
    "TRTP": "Xanomeline Low Dose",
    "TRTPN": 1,
    "PARAMCD": "PULSE",
    "PARAM": "Pulse Rate ( beats/min )",
    "AVAL": 69.2,
    "BASE": 70.6,
    "CHG": -1.4,
    "PCHG": -1.983,
    "ADT": "2013-06-19",
    "ADY": 2,
    "AVISIT": "BASELINE",
    "AVISITN": 2,
    "ABLFL": "",
    "ANL01FL": "Y",
    "SAFFL": "Y"
  },
  {
    "STUDYID": "CDISCPILOT01",
    "USUBJID": "01-701-001",
    "TRTP": "Xanomeline Low Dose",
    "TRTPN": 1,
    "PARAMCD": "PULSE",
    "PARAM": "Pulse Rate ( beats/min )",
    "AVAL": 69.7,
    "BASE": 70.6,
    "CHG": -0.9,
    "PCHG": -1.2748,
    "ADT": "2013-11-07",
    "ADY": 143,
    "AVISIT": "WEEK 20",
    "AVISITN": 8,
    "ABLFL": "",
    "ANL01FL": "Y",
    "SAFFL": "Y"
  },
  {
    "STUDYID": "CDISCPILOT01",
    "USUBJID": "01-701-001",
    "TRTP": "Xanomeline Low Dose",
    "TRTPN": 1,
    "PARAMCD": "PULSE",
    "PARAM": "Pulse Rate ( beats/min )",
    "AVAL": 70.6,
    "BASE": 70.6,
    "CHG": 0,
    "PCHG": 0,
    "ADT": "2013-06-10",
    "ADY": -8,
    "AVISIT": "SCREENING",
    "AVISITN": 1,
    "ABLFL": "Y",
    "ANL01FL": "Y",
    "SAFFL": "Y"
  },
  {
    "STUDYID": "CDISCPILOT01",
    "USUBJID": "01-701-001",
    "TRTP": "Xanomeline Low Dose",
    "TRTPN": 1,
    "PARAMCD": "RESP",
    "PARAM": "Respiratory Rate ( breaths/min )",
    "AVAL": 13.7,
    "BASE": 13.7,
    "CHG": 0,
    "PCHG": 0,
    "ADT": "2013-08-13",
    "ADY": 57,
    "AVISIT": "WEEK 8",
    "AVISITN": 5,
    "ABLFL": "",
    "ANL01FL": "Y",
    "SAFFL": "Y"
  },
  {
    "STUDYID": "CDISCPILOT01",
    "USUBJID": "01-701-001",
    "TRTP": "Xanomeline Low Dose",
    "TRTPN": 1,
    "PARAMCD": "RESP",
    "PARAM": "Respiratory Rate ( breaths/min )",
    "AVAL": 13.3,
    "BASE": 13.7,
    "CHG": -0.4,
    "PCHG": -2.9197,
    "ADT": "2013-11-05",
    "ADY": 141,
    "AVISIT": "WEEK 20",
    "AVISITN": 8,
    "ABLFL": "",
    "ANL01FL": "Y",
    "SAFFL": "Y"
  },
  {
    "STUDYID": "CDISCPILOT01",
    "USUBJID": "01-701-001",
    "TRTP": "Xanomeline Low Dose",
    "TRTPN": 1,
    "PARAMCD": "RESP",
    "PARAM": "Respiratory Rate ( breaths/min )",
    "AVAL": 13.9,
    "BASE": 13.7,
    "CHG": 0.2,
    "PCHG": 1.4599,
    "ADT": "2013-07-16",
    "ADY": 29,
    "AVISIT": "WEEK 4",
    "AVISITN": 4,
    "ABLFL": "",
    "ANL01FL": "Y",
    "SAFFL": "Y"
  },
  {
    "STUDYID": "CDISCPILOT01",
    "USUBJID": "01-701-001",
    "TRTP": "Xanomeline Low Dose",
    "TRTPN": 1,
    "PARAMCD": "RESP",
    "PARAM": "Respiratory Rate ( breaths/min )",
    "AVAL": 13.7,
    "BASE": 13.7,
    "CHG": 0,
    "PCHG": 0,
    "ADT": "2013-06-18",
    "ADY": 1,
    "AVISIT": "BASELINE",
    "AVISITN": 2,
    "ABLFL": "",
    "ANL01FL": "Y",
    "SAFFL": "Y"
  },
  {
    "STUDYID": "CDISCPILOT01",
    "USUBJID": "01-701-001",
    "TRTP": "Xanomeline Low Dose",
    "TRTPN": 1,
    "PARAMCD": "RESP",
    "PARAM": "Respiratory Rate ( breaths/min )",
    "AVAL": 13.3,
    "BASE": 13.7,
    "CHG": -0.4,
    "PCHG": -2.9197,
    "ADT": "2013-09-10",
    "ADY": 85,
    "AVISIT": "WEEK 12",
    "AVISITN": 6,
    "ABLFL": "",
    "ANL01FL": "Y",
    "SAFFL": "Y"
  },
  {
    "STUDYID": "CDISCPILOT01",
    "USUBJID": "01-701-001",
    "TRTP": "Xanomeline Low Dose",
    "TRTPN": 1,
    "PARAMCD": "RESP",
    "PARAM": "Respiratory Rate ( breaths/min )",
    "AVAL": 13.7,
    "BASE": 13.7,
    "CHG": 0,
    "PCHG": 0,
    "ADT": "2013-06-11",
    "ADY": -7,
    "AVISIT": "SCREENING",
    "AVISITN": 1,
    "ABLFL": "Y",
    "ANL01FL": "Y",
    "SAFFL": "Y"
  },
  {
    "STUDYID": "CDISCPILOT01",
    "USUBJID": "01-701-001",
    "TRTP": "Xanomeline Low Dose",
    "TRTPN": 1,
    "PARAMCD": "RESP",
    "PARAM": "Respiratory Rate ( breaths/min )",
    "AVAL": 14.3,
    "BASE": 13.7,
    "CHG": 0.6,
    "PCHG": 4.3796,
    "ADT": "2013-07-02",
    "ADY": 15,
    "AVISIT": "WEEK 2",
    "AVISITN": 3,
    "ABLFL": "",
    "ANL01FL": "Y",
    "SAFFL": "Y"
  },
  {
    "STUDYID": "CDISCPILOT01",
    "USUBJID": "01-701-001",
    "TRTP": "Xanomeline Low Dose",
    "TRTPN": 1,
    "PARAMCD": "RESP",
    "PARAM": "Respiratory Rate ( breaths/min )",
    "AVAL": 13.6,
    "BASE": 13.7,
    "CHG": -0.1,
    "PCHG": -0.7299,
    "ADT": "2013-10-09",
    "ADY": 114,
    "AVISIT": "WEEK 16",
    "AVISITN": 7,
    "ABLFL": "",
    "ANL01FL": "Y",
    "SAFFL": "Y"
  },
  {
    "STUDYID": "CDISCPILOT01",
    "USUBJID": "01-701-001",
    "TRTP": "Xanomeline Low Dose",
    "TRTPN": 1,
    "PARAMCD": "RESP",
    "PARAM": "Respiratory Rate ( breaths/min )",
    "AVAL": 13.8,
    "BASE": 13.7,
    "CHG": 0.1,
    "PCHG": 0.7299,
    "ADT": "2013-12-05",
    "ADY": 171,
    "AVISIT": "WEEK 24",
    "AVISITN": 9,
    "ABLFL": "",
    "ANL01FL": "Y",
    "SAFFL": "Y"
  },
  {
    "STUDYID": "CDISCPILOT01",
    "USUBJID": "01-701-001",
    "TRTP": "Xanomeline Low Dose",
    "TRTPN": 1,
    "PARAMCD": "SYSBP",
    "PARAM": "Systolic Blood Pressure ( mmHg )",
    "AVAL": 151.8,
    "BASE": 149.1,
    "CHG": 2.7,
    "PCHG": 1.8109,
    "ADT": "2013-12-03",
    "ADY": 169,
    "AVISIT": "WEEK 24",
    "AVISITN": 9,
    "ABLFL": "",
    "ANL01FL": "Y",
    "SAFFL": "Y"
  },
  {
    "STUDYID": "CDISCPILOT01",
    "USUBJID": "01-701-001",
    "TRTP": "Xanomeline Low Dose",
    "TRTPN": 1,
    "PARAMCD": "SYSBP",
    "PARAM": "Systolic Blood Pressure ( mmHg )",
    "AVAL": 150.8,
    "BASE": 149.1,
    "CHG": 1.7,
    "PCHG": 1.1402,
    "ADT": "2013-11-05",
    "ADY": 141,
    "AVISIT": "WEEK 20",
    "AVISITN": 8,
    "ABLFL": "",
    "ANL01FL": "Y",
    "SAFFL": "Y"
  },
  {
    "STUDYID": "CDISCPILOT01",
    "USUBJID": "01-701-001",
    "TRTP": "Xanomeline Low Dose",
    "TRTPN": 1,
    "PARAMCD": "SYSBP",
    "PARAM": "Systolic Blood Pressure ( mmHg )",
    "AVAL": 150.2,
    "BASE": 149.1,
    "CHG": 1.1,
    "PCHG": 0.7378,
    "ADT": "2013-09-12",
    "ADY": 87,
    "AVISIT": "WEEK 12",
    "AVISITN": 6,
    "ABLFL": "",
    "ANL01FL": "Y",
    "SAFFL": "Y"
  },
  {
    "STUDYID": "CDISCPILOT01",
    "USUBJID": "01-701-001",
    "TRTP": "Xanomeline Low Dose",
    "TRTPN": 1,
    "PARAMCD": "SYSBP",
    "PARAM": "Systolic Blood Pressure ( mmHg )",
    "AVAL": 143.6,
    "BASE": 149.1,
    "CHG": -5.5,
    "PCHG": -3.6888,
    "ADT": "2013-10-08",
    "ADY": 113,
    "AVISIT": "WEEK 16",
    "AVISITN": 7,
    "ABLFL": "",
    "ANL01FL": "Y",
    "SAFFL": "Y"
  },
  {
    "STUDYID": "CDISCPILOT01",
    "USUBJID": "01-701-001",
    "TRTP": "Xanomeline Low Dose",
    "TRTPN": 1,
    "PARAMCD": "SYSBP",
    "PARAM": "Systolic Blood Pressure ( mmHg )",
    "AVAL": 143.1,
    "BASE": 149.1,
    "CHG": -6,
    "PCHG": -4.0241,
    "ADT": "2013-08-13",
    "ADY": 57,
    "AVISIT": "WEEK 8",
    "AVISITN": 5,
    "ABLFL": "",
    "ANL01FL": "Y",
    "SAFFL": "Y"
  },
  {
    "STUDYID": "CDISCPILOT01",
    "USUBJID": "01-701-001",
    "TRTP": "Xanomeline Low Dose",
    "TRTPN": 1,
    "PARAMCD": "SYSBP",
    "PARAM": "Systolic Blood Pressure ( mmHg )",
    "AVAL": 145.2,
    "BASE": 149.1,
    "CHG": -3.9,
    "PCHG": -2.6157,
    "ADT": "2013-07-04",
    "ADY": 17,
    "AVISIT": "WEEK 2",
    "AVISITN": 3,
    "ABLFL": "",
    "ANL01FL": "Y",
    "SAFFL": "Y"
  },
  {
    "STUDYID": "CDISCPILOT01",
    "USUBJID": "01-701-001",
    "TRTP": "Xanomeline Low Dose",
    "TRTPN": 1,
    "PARAMCD": "SYSBP",
    "PARAM": "Systolic Blood Pressure ( mmHg )",
    "AVAL": 148.6,
    "BASE": 149.1,
    "CHG": -0.5,
    "PCHG": -0.3353,
    "ADT": "2013-07-18",
    "ADY": 31,
    "AVISIT": "WEEK 4",
    "AVISITN": 4,
    "ABLFL": "",
    "ANL01FL": "Y",
    "SAFFL": "Y"
  },
  {
    "STUDYID": "CDISCPILOT01",
    "USUBJID": "01-701-001",
    "TRTP": "Xanomeline Low Dose",
    "TRTPN": 1,
    "PARAMCD": "SYSBP",
    "PARAM": "Systolic Blood Pressure ( mmHg )",
    "AVAL": 156.5,
    "BASE": 149.1,
    "CHG": 7.4,
    "PCHG": 4.9631,
    "ADT": "2013-06-20",
    "ADY": 3,
    "AVISIT": "BASELINE",
    "AVISITN": 2,
    "ABLFL": "",
    "ANL01FL": "Y",
    "SAFFL": "Y"
  },
  {
    "STUDYID": "CDISCPILOT01",
    "USUBJID": "01-701-001",
    "TRTP": "Xanomeline Low Dose",
    "TRTPN": 1,
    "PARAMCD": "SYSBP",
    "PARAM": "Systolic Blood Pressure ( mmHg )",
    "AVAL": 149.1,
    "BASE": 149.1,
    "CHG": 0,
    "PCHG": 0,
    "ADT": "2013-06-12",
    "ADY": -6,
    "AVISIT": "SCREENING",
    "AVISITN": 1,
    "ABLFL": "Y",
    "ANL01FL": "Y",
    "SAFFL": "Y"
  },
  {
    "STUDYID": "CDISCPILOT01",
    "USUBJID": "01-701-001",
    "TRTP": "Xanomeline Low Dose",
    "TRTPN": 1,
    "PARAMCD": "TEMP",
    "PARAM": "Temperature ( C )",
    "AVAL": 36.5,
    "BASE": 36.5,
    "CHG": 0,
    "PCHG": 0,
    "ADT": "2013-12-05",
    "ADY": 171,
    "AVISIT": "WEEK 24",
    "AVISITN": 9,
    "ABLFL": "",
    "ANL01FL": "Y",
    "SAFFL": "Y"
  },
  {
    "STUDYID": "CDISCPILOT01",
    "USUBJID": "01-701-001",
    "TRTP": "Xanomeline Low Dose",
    "TRTPN": 1,
    "PARAMCD": "TEMP",
    "PARAM": "Temperature ( C )",
    "AVAL": 36.6,
    "BASE": 36.5,
    "CHG": 0.1,
    "PCHG": 0.274,
    "ADT": "2013-08-15",
    "ADY": 59,
    "AVISIT": "WEEK 8",
    "AVISITN": 5,
    "ABLFL": "",
    "ANL01FL": "Y",
    "SAFFL": "Y"
  },
  {
    "STUDYID": "CDISCPILOT01",
    "USUBJID": "01-701-001",
    "TRTP": "Xanomeline Low Dose",
    "TRTPN": 1,
    "PARAMCD": "TEMP",
    "PARAM": "Temperature ( C )",
    "AVAL": 36.4,
    "BASE": 36.5,
    "CHG": -0.1,
    "PCHG": -0.274,
    "ADT": "2013-09-11",
    "ADY": 86,
    "AVISIT": "WEEK 12",
    "AVISITN": 6,
    "ABLFL": "",
    "ANL01FL": "Y",
    "SAFFL": "Y"
  },
  {
    "STUDYID": "CDISCPILOT01",
    "USUBJID": "01-701-001",
    "TRTP": "Xanomeline Low Dose",
    "TRTPN": 1,
    "PARAMCD": "TEMP",
    "PARAM": "Temperature ( C )",
    "AVAL": 36.5,
    "BASE": 36.5,
    "CHG": 0,
    "PCHG": 0,
    "ADT": "2013-10-08",
    "ADY": 113,
    "AVISIT": "WEEK 16",
    "AVISITN": 7,
    "ABLFL": "",
    "ANL01FL": "Y",
    "SAFFL": "Y"
  },
  {
    "STUDYID": "CDISCPILOT01",
    "USUBJID": "01-701-001",
    "TRTP": "Xanomeline Low Dose",
    "TRTPN": 1,
    "PARAMCD": "TEMP",
    "PARAM": "Temperature ( C )",
    "AVAL": 36.5,
    "BASE": 36.5,
    "CHG": 0,
    "PCHG": 0,
    "ADT": "2013-06-12",
    "ADY": -6,
    "AVISIT": "SCREENING",
    "AVISITN": 1,
    "ABLFL": "Y",
    "ANL01FL": "Y",
    "SAFFL": "Y"
  },
  {
    "STUDYID": "CDISCPILOT01",
    "USUBJID": "01-701-001",
    "TRTP": "Xanomeline Low Dose",
    "TRTPN": 1,
    "PARAMCD": "TEMP",
    "PARAM": "Temperature ( C )",
    "AVAL": 36.5,
    "BASE": 36.5,
    "CHG": 0,
    "PCHG": 0,
    "ADT": "2013-11-05",
    "ADY": 141,
    "AVISIT": "WEEK 20",
    "AVISITN": 8,
    "ABLFL": "",
    "ANL01FL": "Y",
    "SAFFL": "Y"
  },
  {
    "STUDYID": "CDISCPILOT01",
    "USUBJID": "01-701-001",
    "TRTP": "Xanomeline Low Dose",
    "TRTPN": 1,
    "PARAMCD": "TEMP",
    "PARAM": "Temperature ( C )",
    "AVAL": 36.5,
    "BASE": 36.5,
    "CHG": 0,
    "PCHG": 0,
    "ADT": "2013-07-18",
    "ADY": 31,
    "AVISIT": "WEEK 4",
    "AVISITN": 4,
    "ABLFL": "",
    "ANL01FL": "Y",
    "SAFFL": "Y"
  },
  {
    "STUDYID": "CDISCPILOT01",
    "USUBJID": "01-701-001",
    "TRTP": "Xanomeline Low Dose",
    "TRTPN": 1,
    "PARAMCD": "TEMP",
    "PARAM": "Temperature ( C )",
    "AVAL": 36.5,
    "BASE": 36.5,
    "CHG": 0,
    "PCHG": 0,
    "ADT": "2013-06-20",
    "ADY": 3,
    "AVISIT": "BASELINE",
    "AVISITN": 2,
    "ABLFL": "",
    "ANL01FL": "Y",
    "SAFFL": "Y"
  },
  {
    "STUDYID": "CDISCPILOT01",
    "USUBJID": "01-701-001",
    "TRTP": "Xanomeline Low Dose",
    "TRTPN": 1,
    "PARAMCD": "TEMP",
    "PARAM": "Temperature ( C )",
    "AVAL": 36.5,
    "BASE": 36.5,
    "CHG": 0,
    "PCHG": 0,
    "ADT": "2013-07-02",
    "ADY": 15,
    "AVISIT": "WEEK 2",
    "AVISITN": 3,
    "ABLFL": "",
    "ANL01FL": "Y",
    "SAFFL": "Y"
  },
  {
    "STUDYID": "CDISCPILOT01",
    "USUBJID": "01-701-001",
    "TRTP": "Xanomeline Low Dose",
    "TRTPN": 1,
    "PARAMCD": "WEIGHT",
    "PARAM": "Weight ( kg )",
    "AVAL": 46.8,
    "BASE": 46.8,
    "CHG": 0,
    "PCHG": 0,
    "ADT": "2013-06-10",
    "ADY": -8,
    "AVISIT": "SCREENING",
    "AVISITN": 1,
    "ABLFL": "Y",
    "ANL01FL": "Y",
    "SAFFL": "Y"
  },
  {
    "STUDYID": "CDISCPILOT01",
    "USUBJID": "01-701-001",
    "TRTP": "Xanomeline Low Dose",
    "TRTPN": 1,
    "PARAMCD": "WEIGHT",
    "PARAM": "Weight ( kg )",
    "AVAL": 46.8,
    "BASE": 46.8,
    "CHG": 0,
    "PCHG": 0,
    "ADT": "2013-07-03",
    "ADY": 16,
    "AVISIT": "WEEK 2",
    "AVISITN": 3,
    "ABLFL": "",
    "ANL01FL": "Y",
    "SAFFL": "Y"
  },
  {
    "STUDYID": "CDISCPILOT01",
    "USUBJID": "01-701-001",
    "TRTP": "Xanomeline Low Dose",
    "TRTPN": 1,
    "PARAMCD": "WEIGHT",
    "PARAM": "Weight ( kg )",
    "AVAL": 46.7,
    "BASE": 46.8,
    "CHG": -0.1,
    "PCHG": -0.2137,
    "ADT": "2013-10-10",
    "ADY": 115,
    "AVISIT": "WEEK 16",
    "AVISITN": 7,
    "ABLFL": "",
    "ANL01FL": "Y",
    "SAFFL": "Y"
  },
  {
    "STUDYID": "CDISCPILOT01",
    "USUBJID": "01-701-001",
    "TRTP": "Xanomeline Low Dose",
    "TRTPN": 1,
    "PARAMCD": "WEIGHT",
    "PARAM": "Weight ( kg )",
    "AVAL": 46.2,
    "BASE": 46.8,
    "CHG": -0.6,
    "PCHG": -1.2821,
    "ADT": "2013-12-04",
    "ADY": 170,
    "AVISIT": "WEEK 24",
    "AVISITN": 9,
    "ABLFL": "",
    "ANL01FL": "Y",
    "SAFFL": "Y"
  },
  {
    "STUDYID": "CDISCPILOT01",
    "USUBJID": "01-701-001",
    "TRTP": "Xanomeline Low Dose",
    "TRTPN": 1,
    "PARAMCD": "WEIGHT",
    "PARAM": "Weight ( kg )",
    "AVAL": 45,
    "BASE": 46.8,
    "CHG": -1.8,
    "PCHG": -3.8462,
    "ADT": "2013-07-16",
    "ADY": 29,
    "AVISIT": "WEEK 4",
    "AVISITN": 4,
    "ABLFL": "",
    "ANL01FL": "Y",
    "SAFFL": "Y"
  },
  {
    "STUDYID": "CDISCPILOT01",
    "USUBJID": "01-701-001",
    "TRTP": "Xanomeline Low Dose",
    "TRTPN": 1,
    "PARAMCD": "WEIGHT",
    "PARAM": "Weight ( kg )",
    "AVAL": 46.4,
    "BASE": 46.8,
    "CHG": -0.4,
    "PCHG": -0.8547,
    "ADT": "2013-11-06",
    "ADY": 142,
    "AVISIT": "WEEK 20",
    "AVISITN": 8,
    "ABLFL": "",
    "ANL01FL": "Y",
    "SAFFL": "Y"
  },
  {
    "STUDYID": "CDISCPILOT01",
    "USUBJID": "01-701-001",
    "TRTP": "Xanomeline Low Dose",
    "TRTPN": 1,
    "PARAMCD": "WEIGHT",
    "PARAM": "Weight ( kg )",
    "AVAL": 45.3,
    "BASE": 46.8,
    "CHG": -1.5,
    "PCHG": -3.2051,
    "ADT": "2013-09-11",
    "ADY": 86,
    "AVISIT": "WEEK 12",
    "AVISITN": 6,
    "ABLFL": "",
    "ANL01FL": "Y",
    "SAFFL": "Y"
  },
  {
    "STUDYID": "CDISCPILOT01",
    "USUBJID": "01-701-001",
    "TRTP": "Xanomeline Low Dose",
    "TRTPN": 1,
    "PARAMCD": "WEIGHT",
    "PARAM": "Weight ( kg )",
    "AVAL": 46.2,
    "BASE": 46.8,
    "CHG": -0.6,
    "PCHG": -1.2821,
    "ADT": "2013-06-20",
    "ADY": 3,
    "AVISIT": "BASELINE",
    "AVISITN": 2,
    "ABLFL": "",
    "ANL01FL": "Y",
    "SAFFL": "Y"
  },
  {
    "STUDYID": "CDISCPILOT01",
    "USUBJID": "01-701-001",
    "TRTP": "Xanomeline Low Dose",
    "TRTPN": 1,
    "PARAMCD": "WEIGHT",
    "PARAM": "Weight ( kg )",
    "AVAL": 47,
    "BASE": 46.8,
    "CHG": 0.2,
    "PCHG": 0.4274,
    "ADT": "2013-08-14",
    "ADY": 58,
    "AVISIT": "WEEK 8",
    "AVISITN": 5,
    "ABLFL": "",
    "ANL01FL": "Y",
    "SAFFL": "Y"
  },
  {
    "STUDYID": "CDISCPILOT01",
    "USUBJID": "01-701-002",
    "TRTP": "Xanomeline Low Dose",
    "TRTPN": 1,
    "PARAMCD": "DIABP",
    "PARAM": "Diastolic Blood Pressure ( mmHg )",
    "AVAL": 66.8,
    "BASE": 68.8,
    "CHG": -2,
    "PCHG": -2.907,
    "ADT": "2013-07-21",
    "ADY": 113,
    "AVISIT": "WEEK 16",
    "AVISITN": 7,
    "ABLFL": "",
    "ANL01FL": "Y",
    "SAFFL": "Y"
  },
  {
    "STUDYID": "CDISCPILOT01",
    "USUBJID": "01-701-002",
    "TRTP": "Xanomeline Low Dose",
    "TRTPN": 1,
    "PARAMCD": "DIABP",
    "PARAM": "Diastolic Blood Pressure ( mmHg )",
    "AVAL": 68.3,
    "BASE": 68.8,
    "CHG": -0.5,
    "PCHG": -0.7267,
    "ADT": "2013-08-18",
    "ADY": 141,
    "AVISIT": "WEEK 20",
    "AVISITN": 8,
    "ABLFL": "",
    "ANL01FL": "Y",
    "SAFFL": "Y"
  },
  {
    "STUDYID": "CDISCPILOT01",
    "USUBJID": "01-701-002",
    "TRTP": "Xanomeline Low Dose",
    "TRTPN": 1,
    "PARAMCD": "DIABP",
    "PARAM": "Diastolic Blood Pressure ( mmHg )",
    "AVAL": 67.6,
    "BASE": 68.8,
    "CHG": -1.2,
    "PCHG": -1.7442,
    "ADT": "2013-06-25",
    "ADY": 87,
    "AVISIT": "WEEK 12",
    "AVISITN": 6,
    "ABLFL": "",
    "ANL01FL": "Y",
    "SAFFL": "Y"
  },
  {
    "STUDYID": "CDISCPILOT01",
    "USUBJID": "01-701-002",
    "TRTP": "Xanomeline Low Dose",
    "TRTPN": 1,
    "PARAMCD": "DIABP",
    "PARAM": "Diastolic Blood Pressure ( mmHg )",
    "AVAL": 69.4,
    "BASE": 68.8,
    "CHG": 0.6,
    "PCHG": 0.8721,
    "ADT": "2013-04-01",
    "ADY": 2,
    "AVISIT": "BASELINE",
    "AVISITN": 2,
    "ABLFL": "",
    "ANL01FL": "Y",
    "SAFFL": "Y"
  },
  {
    "STUDYID": "CDISCPILOT01",
    "USUBJID": "01-701-002",
    "TRTP": "Xanomeline Low Dose",
    "TRTPN": 1,
    "PARAMCD": "DIABP",
    "PARAM": "Diastolic Blood Pressure ( mmHg )",
    "AVAL": 67.1,
    "BASE": 68.8,
    "CHG": -1.7,
    "PCHG": -2.4709,
    "ADT": "2013-09-16",
    "ADY": 170,
    "AVISIT": "WEEK 24",
    "AVISITN": 9,
    "ABLFL": "",
    "ANL01FL": "Y",
    "SAFFL": "Y"
  },
  {
    "STUDYID": "CDISCPILOT01",
    "USUBJID": "01-701-002",
    "TRTP": "Xanomeline Low Dose",
    "TRTPN": 1,
    "PARAMCD": "DIABP",
    "PARAM": "Diastolic Blood Pressure ( mmHg )",
    "AVAL": 69.3,
    "BASE": 68.8,
    "CHG": 0.5,
    "PCHG": 0.7267,
    "ADT": "2013-04-15",
    "ADY": 16,
    "AVISIT": "WEEK 2",
    "AVISITN": 3,
    "ABLFL": "",
    "ANL01FL": "Y",
    "SAFFL": "Y"
  },
  {
    "STUDYID": "CDISCPILOT01",
    "USUBJID": "01-701-002",
    "TRTP": "Xanomeline Low Dose",
    "TRTPN": 1,
    "PARAMCD": "DIABP",
    "PARAM": "Diastolic Blood Pressure ( mmHg )",
    "AVAL": 69.4,
    "BASE": 68.8,
    "CHG": 0.6,
    "PCHG": 0.8721,
    "ADT": "2013-04-30",
    "ADY": 31,
    "AVISIT": "WEEK 4",
    "AVISITN": 4,
    "ABLFL": "",
    "ANL01FL": "Y",
    "SAFFL": "Y"
  },
  {
    "STUDYID": "CDISCPILOT01",
    "USUBJID": "01-701-002",
    "TRTP": "Xanomeline Low Dose",
    "TRTPN": 1,
    "PARAMCD": "DIABP",
    "PARAM": "Diastolic Blood Pressure ( mmHg )",
    "AVAL": 67.3,
    "BASE": 68.8,
    "CHG": -1.5,
    "PCHG": -2.1802,
    "ADT": "2013-05-27",
    "ADY": 58,
    "AVISIT": "WEEK 8",
    "AVISITN": 5,
    "ABLFL": "",
    "ANL01FL": "Y",
    "SAFFL": "Y"
  },
  {
    "STUDYID": "CDISCPILOT01",
    "USUBJID": "01-701-002",
    "TRTP": "Xanomeline Low Dose",
    "TRTPN": 1,
    "PARAMCD": "DIABP",
    "PARAM": "Diastolic Blood Pressure ( mmHg )",
    "AVAL": 68.8,
    "BASE": 68.8,
    "CHG": 0,
    "PCHG": 0,
    "ADT": "2013-03-24",
    "ADY": -7,
    "AVISIT": "SCREENING",
    "AVISITN": 1,
    "ABLFL": "Y",
    "ANL01FL": "Y",
    "SAFFL": "Y"
  },
  {
    "STUDYID": "CDISCPILOT01",
    "USUBJID": "01-701-002",
    "TRTP": "Xanomeline Low Dose",
    "TRTPN": 1,
    "PARAMCD": "HEIGHT",
    "PARAM": "Height ( cm )",
    "AVAL": 151.3,
    "BASE": 151.3,
    "CHG": 0,
    "PCHG": 0,
    "ADT": "2013-09-17",
    "ADY": 171,
    "AVISIT": "WEEK 24",
    "AVISITN": 9,
    "ABLFL": "",
    "ANL01FL": "Y",
    "SAFFL": "Y"
  },
  {
    "STUDYID": "CDISCPILOT01",
    "USUBJID": "01-701-002",
    "TRTP": "Xanomeline Low Dose",
    "TRTPN": 1,
    "PARAMCD": "HEIGHT",
    "PARAM": "Height ( cm )",
    "AVAL": 151.3,
    "BASE": 151.3,
    "CHG": 0,
    "PCHG": 0,
    "ADT": "2013-04-01",
    "ADY": 2,
    "AVISIT": "BASELINE",
    "AVISITN": 2,
    "ABLFL": "",
    "ANL01FL": "Y",
    "SAFFL": "Y"
  },
  {
    "STUDYID": "CDISCPILOT01",
    "USUBJID": "01-701-002",
    "TRTP": "Xanomeline Low Dose",
    "TRTPN": 1,
    "PARAMCD": "HEIGHT",
    "PARAM": "Height ( cm )",
    "AVAL": 151.3,
    "BASE": 151.3,
    "CHG": 0,
    "PCHG": 0,
    "ADT": "2013-08-19",
    "ADY": 142,
    "AVISIT": "WEEK 20",
    "AVISITN": 8,
    "ABLFL": "",
    "ANL01FL": "Y",
    "SAFFL": "Y"
  },
  {
    "STUDYID": "CDISCPILOT01",
    "USUBJID": "01-701-002",
    "TRTP": "Xanomeline Low Dose",
    "TRTPN": 1,
    "PARAMCD": "HEIGHT",
    "PARAM": "Height ( cm )",
    "AVAL": 151.3,
    "BASE": 151.3,
    "CHG": 0,
    "PCHG": 0,
    "ADT": "2013-07-21",
    "ADY": 113,
    "AVISIT": "WEEK 16",
    "AVISITN": 7,
    "ABLFL": "",
    "ANL01FL": "Y",
    "SAFFL": "Y"
  },
  {
    "STUDYID": "CDISCPILOT01",
    "USUBJID": "01-701-002",
    "TRTP": "Xanomeline Low Dose",
    "TRTPN": 1,
    "PARAMCD": "HEIGHT",
    "PARAM": "Height ( cm )",
    "AVAL": 151.3,
    "BASE": 151.3,
    "CHG": 0,
    "PCHG": 0,
    "ADT": "2013-05-26",
    "ADY": 57,
    "AVISIT": "WEEK 8",
    "AVISITN": 5,
    "ABLFL": "",
    "ANL01FL": "Y",
    "SAFFL": "Y"
  },
  {
    "STUDYID": "CDISCPILOT01",
    "USUBJID": "01-701-002",
    "TRTP": "Xanomeline Low Dose",
    "TRTPN": 1,
    "PARAMCD": "HEIGHT",
    "PARAM": "Height ( cm )",
    "AVAL": 151.3,
    "BASE": 151.3,
    "CHG": 0,
    "PCHG": 0,
    "ADT": "2013-03-25",
    "ADY": -6,
    "AVISIT": "SCREENING",
    "AVISITN": 1,
    "ABLFL": "Y",
    "ANL01FL": "Y",
    "SAFFL": "Y"
  },
  {
    "STUDYID": "CDISCPILOT01",
    "USUBJID": "01-701-002",
    "TRTP": "Xanomeline Low Dose",
    "TRTPN": 1,
    "PARAMCD": "HEIGHT",
    "PARAM": "Height ( cm )",
    "AVAL": 151.3,
    "BASE": 151.3,
    "CHG": 0,
    "PCHG": 0,
    "ADT": "2013-06-23",
    "ADY": 85,
    "AVISIT": "WEEK 12",
    "AVISITN": 6,
    "ABLFL": "",
    "ANL01FL": "Y",
    "SAFFL": "Y"
  },
  {
    "STUDYID": "CDISCPILOT01",
    "USUBJID": "01-701-002",
    "TRTP": "Xanomeline Low Dose",
    "TRTPN": 1,
    "PARAMCD": "HEIGHT",
    "PARAM": "Height ( cm )",
    "AVAL": 151.3,
    "BASE": 151.3,
    "CHG": 0,
    "PCHG": 0,
    "ADT": "2013-04-15",
    "ADY": 16,
    "AVISIT": "WEEK 2",
    "AVISITN": 3,
    "ABLFL": "",
    "ANL01FL": "Y",
    "SAFFL": "Y"
  },
  {
    "STUDYID": "CDISCPILOT01",
    "USUBJID": "01-701-002",
    "TRTP": "Xanomeline Low Dose",
    "TRTPN": 1,
    "PARAMCD": "HEIGHT",
    "PARAM": "Height ( cm )",
    "AVAL": 151.3,
    "BASE": 151.3,
    "CHG": 0,
    "PCHG": 0,
    "ADT": "2013-04-28",
    "ADY": 29,
    "AVISIT": "WEEK 4",
    "AVISITN": 4,
    "ABLFL": "",
    "ANL01FL": "Y",
    "SAFFL": "Y"
  },
  {
    "STUDYID": "CDISCPILOT01",
    "USUBJID": "01-701-002",
    "TRTP": "Xanomeline Low Dose",
    "TRTPN": 1,
    "PARAMCD": "PULSE",
    "PARAM": "Pulse Rate ( beats/min )",
    "AVAL": 80.1,
    "BASE": 79.2,
    "CHG": 0.9,
    "PCHG": 1.1364,
    "ADT": "2013-06-24",
    "ADY": 86,
    "AVISIT": "WEEK 12",
    "AVISITN": 6,
    "ABLFL": "",
    "ANL01FL": "Y",
    "SAFFL": "Y"
  },
  {
    "STUDYID": "CDISCPILOT01",
    "USUBJID": "01-701-002",
    "TRTP": "Xanomeline Low Dose",
    "TRTPN": 1,
    "PARAMCD": "PULSE",
    "PARAM": "Pulse Rate ( beats/min )",
    "AVAL": 75.1,
    "BASE": 79.2,
    "CHG": -4.1,
    "PCHG": -5.1768,
    "ADT": "2013-07-23",
    "ADY": 115,
    "AVISIT": "WEEK 16",
    "AVISITN": 7,
    "ABLFL": "",
    "ANL01FL": "Y",
    "SAFFL": "Y"
  },
  {
    "STUDYID": "CDISCPILOT01",
    "USUBJID": "01-701-002",
    "TRTP": "Xanomeline Low Dose",
    "TRTPN": 1,
    "PARAMCD": "PULSE",
    "PARAM": "Pulse Rate ( beats/min )",
    "AVAL": 76.2,
    "BASE": 79.2,
    "CHG": -3,
    "PCHG": -3.7879,
    "ADT": "2013-04-30",
    "ADY": 31,
    "AVISIT": "WEEK 4",
    "AVISITN": 4,
    "ABLFL": "",
    "ANL01FL": "Y",
    "SAFFL": "Y"
  },
  {
    "STUDYID": "CDISCPILOT01",
    "USUBJID": "01-701-002",
    "TRTP": "Xanomeline Low Dose",
    "TRTPN": 1,
    "PARAMCD": "PULSE",
    "PARAM": "Pulse Rate ( beats/min )",
    "AVAL": 76.2,
    "BASE": 79.2,
    "CHG": -3,
    "PCHG": -3.7879,
    "ADT": "2013-09-16",
    "ADY": 170,
    "AVISIT": "WEEK 24",
    "AVISITN": 9,
    "ABLFL": "",
    "ANL01FL": "Y",
    "SAFFL": "Y"
  },
  {
    "STUDYID": "CDISCPILOT01",
    "USUBJID": "01-701-002",
    "TRTP": "Xanomeline Low Dose",
    "TRTPN": 1,
    "PARAMCD": "PULSE",
    "PARAM": "Pulse Rate ( beats/min )",
    "AVAL": 77.6,
    "BASE": 79.2,
    "CHG": -1.6,
    "PCHG": -2.0202,
    "ADT": "2013-05-28",
    "ADY": 59,
    "AVISIT": "WEEK 8",
    "AVISITN": 5,
    "ABLFL": "",
    "ANL01FL": "Y",
    "SAFFL": "Y"
  },
  {
    "STUDYID": "CDISCPILOT01",
    "USUBJID": "01-701-002",
    "TRTP": "Xanomeline Low Dose",
    "TRTPN": 1,
    "PARAMCD": "PULSE",
    "PARAM": "Pulse Rate ( beats/min )",
    "AVAL": 75.3,
    "BASE": 79.2,
    "CHG": -3.9,
    "PCHG": -4.9242,
    "ADT": "2013-04-14",
    "ADY": 15,
    "AVISIT": "WEEK 2",
    "AVISITN": 3,
    "ABLFL": "",
    "ANL01FL": "Y",
    "SAFFL": "Y"
  },
  {
    "STUDYID": "CDISCPILOT01",
    "USUBJID": "01-701-002",
    "TRTP": "Xanomeline Low Dose",
    "TRTPN": 1,
    "PARAMCD": "PULSE",
    "PARAM": "Pulse Rate ( beats/min )",
    "AVAL": 78.2,
    "BASE": 79.2,
    "CHG": -1,
    "PCHG": -1.2626,
    "ADT": "2013-04-01",
    "ADY": 2,
    "AVISIT": "BASELINE",
    "AVISITN": 2,
    "ABLFL": "",
    "ANL01FL": "Y",
    "SAFFL": "Y"
  },
  {
    "STUDYID": "CDISCPILOT01",
    "USUBJID": "01-701-002",
    "TRTP": "Xanomeline Low Dose",
    "TRTPN": 1,
    "PARAMCD": "PULSE",
    "PARAM": "Pulse Rate ( beats/min )",
    "AVAL": 75.2,
    "BASE": 79.2,
    "CHG": -4,
    "PCHG": -5.0505,
    "ADT": "2013-08-19",
    "ADY": 142,
    "AVISIT": "WEEK 20",
    "AVISITN": 8,
    "ABLFL": "",
    "ANL01FL": "Y",
    "SAFFL": "Y"
  },
  {
    "STUDYID": "CDISCPILOT01",
    "USUBJID": "01-701-002",
    "TRTP": "Xanomeline Low Dose",
    "TRTPN": 1,
    "PARAMCD": "PULSE",
    "PARAM": "Pulse Rate ( beats/min )",
    "AVAL": 79.2,
    "BASE": 79.2,
    "CHG": 0,
    "PCHG": 0,
    "ADT": "2013-03-25",
    "ADY": -6,
    "AVISIT": "SCREENING",
    "AVISITN": 1,
    "ABLFL": "Y",
    "ANL01FL": "Y",
    "SAFFL": "Y"
  },
  {
    "STUDYID": "CDISCPILOT01",
    "USUBJID": "01-701-002",
    "TRTP": "Xanomeline Low Dose",
    "TRTPN": 1,
    "PARAMCD": "RESP",
    "PARAM": "Respiratory Rate ( breaths/min )",
    "AVAL": 13.7,
    "BASE": 13.3,
    "CHG": 0.4,
    "PCHG": 3.0075,
    "ADT": "2013-05-26",
    "ADY": 57,
    "AVISIT": "WEEK 8",
    "AVISITN": 5,
    "ABLFL": "",
    "ANL01FL": "Y",
    "SAFFL": "Y"
  },
  {
    "STUDYID": "CDISCPILOT01",
    "USUBJID": "01-701-002",
    "TRTP": "Xanomeline Low Dose",
    "TRTPN": 1,
    "PARAMCD": "RESP",
    "PARAM": "Respiratory Rate ( breaths/min )",
    "AVAL": 13.4,
    "BASE": 13.3,
    "CHG": 0.1,
    "PCHG": 0.7519,
    "ADT": "2013-08-19",
    "ADY": 142,
    "AVISIT": "WEEK 20",
    "AVISITN": 8,
    "ABLFL": "",
    "ANL01FL": "Y",
    "SAFFL": "Y"
  },
  {
    "STUDYID": "CDISCPILOT01",
    "USUBJID": "01-701-002",
    "TRTP": "Xanomeline Low Dose",
    "TRTPN": 1,
    "PARAMCD": "RESP",
    "PARAM": "Respiratory Rate ( breaths/min )",
    "AVAL": 13.1,
    "BASE": 13.3,
    "CHG": -0.2,
    "PCHG": -1.5038,
    "ADT": "2013-04-28",
    "ADY": 29,
    "AVISIT": "WEEK 4",
    "AVISITN": 4,
    "ABLFL": "",
    "ANL01FL": "Y",
    "SAFFL": "Y"
  },
  {
    "STUDYID": "CDISCPILOT01",
    "USUBJID": "01-701-002",
    "TRTP": "Xanomeline Low Dose",
    "TRTPN": 1,
    "PARAMCD": "RESP",
    "PARAM": "Respiratory Rate ( breaths/min )",
    "AVAL": 13.3,
    "BASE": 13.3,
    "CHG": 0,
    "PCHG": 0,
    "ADT": "2013-03-31",
    "ADY": 1,
    "AVISIT": "BASELINE",
    "AVISITN": 2,
    "ABLFL": "",
    "ANL01FL": "Y",
    "SAFFL": "Y"
  },
  {
    "STUDYID": "CDISCPILOT01",
    "USUBJID": "01-701-002",
    "TRTP": "Xanomeline Low Dose",
    "TRTPN": 1,
    "PARAMCD": "RESP",
    "PARAM": "Respiratory Rate ( breaths/min )",
    "AVAL": 13.2,
    "BASE": 13.3,
    "CHG": -0.1,
    "PCHG": -0.7519,
    "ADT": "2013-06-24",
    "ADY": 86,
    "AVISIT": "WEEK 12",
    "AVISITN": 6,
    "ABLFL": "",
    "ANL01FL": "Y",
    "SAFFL": "Y"
  },
  {
    "STUDYID": "CDISCPILOT01",
    "USUBJID": "01-701-002",
    "TRTP": "Xanomeline Low Dose",
    "TRTPN": 1,
    "PARAMCD": "RESP",
    "PARAM": "Respiratory Rate ( breaths/min )",
    "AVAL": 13.3,
    "BASE": 13.3,
    "CHG": 0,
    "PCHG": 0,
    "ADT": "2013-03-24",
    "ADY": -7,
    "AVISIT": "SCREENING",
    "AVISITN": 1,
    "ABLFL": "Y",
    "ANL01FL": "Y",
    "SAFFL": "Y"
  },
  {
    "STUDYID": "CDISCPILOT01",
    "USUBJID": "01-701-002",
    "TRTP": "Xanomeline Low Dose",
    "TRTPN": 1,
    "PARAMCD": "RESP",
    "PARAM": "Respiratory Rate ( breaths/min )",
    "AVAL": 13.5,
    "BASE": 13.3,
    "CHG": 0.2,
    "PCHG": 1.5038,
    "ADT": "2013-04-16",
    "ADY": 17,
    "AVISIT": "WEEK 2",
    "AVISITN": 3,
    "ABLFL": "",
    "ANL01FL": "Y",
    "SAFFL": "Y"
  },
  {
    "STUDYID": "CDISCPILOT01",
    "USUBJID": "01-701-002",
    "TRTP": "Xanomeline Low Dose",
    "TRTPN": 1,
    "PARAMCD": "RESP",
    "PARAM": "Respiratory Rate ( breaths/min )",
    "AVAL": 13.6,
    "BASE": 13.3,
    "CHG": 0.3,
    "PCHG": 2.2556,
    "ADT": "2013-07-22",
    "ADY": 114,
    "AVISIT": "WEEK 16",
    "AVISITN": 7,
    "ABLFL": "",
    "ANL01FL": "Y",
    "SAFFL": "Y"
  },
  {
    "STUDYID": "CDISCPILOT01",
    "USUBJID": "01-701-002",
    "TRTP": "Xanomeline Low Dose",
    "TRTPN": 1,
    "PARAMCD": "RESP",
    "PARAM": "Respiratory Rate ( breaths/min )",
    "AVAL": 13.3,
    "BASE": 13.3,
    "CHG": 0,
    "PCHG": 0,
    "ADT": "2013-09-16",
    "ADY": 170,
    "AVISIT": "WEEK 24",
    "AVISITN": 9,
    "ABLFL": "",
    "ANL01FL": "Y",
    "SAFFL": "Y"
  },
  {
    "STUDYID": "CDISCPILOT01",
    "USUBJID": "01-701-002",
    "TRTP": "Xanomeline Low Dose",
    "TRTPN": 1,
    "PARAMCD": "SYSBP",
    "PARAM": "Systolic Blood Pressure ( mmHg )",
    "AVAL": 131.7,
    "BASE": 139,
    "CHG": -7.3,
    "PCHG": -5.2518,
    "ADT": "2013-09-15",
    "ADY": 169,
    "AVISIT": "WEEK 24",
    "AVISITN": 9,
    "ABLFL": "",
    "ANL01FL": "Y",
    "SAFFL": "Y"
  },
  {
    "STUDYID": "CDISCPILOT01",
    "USUBJID": "01-701-002",
    "TRTP": "Xanomeline Low Dose",
    "TRTPN": 1,
    "PARAMCD": "SYSBP",
    "PARAM": "Systolic Blood Pressure ( mmHg )",
    "AVAL": 133.1,
    "BASE": 139,
    "CHG": -5.9,
    "PCHG": -4.2446,
    "ADT": "2013-08-18",
    "ADY": 141,
    "AVISIT": "WEEK 20",
    "AVISITN": 8,
    "ABLFL": "",
    "ANL01FL": "Y",
    "SAFFL": "Y"
  },
  {
    "STUDYID": "CDISCPILOT01",
    "USUBJID": "01-701-002",
    "TRTP": "Xanomeline Low Dose",
    "TRTPN": 1,
    "PARAMCD": "SYSBP",
    "PARAM": "Systolic Blood Pressure ( mmHg )",
    "AVAL": 137.3,
    "BASE": 139,
    "CHG": -1.7,
    "PCHG": -1.223,
    "ADT": "2013-06-24",
    "ADY": 86,
    "AVISIT": "WEEK 12",
    "AVISITN": 6,
    "ABLFL": "",
    "ANL01FL": "Y",
    "SAFFL": "Y"
  },
  {
    "STUDYID": "CDISCPILOT01",
    "USUBJID": "01-701-002",
    "TRTP": "Xanomeline Low Dose",
    "TRTPN": 1,
    "PARAMCD": "SYSBP",
    "PARAM": "Systolic Blood Pressure ( mmHg )",
    "AVAL": 133,
    "BASE": 139,
    "CHG": -6,
    "PCHG": -4.3165,
    "ADT": "2013-07-23",
    "ADY": 115,
    "AVISIT": "WEEK 16",
    "AVISITN": 7,
    "ABLFL": "",
    "ANL01FL": "Y",
    "SAFFL": "Y"
  },
  {
    "STUDYID": "CDISCPILOT01",
    "USUBJID": "01-701-002",
    "TRTP": "Xanomeline Low Dose",
    "TRTPN": 1,
    "PARAMCD": "SYSBP",
    "PARAM": "Systolic Blood Pressure ( mmHg )",
    "AVAL": 136.2,
    "BASE": 139,
    "CHG": -2.8,
    "PCHG": -2.0144,
    "ADT": "2013-05-26",
    "ADY": 57,
    "AVISIT": "WEEK 8",
    "AVISITN": 5,
    "ABLFL": "",
    "ANL01FL": "Y",
    "SAFFL": "Y"
  },
  {
    "STUDYID": "CDISCPILOT01",
    "USUBJID": "01-701-002",
    "TRTP": "Xanomeline Low Dose",
    "TRTPN": 1,
    "PARAMCD": "SYSBP",
    "PARAM": "Systolic Blood Pressure ( mmHg )",
    "AVAL": 135.1,
    "BASE": 139,
    "CHG": -3.9,
    "PCHG": -2.8058,
    "ADT": "2013-04-16",
    "ADY": 17,
    "AVISIT": "WEEK 2",
    "AVISITN": 3,
    "ABLFL": "",
    "ANL01FL": "Y",
    "SAFFL": "Y"
  },
  {
    "STUDYID": "CDISCPILOT01",
    "USUBJID": "01-701-002",
    "TRTP": "Xanomeline Low Dose",
    "TRTPN": 1,
    "PARAMCD": "SYSBP",
    "PARAM": "Systolic Blood Pressure ( mmHg )",
    "AVAL": 136.5,
    "BASE": 139,
    "CHG": -2.5,
    "PCHG": -1.7986,
    "ADT": "2013-04-30",
    "ADY": 31,
    "AVISIT": "WEEK 4",
    "AVISITN": 4,
    "ABLFL": "",
    "ANL01FL": "Y",
    "SAFFL": "Y"
  },
  {
    "STUDYID": "CDISCPILOT01",
    "USUBJID": "01-701-002",
    "TRTP": "Xanomeline Low Dose",
    "TRTPN": 1,
    "PARAMCD": "SYSBP",
    "PARAM": "Systolic Blood Pressure ( mmHg )",
    "AVAL": 144.4,
    "BASE": 139,
    "CHG": 5.4,
    "PCHG": 3.8849,
    "ADT": "2013-04-02",
    "ADY": 3,
    "AVISIT": "BASELINE",
    "AVISITN": 2,
    "ABLFL": "",
    "ANL01FL": "Y",
    "SAFFL": "Y"
  },
  {
    "STUDYID": "CDISCPILOT01",
    "USUBJID": "01-701-002",
    "TRTP": "Xanomeline Low Dose",
    "TRTPN": 1,
    "PARAMCD": "SYSBP",
    "PARAM": "Systolic Blood Pressure ( mmHg )",
    "AVAL": 139,
    "BASE": 139,
    "CHG": 0,
    "PCHG": 0,
    "ADT": "2013-03-25",
    "ADY": -6,
    "AVISIT": "SCREENING",
    "AVISITN": 1,
    "ABLFL": "Y",
    "ANL01FL": "Y",
    "SAFFL": "Y"
  },
  {
    "STUDYID": "CDISCPILOT01",
    "USUBJID": "01-701-002",
    "TRTP": "Xanomeline Low Dose",
    "TRTPN": 1,
    "PARAMCD": "TEMP",
    "PARAM": "Temperature ( C )",
    "AVAL": 36.4,
    "BASE": 36.3,
    "CHG": 0.1,
    "PCHG": 0.2755,
    "ADT": "2013-09-16",
    "ADY": 170,
    "AVISIT": "WEEK 24",
    "AVISITN": 9,
    "ABLFL": "",
    "ANL01FL": "Y",
    "SAFFL": "Y"
  },
  {
    "STUDYID": "CDISCPILOT01",
    "USUBJID": "01-701-002",
    "TRTP": "Xanomeline Low Dose",
    "TRTPN": 1,
    "PARAMCD": "TEMP",
    "PARAM": "Temperature ( C )",
    "AVAL": 36.4,
    "BASE": 36.3,
    "CHG": 0.1,
    "PCHG": 0.2755,
    "ADT": "2013-05-28",
    "ADY": 59,
    "AVISIT": "WEEK 8",
    "AVISITN": 5,
    "ABLFL": "",
    "ANL01FL": "Y",
    "SAFFL": "Y"
  },
  {
    "STUDYID": "CDISCPILOT01",
    "USUBJID": "01-701-002",
    "TRTP": "Xanomeline Low Dose",
    "TRTPN": 1,
    "PARAMCD": "TEMP",
    "PARAM": "Temperature ( C )",
    "AVAL": 36.4,
    "BASE": 36.3,
    "CHG": 0.1,
    "PCHG": 0.2755,
    "ADT": "2013-06-23",
    "ADY": 85,
    "AVISIT": "WEEK 12",
    "AVISITN": 6,
    "ABLFL": "",
    "ANL01FL": "Y",
    "SAFFL": "Y"
  },
  {
    "STUDYID": "CDISCPILOT01",
    "USUBJID": "01-701-002",
    "TRTP": "Xanomeline Low Dose",
    "TRTPN": 1,
    "PARAMCD": "TEMP",
    "PARAM": "Temperature ( C )",
    "AVAL": 36.3,
    "BASE": 36.3,
    "CHG": 0,
    "PCHG": 0,
    "ADT": "2013-07-21",
    "ADY": 113,
    "AVISIT": "WEEK 16",
    "AVISITN": 7,
    "ABLFL": "",
    "ANL01FL": "Y",
    "SAFFL": "Y"
  },
  {
    "STUDYID": "CDISCPILOT01",
    "USUBJID": "01-701-002",
    "TRTP": "Xanomeline Low Dose",
    "TRTPN": 1,
    "PARAMCD": "TEMP",
    "PARAM": "Temperature ( C )",
    "AVAL": 36.3,
    "BASE": 36.3,
    "CHG": 0,
    "PCHG": 0,
    "ADT": "2013-03-24",
    "ADY": -7,
    "AVISIT": "SCREENING",
    "AVISITN": 1,
    "ABLFL": "Y",
    "ANL01FL": "Y",
    "SAFFL": "Y"
  },
  {
    "STUDYID": "CDISCPILOT01",
    "USUBJID": "01-701-002",
    "TRTP": "Xanomeline Low Dose",
    "TRTPN": 1,
    "PARAMCD": "TEMP",
    "PARAM": "Temperature ( C )",
    "AVAL": 36.4,
    "BASE": 36.3,
    "CHG": 0.1,
    "PCHG": 0.2755,
    "ADT": "2013-08-18",
    "ADY": 141,
    "AVISIT": "WEEK 20",
    "AVISITN": 8,
    "ABLFL": "",
    "ANL01FL": "Y",
    "SAFFL": "Y"
  },
  {
    "STUDYID": "CDISCPILOT01",
    "USUBJID": "01-701-002",
    "TRTP": "Xanomeline Low Dose",
    "TRTPN": 1,
    "PARAMCD": "TEMP",
    "PARAM": "Temperature ( C )",
    "AVAL": 36.3,
    "BASE": 36.3,
    "CHG": 0,
    "PCHG": 0,
    "ADT": "2013-04-28",
    "ADY": 29,
    "AVISIT": "WEEK 4",
    "AVISITN": 4,
    "ABLFL": "",
    "ANL01FL": "Y",
    "SAFFL": "Y"
  },
  {
    "STUDYID": "CDISCPILOT01",
    "USUBJID": "01-701-002",
    "TRTP": "Xanomeline Low Dose",
    "TRTPN": 1,
    "PARAMCD": "TEMP",
    "PARAM": "Temperature ( C )",
    "AVAL": 36.4,
    "BASE": 36.3,
    "CHG": 0.1,
    "PCHG": 0.2755,
    "ADT": "2013-03-31",
    "ADY": 1,
    "AVISIT": "BASELINE",
    "AVISITN": 2,
    "ABLFL": "",
    "ANL01FL": "Y",
    "SAFFL": "Y"
  },
  {
    "STUDYID": "CDISCPILOT01",
    "USUBJID": "01-701-002",
    "TRTP": "Xanomeline Low Dose",
    "TRTPN": 1,
    "PARAMCD": "TEMP",
    "PARAM": "Temperature ( C )",
    "AVAL": 36.4,
    "BASE": 36.3,
    "CHG": 0.1,
    "PCHG": 0.2755,
    "ADT": "2013-04-14",
    "ADY": 15,
    "AVISIT": "WEEK 2",
    "AVISITN": 3,
    "ABLFL": "",
    "ANL01FL": "Y",
    "SAFFL": "Y"
  },
  {
    "STUDYID": "CDISCPILOT01",
    "USUBJID": "01-701-002",
    "TRTP": "Xanomeline Low Dose",
    "TRTPN": 1,
    "PARAMCD": "WEIGHT",
    "PARAM": "Weight ( kg )",
    "AVAL": 77.6,
    "BASE": 77.6,
    "CHG": 0,
    "PCHG": 0,
    "ADT": "2013-03-23",
    "ADY": -8,
    "AVISIT": "SCREENING",
    "AVISITN": 1,
    "ABLFL": "Y",
    "ANL01FL": "Y",
    "SAFFL": "Y"
  },
  {
    "STUDYID": "CDISCPILOT01",
    "USUBJID": "01-701-002",
    "TRTP": "Xanomeline Low Dose",
    "TRTPN": 1,
    "PARAMCD": "WEIGHT",
    "PARAM": "Weight ( kg )",
    "AVAL": 78,
    "BASE": 77.6,
    "CHG": 0.4,
    "PCHG": 0.5155,
    "ADT": "2013-04-14",
    "ADY": 15,
    "AVISIT": "WEEK 2",
    "AVISITN": 3,
    "ABLFL": "",
    "ANL01FL": "Y",
    "SAFFL": "Y"
  },
  {
    "STUDYID": "CDISCPILOT01",
    "USUBJID": "01-701-002",
    "TRTP": "Xanomeline Low Dose",
    "TRTPN": 1,
    "PARAMCD": "WEIGHT",
    "PARAM": "Weight ( kg )",
    "AVAL": 77.5,
    "BASE": 77.6,
    "CHG": -0.1,
    "PCHG": -0.1289,
    "ADT": "2013-07-23",
    "ADY": 115,
    "AVISIT": "WEEK 16",
    "AVISITN": 7,
    "ABLFL": "",
    "ANL01FL": "Y",
    "SAFFL": "Y"
  },
  {
    "STUDYID": "CDISCPILOT01",
    "USUBJID": "01-701-002",
    "TRTP": "Xanomeline Low Dose",
    "TRTPN": 1,
    "PARAMCD": "WEIGHT",
    "PARAM": "Weight ( kg )",
    "AVAL": 77.1,
    "BASE": 77.6,
    "CHG": -0.5,
    "PCHG": -0.6443,
    "ADT": "2013-09-17",
    "ADY": 171,
    "AVISIT": "WEEK 24",
    "AVISITN": 9,
    "ABLFL": "",
    "ANL01FL": "Y",
    "SAFFL": "Y"
  },
  {
    "STUDYID": "CDISCPILOT01",
    "USUBJID": "01-701-002",
    "TRTP": "Xanomeline Low Dose",
    "TRTPN": 1,
    "PARAMCD": "WEIGHT",
    "PARAM": "Weight ( kg )",
    "AVAL": 78,
    "BASE": 77.6,
    "CHG": 0.4,
    "PCHG": 0.5155,
    "ADT": "2013-04-28",
    "ADY": 29,
    "AVISIT": "WEEK 4",
    "AVISITN": 4,
    "ABLFL": "",
    "ANL01FL": "Y",
    "SAFFL": "Y"
  },
  {
    "STUDYID": "CDISCPILOT01",
    "USUBJID": "01-701-002",
    "TRTP": "Xanomeline Low Dose",
    "TRTPN": 1,
    "PARAMCD": "WEIGHT",
    "PARAM": "Weight ( kg )",
    "AVAL": 77.9,
    "BASE": 77.6,
    "CHG": 0.3,
    "PCHG": 0.3866,
    "ADT": "2013-08-18",
    "ADY": 141,
    "AVISIT": "WEEK 20",
    "AVISITN": 8,
    "ABLFL": "",
    "ANL01FL": "Y",
    "SAFFL": "Y"
  },
  {
    "STUDYID": "CDISCPILOT01",
    "USUBJID": "01-701-002",
    "TRTP": "Xanomeline Low Dose",
    "TRTPN": 1,
    "PARAMCD": "WEIGHT",
    "PARAM": "Weight ( kg )",
    "AVAL": 77.2,
    "BASE": 77.6,
    "CHG": -0.4,
    "PCHG": -0.5155,
    "ADT": "2013-06-25",
    "ADY": 87,
    "AVISIT": "WEEK 12",
    "AVISITN": 6,
    "ABLFL": "",
    "ANL01FL": "Y",
    "SAFFL": "Y"
  },
  {
    "STUDYID": "CDISCPILOT01",
    "USUBJID": "01-701-002",
    "TRTP": "Xanomeline Low Dose",
    "TRTPN": 1,
    "PARAMCD": "WEIGHT",
    "PARAM": "Weight ( kg )",
    "AVAL": 77.3,
    "BASE": 77.6,
    "CHG": -0.3,
    "PCHG": -0.3866,
    "ADT": "2013-04-02",
    "ADY": 3,
    "AVISIT": "BASELINE",
    "AVISITN": 2,
    "ABLFL": "",
    "ANL01FL": "Y",
    "SAFFL": "Y"
  },
  {
    "STUDYID": "CDISCPILOT01",
    "USUBJID": "01-701-002",
    "TRTP": "Xanomeline Low Dose",
    "TRTPN": 1,
    "PARAMCD": "WEIGHT",
    "PARAM": "Weight ( kg )",
    "AVAL": 77.5,
    "BASE": 77.6,
    "CHG": -0.1,
    "PCHG": -0.1289,
    "ADT": "2013-05-27",
    "ADY": 58,
    "AVISIT": "WEEK 8",
    "AVISITN": 5,
    "ABLFL": "",
    "ANL01FL": "Y",
    "SAFFL": "Y"
  },
  {
    "STUDYID": "CDISCPILOT01",
    "USUBJID": "01-701-003",
    "TRTP": "Placebo",
    "TRTPN": 0,
    "PARAMCD": "DIABP",
    "PARAM": "Diastolic Blood Pressure ( mmHg )",
    "AVAL": 83.2,
    "BASE": 85.3,
    "CHG": -2.1,
    "PCHG": -2.4619,
    "ADT": "2013-04-24",
    "ADY": 114,
    "AVISIT": "WEEK 16",
    "AVISITN": 7,
    "ABLFL": "",
    "ANL01FL": "Y",
    "SAFFL": "Y"
  },
  {
    "STUDYID": "CDISCPILOT01",
    "USUBJID": "01-701-003",
    "TRTP": "Placebo",
    "TRTPN": 0,
    "PARAMCD": "DIABP",
    "PARAM": "Diastolic Blood Pressure ( mmHg )",
    "AVAL": 83.3,
    "BASE": 85.3,
    "CHG": -2,
    "PCHG": -2.3447,
    "ADT": "2013-05-23",
    "ADY": 143,
    "AVISIT": "WEEK 20",
    "AVISITN": 8,
    "ABLFL": "",
    "ANL01FL": "Y",
    "SAFFL": "Y"
  },
  {
    "STUDYID": "CDISCPILOT01",
    "USUBJID": "01-701-003",
    "TRTP": "Placebo",
    "TRTPN": 0,
    "PARAMCD": "DIABP",
    "PARAM": "Diastolic Blood Pressure ( mmHg )",
    "AVAL": 83.3,
    "BASE": 85.3,
    "CHG": -2,
    "PCHG": -2.3447,
    "ADT": "2013-03-27",
    "ADY": 86,
    "AVISIT": "WEEK 12",
    "AVISITN": 6,
    "ABLFL": "",
    "ANL01FL": "Y",
    "SAFFL": "Y"
  },
  {
    "STUDYID": "CDISCPILOT01",
    "USUBJID": "01-701-003",
    "TRTP": "Placebo",
    "TRTPN": 0,
    "PARAMCD": "DIABP",
    "PARAM": "Diastolic Blood Pressure ( mmHg )",
    "AVAL": 83.8,
    "BASE": 85.3,
    "CHG": -1.5,
    "PCHG": -1.7585,
    "ADT": "2013-01-02",
    "ADY": 2,
    "AVISIT": "BASELINE",
    "AVISITN": 2,
    "ABLFL": "",
    "ANL01FL": "Y",
    "SAFFL": "Y"
  },
  {
    "STUDYID": "CDISCPILOT01",
    "USUBJID": "01-701-003",
    "TRTP": "Placebo",
    "TRTPN": 0,
    "PARAMCD": "DIABP",
    "PARAM": "Diastolic Blood Pressure ( mmHg )",
    "AVAL": 85.5,
    "BASE": 85.3,
    "CHG": 0.2,
    "PCHG": 0.2345,
    "ADT": "2013-06-18",
    "ADY": 169,
    "AVISIT": "WEEK 24",
    "AVISITN": 9,
    "ABLFL": "",
    "ANL01FL": "Y",
    "SAFFL": "Y"
  },
  {
    "STUDYID": "CDISCPILOT01",
    "USUBJID": "01-701-003",
    "TRTP": "Placebo",
    "TRTPN": 0,
    "PARAMCD": "DIABP",
    "PARAM": "Diastolic Blood Pressure ( mmHg )",
    "AVAL": 87,
    "BASE": 85.3,
    "CHG": 1.7,
    "PCHG": 1.993,
    "ADT": "2013-01-15",
    "ADY": 15,
    "AVISIT": "WEEK 2",
    "AVISITN": 3,
    "ABLFL": "",
    "ANL01FL": "Y",
    "SAFFL": "Y"
  },
  {
    "STUDYID": "CDISCPILOT01",
    "USUBJID": "01-701-003",
    "TRTP": "Placebo",
    "TRTPN": 0,
    "PARAMCD": "DIABP",
    "PARAM": "Diastolic Blood Pressure ( mmHg )",
    "AVAL": 83,
    "BASE": 85.3,
    "CHG": -2.3,
    "PCHG": -2.6964,
    "ADT": "2013-01-31",
    "ADY": 31,
    "AVISIT": "WEEK 4",
    "AVISITN": 4,
    "ABLFL": "",
    "ANL01FL": "Y",
    "SAFFL": "Y"
  },
  {
    "STUDYID": "CDISCPILOT01",
    "USUBJID": "01-701-003",
    "TRTP": "Placebo",
    "TRTPN": 0,
    "PARAMCD": "DIABP",
    "PARAM": "Diastolic Blood Pressure ( mmHg )",
    "AVAL": 86.9,
    "BASE": 85.3,
    "CHG": 1.6,
    "PCHG": 1.8757,
    "ADT": "2013-02-28",
    "ADY": 59,
    "AVISIT": "WEEK 8",
    "AVISITN": 5,
    "ABLFL": "",
    "ANL01FL": "Y",
    "SAFFL": "Y"
  },
  {
    "STUDYID": "CDISCPILOT01",
    "USUBJID": "01-701-003",
    "TRTP": "Placebo",
    "TRTPN": 0,
    "PARAMCD": "DIABP",
    "PARAM": "Diastolic Blood Pressure ( mmHg )",
    "AVAL": 85.3,
    "BASE": 85.3,
    "CHG": 0,
    "PCHG": 0,
    "ADT": "2012-12-24",
    "ADY": -8,
    "AVISIT": "SCREENING",
    "AVISITN": 1,
    "ABLFL": "Y",
    "ANL01FL": "Y",
    "SAFFL": "Y"
  },
  {
    "STUDYID": "CDISCPILOT01",
    "USUBJID": "01-701-003",
    "TRTP": "Placebo",
    "TRTPN": 0,
    "PARAMCD": "HEIGHT",
    "PARAM": "Height ( cm )",
    "AVAL": 173.4,
    "BASE": 173.4,
    "CHG": 0,
    "PCHG": 0,
    "ADT": "2013-06-20",
    "ADY": 171,
    "AVISIT": "WEEK 24",
    "AVISITN": 9,
    "ABLFL": "",
    "ANL01FL": "Y",
    "SAFFL": "Y"
  },
  {
    "STUDYID": "CDISCPILOT01",
    "USUBJID": "01-701-003",
    "TRTP": "Placebo",
    "TRTPN": 0,
    "PARAMCD": "HEIGHT",
    "PARAM": "Height ( cm )",
    "AVAL": 173.4,
    "BASE": 173.4,
    "CHG": 0,
    "PCHG": 0,
    "ADT": "2013-01-03",
    "ADY": 3,
    "AVISIT": "BASELINE",
    "AVISITN": 2,
    "ABLFL": "",
    "ANL01FL": "Y",
    "SAFFL": "Y"
  },
  {
    "STUDYID": "CDISCPILOT01",
    "USUBJID": "01-701-003",
    "TRTP": "Placebo",
    "TRTPN": 0,
    "PARAMCD": "HEIGHT",
    "PARAM": "Height ( cm )",
    "AVAL": 173.4,
    "BASE": 173.4,
    "CHG": 0,
    "PCHG": 0,
    "ADT": "2013-05-21",
    "ADY": 141,
    "AVISIT": "WEEK 20",
    "AVISITN": 8,
    "ABLFL": "",
    "ANL01FL": "Y",
    "SAFFL": "Y"
  },
  {
    "STUDYID": "CDISCPILOT01",
    "USUBJID": "01-701-003",
    "TRTP": "Placebo",
    "TRTPN": 0,
    "PARAMCD": "HEIGHT",
    "PARAM": "Height ( cm )",
    "AVAL": 173.4,
    "BASE": 173.4,
    "CHG": 0,
    "PCHG": 0,
    "ADT": "2013-04-23",
    "ADY": 113,
    "AVISIT": "WEEK 16",
    "AVISITN": 7,
    "ABLFL": "",
    "ANL01FL": "Y",
    "SAFFL": "Y"
  },
  {
    "STUDYID": "CDISCPILOT01",
    "USUBJID": "01-701-003",
    "TRTP": "Placebo",
    "TRTPN": 0,
    "PARAMCD": "HEIGHT",
    "PARAM": "Height ( cm )",
    "AVAL": 173.4,
    "BASE": 173.4,
    "CHG": 0,
    "PCHG": 0,
    "ADT": "2013-02-26",
    "ADY": 57,
    "AVISIT": "WEEK 8",
    "AVISITN": 5,
    "ABLFL": "",
    "ANL01FL": "Y",
    "SAFFL": "Y"
  },
  {
    "STUDYID": "CDISCPILOT01",
    "USUBJID": "01-701-003",
    "TRTP": "Placebo",
    "TRTPN": 0,
    "PARAMCD": "HEIGHT",
    "PARAM": "Height ( cm )",
    "AVAL": 173.4,
    "BASE": 173.4,
    "CHG": 0,
    "PCHG": 0,
    "ADT": "2012-12-25",
    "ADY": -7,
    "AVISIT": "SCREENING",
    "AVISITN": 1,
    "ABLFL": "Y",
    "ANL01FL": "Y",
    "SAFFL": "Y"
  },
  {
    "STUDYID": "CDISCPILOT01",
    "USUBJID": "01-701-003",
    "TRTP": "Placebo",
    "TRTPN": 0,
    "PARAMCD": "HEIGHT",
    "PARAM": "Height ( cm )",
    "AVAL": 173.4,
    "BASE": 173.4,
    "CHG": 0,
    "PCHG": 0,
    "ADT": "2013-03-27",
    "ADY": 86,
    "AVISIT": "WEEK 12",
    "AVISITN": 6,
    "ABLFL": "",
    "ANL01FL": "Y",
    "SAFFL": "Y"
  },
  {
    "STUDYID": "CDISCPILOT01",
    "USUBJID": "01-701-003",
    "TRTP": "Placebo",
    "TRTPN": 0,
    "PARAMCD": "HEIGHT",
    "PARAM": "Height ( cm )",
    "AVAL": 173.4,
    "BASE": 173.4,
    "CHG": 0,
    "PCHG": 0,
    "ADT": "2013-01-16",
    "ADY": 16,
    "AVISIT": "WEEK 2",
    "AVISITN": 3,
    "ABLFL": "",
    "ANL01FL": "Y",
    "SAFFL": "Y"
  },
  {
    "STUDYID": "CDISCPILOT01",
    "USUBJID": "01-701-003",
    "TRTP": "Placebo",
    "TRTPN": 0,
    "PARAMCD": "HEIGHT",
    "PARAM": "Height ( cm )",
    "AVAL": 173.4,
    "BASE": 173.4,
    "CHG": 0,
    "PCHG": 0,
    "ADT": "2013-01-29",
    "ADY": 29,
    "AVISIT": "WEEK 4",
    "AVISITN": 4,
    "ABLFL": "",
    "ANL01FL": "Y",
    "SAFFL": "Y"
  },
  {
    "STUDYID": "CDISCPILOT01",
    "USUBJID": "01-701-003",
    "TRTP": "Placebo",
    "TRTPN": 0,
    "PARAMCD": "PULSE",
    "PARAM": "Pulse Rate ( beats/min )",
    "AVAL": 81.6,
    "BASE": 81.7,
    "CHG": -0.1,
    "PCHG": -0.1224,
    "ADT": "2013-03-28",
    "ADY": 87,
    "AVISIT": "WEEK 12",
    "AVISITN": 6,
    "ABLFL": "",
    "ANL01FL": "Y",
    "SAFFL": "Y"
  },
  {
    "STUDYID": "CDISCPILOT01",
    "USUBJID": "01-701-003",
    "TRTP": "Placebo",
    "TRTPN": 0,
    "PARAMCD": "PULSE",
    "PARAM": "Pulse Rate ( beats/min )",
    "AVAL": 80,
    "BASE": 81.7,
    "CHG": -1.7,
    "PCHG": -2.0808,
    "ADT": "2013-04-25",
    "ADY": 115,
    "AVISIT": "WEEK 16",
    "AVISITN": 7,
    "ABLFL": "",
    "ANL01FL": "Y",
    "SAFFL": "Y"
  },
  {
    "STUDYID": "CDISCPILOT01",
    "USUBJID": "01-701-003",
    "TRTP": "Placebo",
    "TRTPN": 0,
    "PARAMCD": "PULSE",
    "PARAM": "Pulse Rate ( beats/min )",
    "AVAL": 83.7,
    "BASE": 81.7,
    "CHG": 2,
    "PCHG": 2.448,
    "ADT": "2013-01-31",
    "ADY": 31,
    "AVISIT": "WEEK 4",
    "AVISITN": 4,
    "ABLFL": "",
    "ANL01FL": "Y",
    "SAFFL": "Y"
  },
  {
    "STUDYID": "CDISCPILOT01",
    "USUBJID": "01-701-003",
    "TRTP": "Placebo",
    "TRTPN": 0,
    "PARAMCD": "PULSE",
    "PARAM": "Pulse Rate ( beats/min )",
    "AVAL": 82.5,
    "BASE": 81.7,
    "CHG": 0.8,
    "PCHG": 0.9792,
    "ADT": "2013-06-18",
    "ADY": 169,
    "AVISIT": "WEEK 24",
    "AVISITN": 9,
    "ABLFL": "",
    "ANL01FL": "Y",
    "SAFFL": "Y"
  },
  {
    "STUDYID": "CDISCPILOT01",
    "USUBJID": "01-701-003",
    "TRTP": "Placebo",
    "TRTPN": 0,
    "PARAMCD": "PULSE",
    "PARAM": "Pulse Rate ( beats/min )",
    "AVAL": 81.9,
    "BASE": 81.7,
    "CHG": 0.2,
    "PCHG": 0.2448,
    "ADT": "2013-02-26",
    "ADY": 57,
    "AVISIT": "WEEK 8",
    "AVISITN": 5,
    "ABLFL": "",
    "ANL01FL": "Y",
    "SAFFL": "Y"
  },
  {
    "STUDYID": "CDISCPILOT01",
    "USUBJID": "01-701-003",
    "TRTP": "Placebo",
    "TRTPN": 0,
    "PARAMCD": "PULSE",
    "PARAM": "Pulse Rate ( beats/min )",
    "AVAL": 82.6,
    "BASE": 81.7,
    "CHG": 0.9,
    "PCHG": 1.1016,
    "ADT": "2013-01-17",
    "ADY": 17,
    "AVISIT": "WEEK 2",
    "AVISITN": 3,
    "ABLFL": "",
    "ANL01FL": "Y",
    "SAFFL": "Y"
  },
  {
    "STUDYID": "CDISCPILOT01",
    "USUBJID": "01-701-003",
    "TRTP": "Placebo",
    "TRTPN": 0,
    "PARAMCD": "PULSE",
    "PARAM": "Pulse Rate ( beats/min )",
    "AVAL": 81.8,
    "BASE": 81.7,
    "CHG": 0.1,
    "PCHG": 0.1224,
    "ADT": "2013-01-03",
    "ADY": 3,
    "AVISIT": "BASELINE",
    "AVISITN": 2,
    "ABLFL": "",
    "ANL01FL": "Y",
    "SAFFL": "Y"
  },
  {
    "STUDYID": "CDISCPILOT01",
    "USUBJID": "01-701-003",
    "TRTP": "Placebo",
    "TRTPN": 0,
    "PARAMCD": "PULSE",
    "PARAM": "Pulse Rate ( beats/min )",
    "AVAL": 82.3,
    "BASE": 81.7,
    "CHG": 0.6,
    "PCHG": 0.7344,
    "ADT": "2013-05-21",
    "ADY": 141,
    "AVISIT": "WEEK 20",
    "AVISITN": 8,
    "ABLFL": "",
    "ANL01FL": "Y",
    "SAFFL": "Y"
  },
  {
    "STUDYID": "CDISCPILOT01",
    "USUBJID": "01-701-003",
    "TRTP": "Placebo",
    "TRTPN": 0,
    "PARAMCD": "PULSE",
    "PARAM": "Pulse Rate ( beats/min )",
    "AVAL": 81.7,
    "BASE": 81.7,
    "CHG": 0,
    "PCHG": 0,
    "ADT": "2012-12-25",
    "ADY": -7,
    "AVISIT": "SCREENING",
    "AVISITN": 1,
    "ABLFL": "Y",
    "ANL01FL": "Y",
    "SAFFL": "Y"
  },
  {
    "STUDYID": "CDISCPILOT01",
    "USUBJID": "01-701-003",
    "TRTP": "Placebo",
    "TRTPN": 0,
    "PARAMCD": "RESP",
    "PARAM": "Respiratory Rate ( breaths/min )",
    "AVAL": 15.9,
    "BASE": 16.1,
    "CHG": -0.2,
    "PCHG": -1.2422,
    "ADT": "2013-02-28",
    "ADY": 59,
    "AVISIT": "WEEK 8",
    "AVISITN": 5,
    "ABLFL": "",
    "ANL01FL": "Y",
    "SAFFL": "Y"
  },
  {
    "STUDYID": "CDISCPILOT01",
    "USUBJID": "01-701-003",
    "TRTP": "Placebo",
    "TRTPN": 0,
    "PARAMCD": "RESP",
    "PARAM": "Respiratory Rate ( breaths/min )",
    "AVAL": 16,
    "BASE": 16.1,
    "CHG": -0.1,
    "PCHG": -0.6211,
    "ADT": "2013-05-21",
    "ADY": 141,
    "AVISIT": "WEEK 20",
    "AVISITN": 8,
    "ABLFL": "",
    "ANL01FL": "Y",
    "SAFFL": "Y"
  },
  {
    "STUDYID": "CDISCPILOT01",
    "USUBJID": "01-701-003",
    "TRTP": "Placebo",
    "TRTPN": 0,
    "PARAMCD": "RESP",
    "PARAM": "Respiratory Rate ( breaths/min )",
    "AVAL": 15.9,
    "BASE": 16.1,
    "CHG": -0.2,
    "PCHG": -1.2422,
    "ADT": "2013-01-30",
    "ADY": 30,
    "AVISIT": "WEEK 4",
    "AVISITN": 4,
    "ABLFL": "",
    "ANL01FL": "Y",
    "SAFFL": "Y"
  },
  {
    "STUDYID": "CDISCPILOT01",
    "USUBJID": "01-701-003",
    "TRTP": "Placebo",
    "TRTPN": 0,
    "PARAMCD": "RESP",
    "PARAM": "Respiratory Rate ( breaths/min )",
    "AVAL": 16,
    "BASE": 16.1,
    "CHG": -0.1,
    "PCHG": -0.6211,
    "ADT": "2013-01-03",
    "ADY": 3,
    "AVISIT": "BASELINE",
    "AVISITN": 2,
    "ABLFL": "",
    "ANL01FL": "Y",
    "SAFFL": "Y"
  },
  {
    "STUDYID": "CDISCPILOT01",
    "USUBJID": "01-701-003",
    "TRTP": "Placebo",
    "TRTPN": 0,
    "PARAMCD": "RESP",
    "PARAM": "Respiratory Rate ( breaths/min )",
    "AVAL": 16,
    "BASE": 16.1,
    "CHG": -0.1,
    "PCHG": -0.6211,
    "ADT": "2013-03-26",
    "ADY": 85,
    "AVISIT": "WEEK 12",
    "AVISITN": 6,
    "ABLFL": "",
    "ANL01FL": "Y",
    "SAFFL": "Y"
  },
  {
    "STUDYID": "CDISCPILOT01",
    "USUBJID": "01-701-003",
    "TRTP": "Placebo",
    "TRTPN": 0,
    "PARAMCD": "RESP",
    "PARAM": "Respiratory Rate ( breaths/min )",
    "AVAL": 16.1,
    "BASE": 16.1,
    "CHG": 0,
    "PCHG": 0,
    "ADT": "2012-12-24",
    "ADY": -8,
    "AVISIT": "SCREENING",
    "AVISITN": 1,
    "ABLFL": "Y",
    "ANL01FL": "Y",
    "SAFFL": "Y"
  },
  {
    "STUDYID": "CDISCPILOT01",
    "USUBJID": "01-701-003",
    "TRTP": "Placebo",
    "TRTPN": 0,
    "PARAMCD": "RESP",
    "PARAM": "Respiratory Rate ( breaths/min )",
    "AVAL": 16.2,
    "BASE": 16.1,
    "CHG": 0.1,
    "PCHG": 0.6211,
    "ADT": "2013-01-15",
    "ADY": 15,
    "AVISIT": "WEEK 2",
    "AVISITN": 3,
    "ABLFL": "",
    "ANL01FL": "Y",
    "SAFFL": "Y"
  },
  {
    "STUDYID": "CDISCPILOT01",
    "USUBJID": "01-701-003",
    "TRTP": "Placebo",
    "TRTPN": 0,
    "PARAMCD": "RESP",
    "PARAM": "Respiratory Rate ( breaths/min )",
    "AVAL": 16.8,
    "BASE": 16.1,
    "CHG": 0.7,
    "PCHG": 4.3478,
    "ADT": "2013-04-25",
    "ADY": 115,
    "AVISIT": "WEEK 16",
    "AVISITN": 7,
    "ABLFL": "",
    "ANL01FL": "Y",
    "SAFFL": "Y"
  },
  {
    "STUDYID": "CDISCPILOT01",
    "USUBJID": "01-701-003",
    "TRTP": "Placebo",
    "TRTPN": 0,
    "PARAMCD": "RESP",
    "PARAM": "Respiratory Rate ( breaths/min )",
    "AVAL": 16.7,
    "BASE": 16.1,
    "CHG": 0.6,
    "PCHG": 3.7267,
    "ADT": "2013-06-20",
    "ADY": 171,
    "AVISIT": "WEEK 24",
    "AVISITN": 9,
    "ABLFL": "",
    "ANL01FL": "Y",
    "SAFFL": "Y"
  },
  {
    "STUDYID": "CDISCPILOT01",
    "USUBJID": "01-701-003",
    "TRTP": "Placebo",
    "TRTPN": 0,
    "PARAMCD": "SYSBP",
    "PARAM": "Systolic Blood Pressure ( mmHg )",
    "AVAL": 137,
    "BASE": 137.7,
    "CHG": -0.7,
    "PCHG": -0.5084,
    "ADT": "2013-06-19",
    "ADY": 170,
    "AVISIT": "WEEK 24",
    "AVISITN": 9,
    "ABLFL": "",
    "ANL01FL": "Y",
    "SAFFL": "Y"
  },
  {
    "STUDYID": "CDISCPILOT01",
    "USUBJID": "01-701-003",
    "TRTP": "Placebo",
    "TRTPN": 0,
    "PARAMCD": "SYSBP",
    "PARAM": "Systolic Blood Pressure ( mmHg )",
    "AVAL": 137,
    "BASE": 137.7,
    "CHG": -0.7,
    "PCHG": -0.5084,
    "ADT": "2013-05-22",
    "ADY": 142,
    "AVISIT": "WEEK 20",
    "AVISITN": 8,
    "ABLFL": "",
    "ANL01FL": "Y",
    "SAFFL": "Y"
  },
  {
    "STUDYID": "CDISCPILOT01",
    "USUBJID": "01-701-003",
    "TRTP": "Placebo",
    "TRTPN": 0,
    "PARAMCD": "SYSBP",
    "PARAM": "Systolic Blood Pressure ( mmHg )",
    "AVAL": 140.7,
    "BASE": 137.7,
    "CHG": 3,
    "PCHG": 2.1786,
    "ADT": "2013-03-28",
    "ADY": 87,
    "AVISIT": "WEEK 12",
    "AVISITN": 6,
    "ABLFL": "",
    "ANL01FL": "Y",
    "SAFFL": "Y"
  },
  {
    "STUDYID": "CDISCPILOT01",
    "USUBJID": "01-701-003",
    "TRTP": "Placebo",
    "TRTPN": 0,
    "PARAMCD": "SYSBP",
    "PARAM": "Systolic Blood Pressure ( mmHg )",
    "AVAL": 135,
    "BASE": 137.7,
    "CHG": -2.7,
    "PCHG": -1.9608,
    "ADT": "2013-04-24",
    "ADY": 114,
    "AVISIT": "WEEK 16",
    "AVISITN": 7,
    "ABLFL": "",
    "ANL01FL": "Y",
    "SAFFL": "Y"
  },
  {
    "STUDYID": "CDISCPILOT01",
    "USUBJID": "01-701-003",
    "TRTP": "Placebo",
    "TRTPN": 0,
    "PARAMCD": "SYSBP",
    "PARAM": "Systolic Blood Pressure ( mmHg )",
    "AVAL": 141.5,
    "BASE": 137.7,
    "CHG": 3.8,
    "PCHG": 2.7596,
    "ADT": "2013-02-27",
    "ADY": 58,
    "AVISIT": "WEEK 8",
    "AVISITN": 5,
    "ABLFL": "",
    "ANL01FL": "Y",
    "SAFFL": "Y"
  },
  {
    "STUDYID": "CDISCPILOT01",
    "USUBJID": "01-701-003",
    "TRTP": "Placebo",
    "TRTPN": 0,
    "PARAMCD": "SYSBP",
    "PARAM": "Systolic Blood Pressure ( mmHg )",
    "AVAL": 141.1,
    "BASE": 137.7,
    "CHG": 3.4,
    "PCHG": 2.4691,
    "ADT": "2013-01-15",
    "ADY": 15,
    "AVISIT": "WEEK 2",
    "AVISITN": 3,
    "ABLFL": "",
    "ANL01FL": "Y",
    "SAFFL": "Y"
  },
  {
    "STUDYID": "CDISCPILOT01",
    "USUBJID": "01-701-003",
    "TRTP": "Placebo",
    "TRTPN": 0,
    "PARAMCD": "SYSBP",
    "PARAM": "Systolic Blood Pressure ( mmHg )",
    "AVAL": 136,
    "BASE": 137.7,
    "CHG": -1.7,
    "PCHG": -1.2346,
    "ADT": "2013-01-30",
    "ADY": 30,
    "AVISIT": "WEEK 4",
    "AVISITN": 4,
    "ABLFL": "",
    "ANL01FL": "Y",
    "SAFFL": "Y"
  },
  {
    "STUDYID": "CDISCPILOT01",
    "USUBJID": "01-701-003",
    "TRTP": "Placebo",
    "TRTPN": 0,
    "PARAMCD": "SYSBP",
    "PARAM": "Systolic Blood Pressure ( mmHg )",
    "AVAL": 139.4,
    "BASE": 137.7,
    "CHG": 1.7,
    "PCHG": 1.2346,
    "ADT": "2013-01-02",
    "ADY": 2,
    "AVISIT": "BASELINE",
    "AVISITN": 2,
    "ABLFL": "",
    "ANL01FL": "Y",
    "SAFFL": "Y"
  },
  {
    "STUDYID": "CDISCPILOT01",
    "USUBJID": "01-701-003",
    "TRTP": "Placebo",
    "TRTPN": 0,
    "PARAMCD": "SYSBP",
    "PARAM": "Systolic Blood Pressure ( mmHg )",
    "AVAL": 137.7,
    "BASE": 137.7,
    "CHG": 0,
    "PCHG": 0,
    "ADT": "2012-12-25",
    "ADY": -7,
    "AVISIT": "SCREENING",
    "AVISITN": 1,
    "ABLFL": "Y",
    "ANL01FL": "Y",
    "SAFFL": "Y"
  },
  {
    "STUDYID": "CDISCPILOT01",
    "USUBJID": "01-701-003",
    "TRTP": "Placebo",
    "TRTPN": 0,
    "PARAMCD": "TEMP",
    "PARAM": "Temperature ( C )",
    "AVAL": 36.4,
    "BASE": 36.4,
    "CHG": 0,
    "PCHG": 0,
    "ADT": "2013-06-19",
    "ADY": 170,
    "AVISIT": "WEEK 24",
    "AVISITN": 9,
    "ABLFL": "",
    "ANL01FL": "Y",
    "SAFFL": "Y"
  },
  {
    "STUDYID": "CDISCPILOT01",
    "USUBJID": "01-701-003",
    "TRTP": "Placebo",
    "TRTPN": 0,
    "PARAMCD": "TEMP",
    "PARAM": "Temperature ( C )",
    "AVAL": 36.4,
    "BASE": 36.4,
    "CHG": 0,
    "PCHG": 0,
    "ADT": "2013-02-28",
    "ADY": 59,
    "AVISIT": "WEEK 8",
    "AVISITN": 5,
    "ABLFL": "",
    "ANL01FL": "Y",
    "SAFFL": "Y"
  },
  {
    "STUDYID": "CDISCPILOT01",
    "USUBJID": "01-701-003",
    "TRTP": "Placebo",
    "TRTPN": 0,
    "PARAMCD": "TEMP",
    "PARAM": "Temperature ( C )",
    "AVAL": 36.4,
    "BASE": 36.4,
    "CHG": 0,
    "PCHG": 0,
    "ADT": "2013-03-27",
    "ADY": 86,
    "AVISIT": "WEEK 12",
    "AVISITN": 6,
    "ABLFL": "",
    "ANL01FL": "Y",
    "SAFFL": "Y"
  },
  {
    "STUDYID": "CDISCPILOT01",
    "USUBJID": "01-701-003",
    "TRTP": "Placebo",
    "TRTPN": 0,
    "PARAMCD": "TEMP",
    "PARAM": "Temperature ( C )",
    "AVAL": 36.4,
    "BASE": 36.4,
    "CHG": 0,
    "PCHG": 0,
    "ADT": "2013-04-23",
    "ADY": 113,
    "AVISIT": "WEEK 16",
    "AVISITN": 7,
    "ABLFL": "",
    "ANL01FL": "Y",
    "SAFFL": "Y"
  },
  {
    "STUDYID": "CDISCPILOT01",
    "USUBJID": "01-701-003",
    "TRTP": "Placebo",
    "TRTPN": 0,
    "PARAMCD": "TEMP",
    "PARAM": "Temperature ( C )",
    "AVAL": 36.4,
    "BASE": 36.4,
    "CHG": 0,
    "PCHG": 0,
    "ADT": "2012-12-24",
    "ADY": -8,
    "AVISIT": "SCREENING",
    "AVISITN": 1,
    "ABLFL": "Y",
    "ANL01FL": "Y",
    "SAFFL": "Y"
  },
  {
    "STUDYID": "CDISCPILOT01",
    "USUBJID": "01-701-003",
    "TRTP": "Placebo",
    "TRTPN": 0,
    "PARAMCD": "TEMP",
    "PARAM": "Temperature ( C )",
    "AVAL": 36.4,
    "BASE": 36.4,
    "CHG": 0,
    "PCHG": 0,
    "ADT": "2013-05-21",
    "ADY": 141,
    "AVISIT": "WEEK 20",
    "AVISITN": 8,
    "ABLFL": "",
    "ANL01FL": "Y",
    "SAFFL": "Y"
  },
  {
    "STUDYID": "CDISCPILOT01",
    "USUBJID": "01-701-003",
    "TRTP": "Placebo",
    "TRTPN": 0,
    "PARAMCD": "TEMP",
    "PARAM": "Temperature ( C )",
    "AVAL": 36.4,
    "BASE": 36.4,
    "CHG": 0,
    "PCHG": 0,
    "ADT": "2013-01-30",
    "ADY": 30,
    "AVISIT": "WEEK 4",
    "AVISITN": 4,
    "ABLFL": "",
    "ANL01FL": "Y",
    "SAFFL": "Y"
  },
  {
    "STUDYID": "CDISCPILOT01",
    "USUBJID": "01-701-003",
    "TRTP": "Placebo",
    "TRTPN": 0,
    "PARAMCD": "TEMP",
    "PARAM": "Temperature ( C )",
    "AVAL": 36.5,
    "BASE": 36.4,
    "CHG": 0.1,
    "PCHG": 0.2747,
    "ADT": "2013-01-02",
    "ADY": 2,
    "AVISIT": "BASELINE",
    "AVISITN": 2,
    "ABLFL": "",
    "ANL01FL": "Y",
    "SAFFL": "Y"
  },
  {
    "STUDYID": "CDISCPILOT01",
    "USUBJID": "01-701-003",
    "TRTP": "Placebo",
    "TRTPN": 0,
    "PARAMCD": "TEMP",
    "PARAM": "Temperature ( C )",
    "AVAL": 36.4,
    "BASE": 36.4,
    "CHG": 0,
    "PCHG": 0,
    "ADT": "2013-01-17",
    "ADY": 17,
    "AVISIT": "WEEK 2",
    "AVISITN": 3,
    "ABLFL": "",
    "ANL01FL": "Y",
    "SAFFL": "Y"
  },
  {
    "STUDYID": "CDISCPILOT01",
    "USUBJID": "01-701-003",
    "TRTP": "Placebo",
    "TRTPN": 0,
    "PARAMCD": "WEIGHT",
    "PARAM": "Weight ( kg )",
    "AVAL": 76.1,
    "BASE": 76.1,
    "CHG": 0,
    "PCHG": 0,
    "ADT": "2012-12-25",
    "ADY": -7,
    "AVISIT": "SCREENING",
    "AVISITN": 1,
    "ABLFL": "Y",
    "ANL01FL": "Y",
    "SAFFL": "Y"
  },
  {
    "STUDYID": "CDISCPILOT01",
    "USUBJID": "01-701-003",
    "TRTP": "Placebo",
    "TRTPN": 0,
    "PARAMCD": "WEIGHT",
    "PARAM": "Weight ( kg )",
    "AVAL": 76.1,
    "BASE": 76.1,
    "CHG": 0,
    "PCHG": 0,
    "ADT": "2013-01-15",
    "ADY": 15,
    "AVISIT": "WEEK 2",
    "AVISITN": 3,
    "ABLFL": "",
    "ANL01FL": "Y",
    "SAFFL": "Y"
  },
  {
    "STUDYID": "CDISCPILOT01",
    "USUBJID": "01-701-003",
    "TRTP": "Placebo",
    "TRTPN": 0,
    "PARAMCD": "WEIGHT",
    "PARAM": "Weight ( kg )",
    "AVAL": 75.9,
    "BASE": 76.1,
    "CHG": -0.2,
    "PCHG": -0.2628,
    "ADT": "2013-04-25",
    "ADY": 115,
    "AVISIT": "WEEK 16",
    "AVISITN": 7,
    "ABLFL": "",
    "ANL01FL": "Y",
    "SAFFL": "Y"
  },
  {
    "STUDYID": "CDISCPILOT01",
    "USUBJID": "01-701-003",
    "TRTP": "Placebo",
    "TRTPN": 0,
    "PARAMCD": "WEIGHT",
    "PARAM": "Weight ( kg )",
    "AVAL": 76,
    "BASE": 76.1,
    "CHG": -0.1,
    "PCHG": -0.1314,
    "ADT": "2013-06-18",
    "ADY": 169,
    "AVISIT": "WEEK 24",
    "AVISITN": 9,
    "ABLFL": "",
    "ANL01FL": "Y",
    "SAFFL": "Y"
  },
  {
    "STUDYID": "CDISCPILOT01",
    "USUBJID": "01-701-003",
    "TRTP": "Placebo",
    "TRTPN": 0,
    "PARAMCD": "WEIGHT",
    "PARAM": "Weight ( kg )",
    "AVAL": 76.8,
    "BASE": 76.1,
    "CHG": 0.7,
    "PCHG": 0.9198,
    "ADT": "2013-01-31",
    "ADY": 31,
    "AVISIT": "WEEK 4",
    "AVISITN": 4,
    "ABLFL": "",
    "ANL01FL": "Y",
    "SAFFL": "Y"
  },
  {
    "STUDYID": "CDISCPILOT01",
    "USUBJID": "01-701-003",
    "TRTP": "Placebo",
    "TRTPN": 0,
    "PARAMCD": "WEIGHT",
    "PARAM": "Weight ( kg )",
    "AVAL": 75.8,
    "BASE": 76.1,
    "CHG": -0.3,
    "PCHG": -0.3942,
    "ADT": "2013-05-23",
    "ADY": 143,
    "AVISIT": "WEEK 20",
    "AVISITN": 8,
    "ABLFL": "",
    "ANL01FL": "Y",
    "SAFFL": "Y"
  },
  {
    "STUDYID": "CDISCPILOT01",
    "USUBJID": "01-701-003",
    "TRTP": "Placebo",
    "TRTPN": 0,
    "PARAMCD": "WEIGHT",
    "PARAM": "Weight ( kg )",
    "AVAL": 75.6,
    "BASE": 76.1,
    "CHG": -0.5,
    "PCHG": -0.657,
    "ADT": "2013-03-27",
    "ADY": 86,
    "AVISIT": "WEEK 12",
    "AVISITN": 6,
    "ABLFL": "",
    "ANL01FL": "Y",
    "SAFFL": "Y"
  },
  {
    "STUDYID": "CDISCPILOT01",
    "USUBJID": "01-701-003",
    "TRTP": "Placebo",
    "TRTPN": 0,
    "PARAMCD": "WEIGHT",
    "PARAM": "Weight ( kg )",
    "AVAL": 76.2,
    "BASE": 76.1,
    "CHG": 0.1,
    "PCHG": 0.1314,
    "ADT": "2013-01-02",
    "ADY": 2,
    "AVISIT": "BASELINE",
    "AVISITN": 2,
    "ABLFL": "",
    "ANL01FL": "Y",
    "SAFFL": "Y"
  },
  {
    "STUDYID": "CDISCPILOT01",
    "USUBJID": "01-701-003",
    "TRTP": "Placebo",
    "TRTPN": 0,
    "PARAMCD": "WEIGHT",
    "PARAM": "Weight ( kg )",
    "AVAL": 75.7,
    "BASE": 76.1,
    "CHG": -0.4,
    "PCHG": -0.5256,
    "ADT": "2013-02-27",
    "ADY": 58,
    "AVISIT": "WEEK 8",
    "AVISITN": 5,
    "ABLFL": "",
    "ANL01FL": "Y",
    "SAFFL": "Y"
  },
  {
    "STUDYID": "CDISCPILOT01",
    "USUBJID": "01-701-004",
    "TRTP": "Xanomeline High Dose",
    "TRTPN": 2,
    "PARAMCD": "DIABP",
    "PARAM": "Diastolic Blood Pressure ( mmHg )",
    "AVAL": 99.8,
    "BASE": 99.4,
    "CHG": 0.4,
    "PCHG": 0.4024,
    "ADT": "2013-10-20",
    "ADY": 58,
    "AVISIT": "WEEK 8",
    "AVISITN": 5,
    "ABLFL": "",
    "ANL01FL": "Y",
    "SAFFL": "Y"
  },
  {
    "STUDYID": "CDISCPILOT01",
    "USUBJID": "01-701-004",
    "TRTP": "Xanomeline High Dose",
    "TRTPN": 2,
    "PARAMCD": "DIABP",
    "PARAM": "Diastolic Blood Pressure ( mmHg )",
    "AVAL": 102.3,
    "BASE": 99.4,
    "CHG": 2.9,
    "PCHG": 2.9175,
    "ADT": "2013-09-09",
    "ADY": 17,
    "AVISIT": "WEEK 2",
    "AVISITN": 3,
    "ABLFL": "",
    "ANL01FL": "Y",
    "SAFFL": "Y"
  },
  {
    "STUDYID": "CDISCPILOT01",
    "USUBJID": "01-701-004",
    "TRTP": "Xanomeline High Dose",
    "TRTPN": 2,
    "PARAMCD": "DIABP",
    "PARAM": "Diastolic Blood Pressure ( mmHg )",
    "AVAL": 97.3,
    "BASE": 99.4,
    "CHG": -2.1,
    "PCHG": -2.1127,
    "ADT": "2013-11-18",
    "ADY": 87,
    "AVISIT": "WEEK 12",
    "AVISITN": 6,
    "ABLFL": "",
    "ANL01FL": "Y",
    "SAFFL": "Y"
  },
  {
    "STUDYID": "CDISCPILOT01",
    "USUBJID": "01-701-004",
    "TRTP": "Xanomeline High Dose",
    "TRTPN": 2,
    "PARAMCD": "DIABP",
    "PARAM": "Diastolic Blood Pressure ( mmHg )",
    "AVAL": 99.4,
    "BASE": 99.4,
    "CHG": 0,
    "PCHG": 0,
    "ADT": "2013-08-17",
    "ADY": -7,
    "AVISIT": "SCREENING",
    "AVISITN": 1,
    "ABLFL": "Y",
    "ANL01FL": "Y",
    "SAFFL": "Y"
  },
  {
    "STUDYID": "CDISCPILOT01",
    "USUBJID": "01-701-004",
    "TRTP": "Xanomeline High Dose",
    "TRTPN": 2,
    "PARAMCD": "DIABP",
    "PARAM": "Diastolic Blood Pressure ( mmHg )",
    "AVAL": 100.4,
    "BASE": 99.4,
    "CHG": 1,
    "PCHG": 1.006,
    "ADT": "2013-09-21",
    "ADY": 29,
    "AVISIT": "WEEK 4",
    "AVISITN": 4,
    "ABLFL": "",
    "ANL01FL": "Y",
    "SAFFL": "Y"
  },
  {
    "STUDYID": "CDISCPILOT01",
    "USUBJID": "01-701-004",
    "TRTP": "Xanomeline High Dose",
    "TRTPN": 2,
    "PARAMCD": "DIABP",
    "PARAM": "Diastolic Blood Pressure ( mmHg )",
    "AVAL": 101.5,
    "BASE": 99.4,
    "CHG": 2.1,
    "PCHG": 2.1127,
    "ADT": "2013-08-26",
    "ADY": 3,
    "AVISIT": "BASELINE",
    "AVISITN": 2,
    "ABLFL": "",
    "ANL01FL": "Y",
    "SAFFL": "Y"
  },
  {
    "STUDYID": "CDISCPILOT01",
    "USUBJID": "01-701-004",
    "TRTP": "Xanomeline High Dose",
    "TRTPN": 2,
    "PARAMCD": "HEIGHT",
    "PARAM": "Height ( cm )",
    "AVAL": 176.2,
    "BASE": 176.2,
    "CHG": 0,
    "PCHG": 0,
    "ADT": "2013-11-16",
    "ADY": 85,
    "AVISIT": "WEEK 12",
    "AVISITN": 6,
    "ABLFL": "",
    "ANL01FL": "Y",
    "SAFFL": "Y"
  },
  {
    "STUDYID": "CDISCPILOT01",
    "USUBJID": "01-701-004",
    "TRTP": "Xanomeline High Dose",
    "TRTPN": 2,
    "PARAMCD": "HEIGHT",
    "PARAM": "Height ( cm )",
    "AVAL": 176.2,
    "BASE": 176.2,
    "CHG": 0,
    "PCHG": 0,
    "ADT": "2013-10-19",
    "ADY": 57,
    "AVISIT": "WEEK 8",
    "AVISITN": 5,
    "ABLFL": "",
    "ANL01FL": "Y",
    "SAFFL": "Y"
  },
  {
    "STUDYID": "CDISCPILOT01",
    "USUBJID": "01-701-004",
    "TRTP": "Xanomeline High Dose",
    "TRTPN": 2,
    "PARAMCD": "HEIGHT",
    "PARAM": "Height ( cm )",
    "AVAL": 176.2,
    "BASE": 176.2,
    "CHG": 0,
    "PCHG": 0,
    "ADT": "2013-08-26",
    "ADY": 3,
    "AVISIT": "BASELINE",
    "AVISITN": 2,
    "ABLFL": "",
    "ANL01FL": "Y",
    "SAFFL": "Y"
  },
  {
    "STUDYID": "CDISCPILOT01",
    "USUBJID": "01-701-004",
    "TRTP": "Xanomeline High Dose",
    "TRTPN": 2,
    "PARAMCD": "HEIGHT",
    "PARAM": "Height ( cm )",
    "AVAL": 176.2,
    "BASE": 176.2,
    "CHG": 0,
    "PCHG": 0,
    "ADT": "2013-08-16",
    "ADY": -8,
    "AVISIT": "SCREENING",
    "AVISITN": 1,
    "ABLFL": "Y",
    "ANL01FL": "Y",
    "SAFFL": "Y"
  },
  {
    "STUDYID": "CDISCPILOT01",
    "USUBJID": "01-701-004",
    "TRTP": "Xanomeline High Dose",
    "TRTPN": 2,
    "PARAMCD": "HEIGHT",
    "PARAM": "Height ( cm )",
    "AVAL": 176.2,
    "BASE": 176.2,
    "CHG": 0,
    "PCHG": 0,
    "ADT": "2013-09-09",
    "ADY": 17,
    "AVISIT": "WEEK 2",
    "AVISITN": 3,
    "ABLFL": "",
    "ANL01FL": "Y",
    "SAFFL": "Y"
  },
  {
    "STUDYID": "CDISCPILOT01",
    "USUBJID": "01-701-004",
    "TRTP": "Xanomeline High Dose",
    "TRTPN": 2,
    "PARAMCD": "HEIGHT",
    "PARAM": "Height ( cm )",
    "AVAL": 176.2,
    "BASE": 176.2,
    "CHG": 0,
    "PCHG": 0,
    "ADT": "2013-09-21",
    "ADY": 29,
    "AVISIT": "WEEK 4",
    "AVISITN": 4,
    "ABLFL": "",
    "ANL01FL": "Y",
    "SAFFL": "Y"
  },
  {
    "STUDYID": "CDISCPILOT01",
    "USUBJID": "01-701-004",
    "TRTP": "Xanomeline High Dose",
    "TRTPN": 2,
    "PARAMCD": "PULSE",
    "PARAM": "Pulse Rate ( beats/min )",
    "AVAL": 67.8,
    "BASE": 74.2,
    "CHG": -6.4,
    "PCHG": -8.6253,
    "ADT": "2013-09-07",
    "ADY": 15,
    "AVISIT": "WEEK 2",
    "AVISITN": 3,
    "ABLFL": "",
    "ANL01FL": "Y",
    "SAFFL": "Y"
  },
  {
    "STUDYID": "CDISCPILOT01",
    "USUBJID": "01-701-004",
    "TRTP": "Xanomeline High Dose",
    "TRTPN": 2,
    "PARAMCD": "PULSE",
    "PARAM": "Pulse Rate ( beats/min )",
    "AVAL": 70.5,
    "BASE": 74.2,
    "CHG": -3.7,
    "PCHG": -4.9865,
    "ADT": "2013-09-22",
    "ADY": 30,
    "AVISIT": "WEEK 4",
    "AVISITN": 4,
    "ABLFL": "",
    "ANL01FL": "Y",
    "SAFFL": "Y"
  },
  {
    "STUDYID": "CDISCPILOT01",
    "USUBJID": "01-701-004",
    "TRTP": "Xanomeline High Dose",
    "TRTPN": 2,
    "PARAMCD": "PULSE",
    "PARAM": "Pulse Rate ( beats/min )",
    "AVAL": 67.6,
    "BASE": 74.2,
    "CHG": -6.6,
    "PCHG": -8.8949,
    "ADT": "2013-11-16",
    "ADY": 85,
    "AVISIT": "WEEK 12",
    "AVISITN": 6,
    "ABLFL": "",
    "ANL01FL": "Y",
    "SAFFL": "Y"
  },
  {
    "STUDYID": "CDISCPILOT01",
    "USUBJID": "01-701-004",
    "TRTP": "Xanomeline High Dose",
    "TRTPN": 2,
    "PARAMCD": "PULSE",
    "PARAM": "Pulse Rate ( beats/min )",
    "AVAL": 73.8,
    "BASE": 74.2,
    "CHG": -0.4,
    "PCHG": -0.5391,
    "ADT": "2013-10-21",
    "ADY": 59,
    "AVISIT": "WEEK 8",
    "AVISITN": 5,
    "ABLFL": "",
    "ANL01FL": "Y",
    "SAFFL": "Y"
  },
  {
    "STUDYID": "CDISCPILOT01",
    "USUBJID": "01-701-004",
    "TRTP": "Xanomeline High Dose",
    "TRTPN": 2,
    "PARAMCD": "PULSE",
    "PARAM": "Pulse Rate ( beats/min )",
    "AVAL": 73.5,
    "BASE": 74.2,
    "CHG": -0.7,
    "PCHG": -0.9434,
    "ADT": "2013-08-24",
    "ADY": 1,
    "AVISIT": "BASELINE",
    "AVISITN": 2,
    "ABLFL": "",
    "ANL01FL": "Y",
    "SAFFL": "Y"
  },
  {
    "STUDYID": "CDISCPILOT01",
    "USUBJID": "01-701-004",
    "TRTP": "Xanomeline High Dose",
    "TRTPN": 2,
    "PARAMCD": "PULSE",
    "PARAM": "Pulse Rate ( beats/min )",
    "AVAL": 74.2,
    "BASE": 74.2,
    "CHG": 0,
    "PCHG": 0,
    "ADT": "2013-08-18",
    "ADY": -6,
    "AVISIT": "SCREENING",
    "AVISITN": 1,
    "ABLFL": "Y",
    "ANL01FL": "Y",
    "SAFFL": "Y"
  },
  {
    "STUDYID": "CDISCPILOT01",
    "USUBJID": "01-701-004",
    "TRTP": "Xanomeline High Dose",
    "TRTPN": 2,
    "PARAMCD": "RESP",
    "PARAM": "Respiratory Rate ( breaths/min )",
    "AVAL": 17.1,
    "BASE": 17.1,
    "CHG": 0,
    "PCHG": 0,
    "ADT": "2013-08-18",
    "ADY": -6,
    "AVISIT": "SCREENING",
    "AVISITN": 1,
    "ABLFL": "Y",
    "ANL01FL": "Y",
    "SAFFL": "Y"
  },
  {
    "STUDYID": "CDISCPILOT01",
    "USUBJID": "01-701-004",
    "TRTP": "Xanomeline High Dose",
    "TRTPN": 2,
    "PARAMCD": "RESP",
    "PARAM": "Respiratory Rate ( breaths/min )",
    "AVAL": 17.1,
    "BASE": 17.1,
    "CHG": 0,
    "PCHG": 0,
    "ADT": "2013-09-08",
    "ADY": 16,
    "AVISIT": "WEEK 2",
    "AVISITN": 3,
    "ABLFL": "",
    "ANL01FL": "Y",
    "SAFFL": "Y"
  },
  {
    "STUDYID": "CDISCPILOT01",
    "USUBJID": "01-701-004",
    "TRTP": "Xanomeline High Dose",
    "TRTPN": 2,
    "PARAMCD": "RESP",
    "PARAM": "Respiratory Rate ( breaths/min )",
    "AVAL": 17.4,
    "BASE": 17.1,
    "CHG": 0.3,
    "PCHG": 1.7544,
    "ADT": "2013-10-20",
    "ADY": 58,
    "AVISIT": "WEEK 8",
    "AVISITN": 5,
    "ABLFL": "",
    "ANL01FL": "Y",
    "SAFFL": "Y"
  },
  {
    "STUDYID": "CDISCPILOT01",
    "USUBJID": "01-701-004",
    "TRTP": "Xanomeline High Dose",
    "TRTPN": 2,
    "PARAMCD": "RESP",
    "PARAM": "Respiratory Rate ( breaths/min )",
    "AVAL": 17.2,
    "BASE": 17.1,
    "CHG": 0.1,
    "PCHG": 0.5848,
    "ADT": "2013-08-25",
    "ADY": 2,
    "AVISIT": "BASELINE",
    "AVISITN": 2,
    "ABLFL": "",
    "ANL01FL": "Y",
    "SAFFL": "Y"
  },
  {
    "STUDYID": "CDISCPILOT01",
    "USUBJID": "01-701-004",
    "TRTP": "Xanomeline High Dose",
    "TRTPN": 2,
    "PARAMCD": "RESP",
    "PARAM": "Respiratory Rate ( breaths/min )",
    "AVAL": 16.8,
    "BASE": 17.1,
    "CHG": -0.3,
    "PCHG": -1.7544,
    "ADT": "2013-09-22",
    "ADY": 30,
    "AVISIT": "WEEK 4",
    "AVISITN": 4,
    "ABLFL": "",
    "ANL01FL": "Y",
    "SAFFL": "Y"
  },
  {
    "STUDYID": "CDISCPILOT01",
    "USUBJID": "01-701-004",
    "TRTP": "Xanomeline High Dose",
    "TRTPN": 2,
    "PARAMCD": "RESP",
    "PARAM": "Respiratory Rate ( breaths/min )",
    "AVAL": 16.8,
    "BASE": 17.1,
    "CHG": -0.3,
    "PCHG": -1.7544,
    "ADT": "2013-11-18",
    "ADY": 87,
    "AVISIT": "WEEK 12",
    "AVISITN": 6,
    "ABLFL": "",
    "ANL01FL": "Y",
    "SAFFL": "Y"
  },
  {
    "STUDYID": "CDISCPILOT01",
    "USUBJID": "01-701-004",
    "TRTP": "Xanomeline High Dose",
    "TRTPN": 2,
    "PARAMCD": "SYSBP",
    "PARAM": "Systolic Blood Pressure ( mmHg )",
    "AVAL": 164.3,
    "BASE": 165.8,
    "CHG": -1.5,
    "PCHG": -0.9047,
    "ADT": "2013-10-21",
    "ADY": 59,
    "AVISIT": "WEEK 8",
    "AVISITN": 5,
    "ABLFL": "",
    "ANL01FL": "Y",
    "SAFFL": "Y"
  },
  {
    "STUDYID": "CDISCPILOT01",
    "USUBJID": "01-701-004",
    "TRTP": "Xanomeline High Dose",
    "TRTPN": 2,
    "PARAMCD": "SYSBP",
    "PARAM": "Systolic Blood Pressure ( mmHg )",
    "AVAL": 160.4,
    "BASE": 165.8,
    "CHG": -5.4,
    "PCHG": -3.2569,
    "ADT": "2013-09-09",
    "ADY": 17,
    "AVISIT": "WEEK 2",
    "AVISITN": 3,
    "ABLFL": "",
    "ANL01FL": "Y",
    "SAFFL": "Y"
  },
  {
    "STUDYID": "CDISCPILOT01",
    "USUBJID": "01-701-004",
    "TRTP": "Xanomeline High Dose",
    "TRTPN": 2,
    "PARAMCD": "SYSBP",
    "PARAM": "Systolic Blood Pressure ( mmHg )",
    "AVAL": 160.4,
    "BASE": 165.8,
    "CHG": -5.4,
    "PCHG": -3.2569,
    "ADT": "2013-11-17",
    "ADY": 86,
    "AVISIT": "WEEK 12",
    "AVISITN": 6,
    "ABLFL": "",
    "ANL01FL": "Y",
    "SAFFL": "Y"
  },
  {
    "STUDYID": "CDISCPILOT01",
    "USUBJID": "01-701-004",
    "TRTP": "Xanomeline High Dose",
    "TRTPN": 2,
    "PARAMCD": "SYSBP",
    "PARAM": "Systolic Blood Pressure ( mmHg )",
    "AVAL": 165.8,
    "BASE": 165.8,
    "CHG": 0,
    "PCHG": 0,
    "ADT": "2013-08-18",
    "ADY": -6,
    "AVISIT": "SCREENING",
    "AVISITN": 1,
    "ABLFL": "Y",
    "ANL01FL": "Y",
    "SAFFL": "Y"
  },
  {
    "STUDYID": "CDISCPILOT01",
    "USUBJID": "01-701-004",
    "TRTP": "Xanomeline High Dose",
    "TRTPN": 2,
    "PARAMCD": "SYSBP",
    "PARAM": "Systolic Blood Pressure ( mmHg )",
    "AVAL": 161.5,
    "BASE": 165.8,
    "CHG": -4.3,
    "PCHG": -2.5935,
    "ADT": "2013-09-21",
    "ADY": 29,
    "AVISIT": "WEEK 4",
    "AVISITN": 4,
    "ABLFL": "",
    "ANL01FL": "Y",
    "SAFFL": "Y"
  },
  {
    "STUDYID": "CDISCPILOT01",
    "USUBJID": "01-701-004",
    "TRTP": "Xanomeline High Dose",
    "TRTPN": 2,
    "PARAMCD": "SYSBP",
    "PARAM": "Systolic Blood Pressure ( mmHg )",
    "AVAL": 168,
    "BASE": 165.8,
    "CHG": 2.2,
    "PCHG": 1.3269,
    "ADT": "2013-08-25",
    "ADY": 2,
    "AVISIT": "BASELINE",
    "AVISITN": 2,
    "ABLFL": "",
    "ANL01FL": "Y",
    "SAFFL": "Y"
  },
  {
    "STUDYID": "CDISCPILOT01",
    "USUBJID": "01-701-004",
    "TRTP": "Xanomeline High Dose",
    "TRTPN": 2,
    "PARAMCD": "TEMP",
    "PARAM": "Temperature ( C )",
    "AVAL": 36.3,
    "BASE": 36.3,
    "CHG": 0,
    "PCHG": 0,
    "ADT": "2013-10-19",
    "ADY": 57,
    "AVISIT": "WEEK 8",
    "AVISITN": 5,
    "ABLFL": "",
    "ANL01FL": "Y",
    "SAFFL": "Y"
  },
  {
    "STUDYID": "CDISCPILOT01",
    "USUBJID": "01-701-004",
    "TRTP": "Xanomeline High Dose",
    "TRTPN": 2,
    "PARAMCD": "TEMP",
    "PARAM": "Temperature ( C )",
    "AVAL": 36.4,
    "BASE": 36.3,
    "CHG": 0.1,
    "PCHG": 0.2755,
    "ADT": "2013-09-09",
    "ADY": 17,
    "AVISIT": "WEEK 2",
    "AVISITN": 3,
    "ABLFL": "",
    "ANL01FL": "Y",
    "SAFFL": "Y"
  },
  {
    "STUDYID": "CDISCPILOT01",
    "USUBJID": "01-701-004",
    "TRTP": "Xanomeline High Dose",
    "TRTPN": 2,
    "PARAMCD": "TEMP",
    "PARAM": "Temperature ( C )",
    "AVAL": 36.3,
    "BASE": 36.3,
    "CHG": 0,
    "PCHG": 0,
    "ADT": "2013-11-17",
    "ADY": 86,
    "AVISIT": "WEEK 12",
    "AVISITN": 6,
    "ABLFL": "",
    "ANL01FL": "Y",
    "SAFFL": "Y"
  },
  {
    "STUDYID": "CDISCPILOT01",
    "USUBJID": "01-701-004",
    "TRTP": "Xanomeline High Dose",
    "TRTPN": 2,
    "PARAMCD": "TEMP",
    "PARAM": "Temperature ( C )",
    "AVAL": 36.3,
    "BASE": 36.3,
    "CHG": 0,
    "PCHG": 0,
    "ADT": "2013-08-18",
    "ADY": -6,
    "AVISIT": "SCREENING",
    "AVISITN": 1,
    "ABLFL": "Y",
    "ANL01FL": "Y",
    "SAFFL": "Y"
  },
  {
    "STUDYID": "CDISCPILOT01",
    "USUBJID": "01-701-004",
    "TRTP": "Xanomeline High Dose",
    "TRTPN": 2,
    "PARAMCD": "TEMP",
    "PARAM": "Temperature ( C )",
    "AVAL": 36.3,
    "BASE": 36.3,
    "CHG": 0,
    "PCHG": 0,
    "ADT": "2013-09-21",
    "ADY": 29,
    "AVISIT": "WEEK 4",
    "AVISITN": 4,
    "ABLFL": "",
    "ANL01FL": "Y",
    "SAFFL": "Y"
  },
  {
    "STUDYID": "CDISCPILOT01",
    "USUBJID": "01-701-004",
    "TRTP": "Xanomeline High Dose",
    "TRTPN": 2,
    "PARAMCD": "TEMP",
    "PARAM": "Temperature ( C )",
    "AVAL": 36.3,
    "BASE": 36.3,
    "CHG": 0,
    "PCHG": 0,
    "ADT": "2013-08-24",
    "ADY": 1,
    "AVISIT": "BASELINE",
    "AVISITN": 2,
    "ABLFL": "",
    "ANL01FL": "Y",
    "SAFFL": "Y"
  },
  {
    "STUDYID": "CDISCPILOT01",
    "USUBJID": "01-701-004",
    "TRTP": "Xanomeline High Dose",
    "TRTPN": 2,
    "PARAMCD": "WEIGHT",
    "PARAM": "Weight ( kg )",
    "AVAL": 76.5,
    "BASE": 76.5,
    "CHG": 0,
    "PCHG": 0,
    "ADT": "2013-08-18",
    "ADY": -6,
    "AVISIT": "SCREENING",
    "AVISITN": 1,
    "ABLFL": "Y",
    "ANL01FL": "Y",
    "SAFFL": "Y"
  },
  {
    "STUDYID": "CDISCPILOT01",
    "USUBJID": "01-701-004",
    "TRTP": "Xanomeline High Dose",
    "TRTPN": 2,
    "PARAMCD": "WEIGHT",
    "PARAM": "Weight ( kg )",
    "AVAL": 76.9,
    "BASE": 76.5,
    "CHG": 0.4,
    "PCHG": 0.5229,
    "ADT": "2013-09-07",
    "ADY": 15,
    "AVISIT": "WEEK 2",
    "AVISITN": 3,
    "ABLFL": "",
    "ANL01FL": "Y",
    "SAFFL": "Y"
  },
  {
    "STUDYID": "CDISCPILOT01",
    "USUBJID": "01-701-004",
    "TRTP": "Xanomeline High Dose",
    "TRTPN": 2,
    "PARAMCD": "WEIGHT",
    "PARAM": "Weight ( kg )",
    "AVAL": 76.5,
    "BASE": 76.5,
    "CHG": 0,
    "PCHG": 0,
    "ADT": "2013-10-21",
    "ADY": 59,
    "AVISIT": "WEEK 8",
    "AVISITN": 5,
    "ABLFL": "",
    "ANL01FL": "Y",
    "SAFFL": "Y"
  },
  {
    "STUDYID": "CDISCPILOT01",
    "USUBJID": "01-701-004",
    "TRTP": "Xanomeline High Dose",
    "TRTPN": 2,
    "PARAMCD": "WEIGHT",
    "PARAM": "Weight ( kg )",
    "AVAL": 76.3,
    "BASE": 76.5,
    "CHG": -0.2,
    "PCHG": -0.2614,
    "ADT": "2013-08-24",
    "ADY": 1,
    "AVISIT": "BASELINE",
    "AVISITN": 2,
    "ABLFL": "",
    "ANL01FL": "Y",
    "SAFFL": "Y"
  },
  {
    "STUDYID": "CDISCPILOT01",
    "USUBJID": "01-701-004",
    "TRTP": "Xanomeline High Dose",
    "TRTPN": 2,
    "PARAMCD": "WEIGHT",
    "PARAM": "Weight ( kg )",
    "AVAL": 76.2,
    "BASE": 76.5,
    "CHG": -0.3,
    "PCHG": -0.3922,
    "ADT": "2013-09-21",
    "ADY": 29,
    "AVISIT": "WEEK 4",
    "AVISITN": 4,
    "ABLFL": "",
    "ANL01FL": "Y",
    "SAFFL": "Y"
  },
  {
    "STUDYID": "CDISCPILOT01",
    "USUBJID": "01-701-004",
    "TRTP": "Xanomeline High Dose",
    "TRTPN": 2,
    "PARAMCD": "WEIGHT",
    "PARAM": "Weight ( kg )",
    "AVAL": 76.5,
    "BASE": 76.5,
    "CHG": 0,
    "PCHG": 0,
    "ADT": "2013-11-16",
    "ADY": 85,
    "AVISIT": "WEEK 12",
    "AVISITN": 6,
    "ABLFL": "",
    "ANL01FL": "Y",
    "SAFFL": "Y"
  },
  {
    "STUDYID": "CDISCPILOT01",
    "USUBJID": "01-701-005",
    "TRTP": "Placebo",
    "TRTPN": 0,
    "PARAMCD": "DIABP",
    "PARAM": "Diastolic Blood Pressure ( mmHg )",
    "AVAL": 77.4,
    "BASE": 77.4,
    "CHG": 0,
    "PCHG": 0,
    "ADT": "2013-05-30",
    "ADY": 113,
    "AVISIT": "WEEK 16",
    "AVISITN": 7,
    "ABLFL": "",
    "ANL01FL": "Y",
    "SAFFL": "Y"
  },
  {
    "STUDYID": "CDISCPILOT01",
    "USUBJID": "01-701-005",
    "TRTP": "Placebo",
    "TRTPN": 0,
    "PARAMCD": "DIABP",
    "PARAM": "Diastolic Blood Pressure ( mmHg )",
    "AVAL": 79.1,
    "BASE": 77.4,
    "CHG": 1.7,
    "PCHG": 2.1964,
    "ADT": "2013-06-29",
    "ADY": 143,
    "AVISIT": "WEEK 20",
    "AVISITN": 8,
    "ABLFL": "",
    "ANL01FL": "Y",
    "SAFFL": "Y"
  },
  {
    "STUDYID": "CDISCPILOT01",
    "USUBJID": "01-701-005",
    "TRTP": "Placebo",
    "TRTPN": 0,
    "PARAMCD": "DIABP",
    "PARAM": "Diastolic Blood Pressure ( mmHg )",
    "AVAL": 75.4,
    "BASE": 77.4,
    "CHG": -2,
    "PCHG": -2.584,
    "ADT": "2013-05-03",
    "ADY": 86,
    "AVISIT": "WEEK 12",
    "AVISITN": 6,
    "ABLFL": "",
    "ANL01FL": "Y",
    "SAFFL": "Y"
  },
  {
    "STUDYID": "CDISCPILOT01",
    "USUBJID": "01-701-005",
    "TRTP": "Placebo",
    "TRTPN": 0,
    "PARAMCD": "DIABP",
    "PARAM": "Diastolic Blood Pressure ( mmHg )",
    "AVAL": 78.2,
    "BASE": 77.4,
    "CHG": 0.8,
    "PCHG": 1.0336,
    "ADT": "2013-02-08",
    "ADY": 2,
    "AVISIT": "BASELINE",
    "AVISITN": 2,
    "ABLFL": "",
    "ANL01FL": "Y",
    "SAFFL": "Y"
  },
  {
    "STUDYID": "CDISCPILOT01",
    "USUBJID": "01-701-005",
    "TRTP": "Placebo",
    "TRTPN": 0,
    "PARAMCD": "DIABP",
    "PARAM": "Diastolic Blood Pressure ( mmHg )",
    "AVAL": 78.7,
    "BASE": 77.4,
    "CHG": 1.3,
    "PCHG": 1.6796,
    "ADT": "2013-07-27",
    "ADY": 171,
    "AVISIT": "WEEK 24",
    "AVISITN": 9,
    "ABLFL": "",
    "ANL01FL": "Y",
    "SAFFL": "Y"
  },
  {
    "STUDYID": "CDISCPILOT01",
    "USUBJID": "01-701-005",
    "TRTP": "Placebo",
    "TRTPN": 0,
    "PARAMCD": "DIABP",
    "PARAM": "Diastolic Blood Pressure ( mmHg )",
    "AVAL": 76.3,
    "BASE": 77.4,
    "CHG": -1.1,
    "PCHG": -1.4212,
    "ADT": "2013-02-22",
    "ADY": 16,
    "AVISIT": "WEEK 2",
    "AVISITN": 3,
    "ABLFL": "",
    "ANL01FL": "Y",
    "SAFFL": "Y"
  },
  {
    "STUDYID": "CDISCPILOT01",
    "USUBJID": "01-701-005",
    "TRTP": "Placebo",
    "TRTPN": 0,
    "PARAMCD": "DIABP",
    "PARAM": "Diastolic Blood Pressure ( mmHg )",
    "AVAL": 79.6,
    "BASE": 77.4,
    "CHG": 2.2,
    "PCHG": 2.8424,
    "ADT": "2013-03-09",
    "ADY": 31,
    "AVISIT": "WEEK 4",
    "AVISITN": 4,
    "ABLFL": "",
    "ANL01FL": "Y",
    "SAFFL": "Y"
  },
  {
    "STUDYID": "CDISCPILOT01",
    "USUBJID": "01-701-005",
    "TRTP": "Placebo",
    "TRTPN": 0,
    "PARAMCD": "DIABP",
    "PARAM": "Diastolic Blood Pressure ( mmHg )",
    "AVAL": 78.3,
    "BASE": 77.4,
    "CHG": 0.9,
    "PCHG": 1.1628,
    "ADT": "2013-04-04",
    "ADY": 57,
    "AVISIT": "WEEK 8",
    "AVISITN": 5,
    "ABLFL": "",
    "ANL01FL": "Y",
    "SAFFL": "Y"
  },
  {
    "STUDYID": "CDISCPILOT01",
    "USUBJID": "01-701-005",
    "TRTP": "Placebo",
    "TRTPN": 0,
    "PARAMCD": "DIABP",
    "PARAM": "Diastolic Blood Pressure ( mmHg )",
    "AVAL": 77.4,
    "BASE": 77.4,
    "CHG": 0,
    "PCHG": 0,
    "ADT": "2013-01-31",
    "ADY": -7,
    "AVISIT": "SCREENING",
    "AVISITN": 1,
    "ABLFL": "Y",
    "ANL01FL": "Y",
    "SAFFL": "Y"
  },
  {
    "STUDYID": "CDISCPILOT01",
    "USUBJID": "01-701-005",
    "TRTP": "Placebo",
    "TRTPN": 0,
    "PARAMCD": "HEIGHT",
    "PARAM": "Height ( cm )",
    "AVAL": 175.5,
    "BASE": 175.5,
    "CHG": 0,
    "PCHG": 0,
    "ADT": "2013-07-25",
    "ADY": 169,
    "AVISIT": "WEEK 24",
    "AVISITN": 9,
    "ABLFL": "",
    "ANL01FL": "Y",
    "SAFFL": "Y"
  },
  {
    "STUDYID": "CDISCPILOT01",
    "USUBJID": "01-701-005",
    "TRTP": "Placebo",
    "TRTPN": 0,
    "PARAMCD": "HEIGHT",
    "PARAM": "Height ( cm )",
    "AVAL": 175.5,
    "BASE": 175.5,
    "CHG": 0,
    "PCHG": 0,
    "ADT": "2013-02-07",
    "ADY": 1,
    "AVISIT": "BASELINE",
    "AVISITN": 2,
    "ABLFL": "",
    "ANL01FL": "Y",
    "SAFFL": "Y"
  },
  {
    "STUDYID": "CDISCPILOT01",
    "USUBJID": "01-701-005",
    "TRTP": "Placebo",
    "TRTPN": 0,
    "PARAMCD": "HEIGHT",
    "PARAM": "Height ( cm )",
    "AVAL": 175.5,
    "BASE": 175.5,
    "CHG": 0,
    "PCHG": 0,
    "ADT": "2013-06-27",
    "ADY": 141,
    "AVISIT": "WEEK 20",
    "AVISITN": 8,
    "ABLFL": "",
    "ANL01FL": "Y",
    "SAFFL": "Y"
  },
  {
    "STUDYID": "CDISCPILOT01",
    "USUBJID": "01-701-005",
    "TRTP": "Placebo",
    "TRTPN": 0,
    "PARAMCD": "HEIGHT",
    "PARAM": "Height ( cm )",
    "AVAL": 175.5,
    "BASE": 175.5,
    "CHG": 0,
    "PCHG": 0,
    "ADT": "2013-06-01",
    "ADY": 115,
    "AVISIT": "WEEK 16",
    "AVISITN": 7,
    "ABLFL": "",
    "ANL01FL": "Y",
    "SAFFL": "Y"
  },
  {
    "STUDYID": "CDISCPILOT01",
    "USUBJID": "01-701-005",
    "TRTP": "Placebo",
    "TRTPN": 0,
    "PARAMCD": "HEIGHT",
    "PARAM": "Height ( cm )",
    "AVAL": 175.5,
    "BASE": 175.5,
    "CHG": 0,
    "PCHG": 0,
    "ADT": "2013-04-06",
    "ADY": 59,
    "AVISIT": "WEEK 8",
    "AVISITN": 5,
    "ABLFL": "",
    "ANL01FL": "Y",
    "SAFFL": "Y"
  },
  {
    "STUDYID": "CDISCPILOT01",
    "USUBJID": "01-701-005",
    "TRTP": "Placebo",
    "TRTPN": 0,
    "PARAMCD": "HEIGHT",
    "PARAM": "Height ( cm )",
    "AVAL": 175.5,
    "BASE": 175.5,
    "CHG": 0,
    "PCHG": 0,
    "ADT": "2013-01-30",
    "ADY": -8,
    "AVISIT": "SCREENING",
    "AVISITN": 1,
    "ABLFL": "Y",
    "ANL01FL": "Y",
    "SAFFL": "Y"
  },
  {
    "STUDYID": "CDISCPILOT01",
    "USUBJID": "01-701-005",
    "TRTP": "Placebo",
    "TRTPN": 0,
    "PARAMCD": "HEIGHT",
    "PARAM": "Height ( cm )",
    "AVAL": 175.5,
    "BASE": 175.5,
    "CHG": 0,
    "PCHG": 0,
    "ADT": "2013-05-03",
    "ADY": 86,
    "AVISIT": "WEEK 12",
    "AVISITN": 6,
    "ABLFL": "",
    "ANL01FL": "Y",
    "SAFFL": "Y"
  },
  {
    "STUDYID": "CDISCPILOT01",
    "USUBJID": "01-701-005",
    "TRTP": "Placebo",
    "TRTPN": 0,
    "PARAMCD": "HEIGHT",
    "PARAM": "Height ( cm )",
    "AVAL": 175.5,
    "BASE": 175.5,
    "CHG": 0,
    "PCHG": 0,
    "ADT": "2013-02-23",
    "ADY": 17,
    "AVISIT": "WEEK 2",
    "AVISITN": 3,
    "ABLFL": "",
    "ANL01FL": "Y",
    "SAFFL": "Y"
  },
  {
    "STUDYID": "CDISCPILOT01",
    "USUBJID": "01-701-005",
    "TRTP": "Placebo",
    "TRTPN": 0,
    "PARAMCD": "HEIGHT",
    "PARAM": "Height ( cm )",
    "AVAL": 175.5,
    "BASE": 175.5,
    "CHG": 0,
    "PCHG": 0,
    "ADT": "2013-03-07",
    "ADY": 29,
    "AVISIT": "WEEK 4",
    "AVISITN": 4,
    "ABLFL": "",
    "ANL01FL": "Y",
    "SAFFL": "Y"
  },
  {
    "STUDYID": "CDISCPILOT01",
    "USUBJID": "01-701-005",
    "TRTP": "Placebo",
    "TRTPN": 0,
    "PARAMCD": "PULSE",
    "PARAM": "Pulse Rate ( beats/min )",
    "AVAL": 63.6,
    "BASE": 64.4,
    "CHG": -0.8,
    "PCHG": -1.2422,
    "ADT": "2013-05-04",
    "ADY": 87,
    "AVISIT": "WEEK 12",
    "AVISITN": 6,
    "ABLFL": "",
    "ANL01FL": "Y",
    "SAFFL": "Y"
  },
  {
    "STUDYID": "CDISCPILOT01",
    "USUBJID": "01-701-005",
    "TRTP": "Placebo",
    "TRTPN": 0,
    "PARAMCD": "PULSE",
    "PARAM": "Pulse Rate ( beats/min )",
    "AVAL": 67.5,
    "BASE": 64.4,
    "CHG": 3.1,
    "PCHG": 4.8137,
    "ADT": "2013-06-01",
    "ADY": 115,
    "AVISIT": "WEEK 16",
    "AVISITN": 7,
    "ABLFL": "",
    "ANL01FL": "Y",
    "SAFFL": "Y"
  },
  {
    "STUDYID": "CDISCPILOT01",
    "USUBJID": "01-701-005",
    "TRTP": "Placebo",
    "TRTPN": 0,
    "PARAMCD": "PULSE",
    "PARAM": "Pulse Rate ( beats/min )",
    "AVAL": 64.1,
    "BASE": 64.4,
    "CHG": -0.3,
    "PCHG": -0.4658,
    "ADT": "2013-03-08",
    "ADY": 30,
    "AVISIT": "WEEK 4",
    "AVISITN": 4,
    "ABLFL": "",
    "ANL01FL": "Y",
    "SAFFL": "Y"
  },
  {
    "STUDYID": "CDISCPILOT01",
    "USUBJID": "01-701-005",
    "TRTP": "Placebo",
    "TRTPN": 0,
    "PARAMCD": "PULSE",
    "PARAM": "Pulse Rate ( beats/min )",
    "AVAL": 66.1,
    "BASE": 64.4,
    "CHG": 1.7,
    "PCHG": 2.6398,
    "ADT": "2013-07-27",
    "ADY": 171,
    "AVISIT": "WEEK 24",
    "AVISITN": 9,
    "ABLFL": "",
    "ANL01FL": "Y",
    "SAFFL": "Y"
  },
  {
    "STUDYID": "CDISCPILOT01",
    "USUBJID": "01-701-005",
    "TRTP": "Placebo",
    "TRTPN": 0,
    "PARAMCD": "PULSE",
    "PARAM": "Pulse Rate ( beats/min )",
    "AVAL": 65,
    "BASE": 64.4,
    "CHG": 0.6,
    "PCHG": 0.9317,
    "ADT": "2013-04-05",
    "ADY": 58,
    "AVISIT": "WEEK 8",
    "AVISITN": 5,
    "ABLFL": "",
    "ANL01FL": "Y",
    "SAFFL": "Y"
  },
  {
    "STUDYID": "CDISCPILOT01",
    "USUBJID": "01-701-005",
    "TRTP": "Placebo",
    "TRTPN": 0,
    "PARAMCD": "PULSE",
    "PARAM": "Pulse Rate ( beats/min )",
    "AVAL": 62.4,
    "BASE": 64.4,
    "CHG": -2,
    "PCHG": -3.1056,
    "ADT": "2013-02-23",
    "ADY": 17,
    "AVISIT": "WEEK 2",
    "AVISITN": 3,
    "ABLFL": "",
    "ANL01FL": "Y",
    "SAFFL": "Y"
  },
  {
    "STUDYID": "CDISCPILOT01",
    "USUBJID": "01-701-005",
    "TRTP": "Placebo",
    "TRTPN": 0,
    "PARAMCD": "PULSE",
    "PARAM": "Pulse Rate ( beats/min )",
    "AVAL": 63.6,
    "BASE": 64.4,
    "CHG": -0.8,
    "PCHG": -1.2422,
    "ADT": "2013-02-09",
    "ADY": 3,
    "AVISIT": "BASELINE",
    "AVISITN": 2,
    "ABLFL": "",
    "ANL01FL": "Y",
    "SAFFL": "Y"
  },
  {
    "STUDYID": "CDISCPILOT01",
    "USUBJID": "01-701-005",
    "TRTP": "Placebo",
    "TRTPN": 0,
    "PARAMCD": "PULSE",
    "PARAM": "Pulse Rate ( beats/min )",
    "AVAL": 64.3,
    "BASE": 64.4,
    "CHG": -0.1,
    "PCHG": -0.1553,
    "ADT": "2013-06-29",
    "ADY": 143,
    "AVISIT": "WEEK 20",
    "AVISITN": 8,
    "ABLFL": "",
    "ANL01FL": "Y",
    "SAFFL": "Y"
  },
  {
    "STUDYID": "CDISCPILOT01",
    "USUBJID": "01-701-005",
    "TRTP": "Placebo",
    "TRTPN": 0,
    "PARAMCD": "PULSE",
    "PARAM": "Pulse Rate ( beats/min )",
    "AVAL": 64.4,
    "BASE": 64.4,
    "CHG": 0,
    "PCHG": 0,
    "ADT": "2013-01-31",
    "ADY": -7,
    "AVISIT": "SCREENING",
    "AVISITN": 1,
    "ABLFL": "Y",
    "ANL01FL": "Y",
    "SAFFL": "Y"
  },
  {
    "STUDYID": "CDISCPILOT01",
    "USUBJID": "01-701-005",
    "TRTP": "Placebo",
    "TRTPN": 0,
    "PARAMCD": "RESP",
    "PARAM": "Respiratory Rate ( breaths/min )",
    "AVAL": 17.3,
    "BASE": 17.7,
    "CHG": -0.4,
    "PCHG": -2.2599,
    "ADT": "2013-04-05",
    "ADY": 58,
    "AVISIT": "WEEK 8",
    "AVISITN": 5,
    "ABLFL": "",
    "ANL01FL": "Y",
    "SAFFL": "Y"
  },
  {
    "STUDYID": "CDISCPILOT01",
    "USUBJID": "01-701-005",
    "TRTP": "Placebo",
    "TRTPN": 0,
    "PARAMCD": "RESP",
    "PARAM": "Respiratory Rate ( breaths/min )",
    "AVAL": 17.9,
    "BASE": 17.7,
    "CHG": 0.2,
    "PCHG": 1.1299,
    "ADT": "2013-06-29",
    "ADY": 143,
    "AVISIT": "WEEK 20",
    "AVISITN": 8,
    "ABLFL": "",
    "ANL01FL": "Y",
    "SAFFL": "Y"
  },
  {
    "STUDYID": "CDISCPILOT01",
    "USUBJID": "01-701-005",
    "TRTP": "Placebo",
    "TRTPN": 0,
    "PARAMCD": "RESP",
    "PARAM": "Respiratory Rate ( breaths/min )",
    "AVAL": 17.9,
    "BASE": 17.7,
    "CHG": 0.2,
    "PCHG": 1.1299,
    "ADT": "2013-03-07",
    "ADY": 29,
    "AVISIT": "WEEK 4",
    "AVISITN": 4,
    "ABLFL": "",
    "ANL01FL": "Y",
    "SAFFL": "Y"
  },
  {
    "STUDYID": "CDISCPILOT01",
    "USUBJID": "01-701-005",
    "TRTP": "Placebo",
    "TRTPN": 0,
    "PARAMCD": "RESP",
    "PARAM": "Respiratory Rate ( breaths/min )",
    "AVAL": 18.4,
    "BASE": 17.7,
    "CHG": 0.7,
    "PCHG": 3.9548,
    "ADT": "2013-02-07",
    "ADY": 1,
    "AVISIT": "BASELINE",
    "AVISITN": 2,
    "ABLFL": "",
    "ANL01FL": "Y",
    "SAFFL": "Y"
  },
  {
    "STUDYID": "CDISCPILOT01",
    "USUBJID": "01-701-005",
    "TRTP": "Placebo",
    "TRTPN": 0,
    "PARAMCD": "RESP",
    "PARAM": "Respiratory Rate ( breaths/min )",
    "AVAL": 17.8,
    "BASE": 17.7,
    "CHG": 0.1,
    "PCHG": 0.565,
    "ADT": "2013-05-02",
    "ADY": 85,
    "AVISIT": "WEEK 12",
    "AVISITN": 6,
    "ABLFL": "",
    "ANL01FL": "Y",
    "SAFFL": "Y"
  },
  {
    "STUDYID": "CDISCPILOT01",
    "USUBJID": "01-701-005",
    "TRTP": "Placebo",
    "TRTPN": 0,
    "PARAMCD": "RESP",
    "PARAM": "Respiratory Rate ( breaths/min )",
    "AVAL": 17.7,
    "BASE": 17.7,
    "CHG": 0,
    "PCHG": 0,
    "ADT": "2013-01-30",
    "ADY": -8,
    "AVISIT": "SCREENING",
    "AVISITN": 1,
    "ABLFL": "Y",
    "ANL01FL": "Y",
    "SAFFL": "Y"
  },
  {
    "STUDYID": "CDISCPILOT01",
    "USUBJID": "01-701-005",
    "TRTP": "Placebo",
    "TRTPN": 0,
    "PARAMCD": "RESP",
    "PARAM": "Respiratory Rate ( breaths/min )",
    "AVAL": 17.9,
    "BASE": 17.7,
    "CHG": 0.2,
    "PCHG": 1.1299,
    "ADT": "2013-02-23",
    "ADY": 17,
    "AVISIT": "WEEK 2",
    "AVISITN": 3,
    "ABLFL": "",
    "ANL01FL": "Y",
    "SAFFL": "Y"
  },
  {
    "STUDYID": "CDISCPILOT01",
    "USUBJID": "01-701-005",
    "TRTP": "Placebo",
    "TRTPN": 0,
    "PARAMCD": "RESP",
    "PARAM": "Respiratory Rate ( breaths/min )",
    "AVAL": 17.7,
    "BASE": 17.7,
    "CHG": 0,
    "PCHG": 0,
    "ADT": "2013-05-30",
    "ADY": 113,
    "AVISIT": "WEEK 16",
    "AVISITN": 7,
    "ABLFL": "",
    "ANL01FL": "Y",
    "SAFFL": "Y"
  },
  {
    "STUDYID": "CDISCPILOT01",
    "USUBJID": "01-701-005",
    "TRTP": "Placebo",
    "TRTPN": 0,
    "PARAMCD": "RESP",
    "PARAM": "Respiratory Rate ( breaths/min )",
    "AVAL": 17.7,
    "BASE": 17.7,
    "CHG": 0,
    "PCHG": 0,
    "ADT": "2013-07-26",
    "ADY": 170,
    "AVISIT": "WEEK 24",
    "AVISITN": 9,
    "ABLFL": "",
    "ANL01FL": "Y",
    "SAFFL": "Y"
  },
  {
    "STUDYID": "CDISCPILOT01",
    "USUBJID": "01-701-005",
    "TRTP": "Placebo",
    "TRTPN": 0,
    "PARAMCD": "SYSBP",
    "PARAM": "Systolic Blood Pressure ( mmHg )",
    "AVAL": 104.7,
    "BASE": 107.5,
    "CHG": -2.8,
    "PCHG": -2.6047,
    "ADT": "2013-07-26",
    "ADY": 170,
    "AVISIT": "WEEK 24",
    "AVISITN": 9,
    "ABLFL": "",
    "ANL01FL": "Y",
    "SAFFL": "Y"
  },
  {
    "STUDYID": "CDISCPILOT01",
    "USUBJID": "01-701-005",
    "TRTP": "Placebo",
    "TRTPN": 0,
    "PARAMCD": "SYSBP",
    "PARAM": "Systolic Blood Pressure ( mmHg )",
    "AVAL": 107.5,
    "BASE": 107.5,
    "CHG": 0,
    "PCHG": 0,
    "ADT": "2013-06-28",
    "ADY": 142,
    "AVISIT": "WEEK 20",
    "AVISITN": 8,
    "ABLFL": "",
    "ANL01FL": "Y",
    "SAFFL": "Y"
  },
  {
    "STUDYID": "CDISCPILOT01",
    "USUBJID": "01-701-005",
    "TRTP": "Placebo",
    "TRTPN": 0,
    "PARAMCD": "SYSBP",
    "PARAM": "Systolic Blood Pressure ( mmHg )",
    "AVAL": 112.4,
    "BASE": 107.5,
    "CHG": 4.9,
    "PCHG": 4.5581,
    "ADT": "2013-05-02",
    "ADY": 85,
    "AVISIT": "WEEK 12",
    "AVISITN": 6,
    "ABLFL": "",
    "ANL01FL": "Y",
    "SAFFL": "Y"
  },
  {
    "STUDYID": "CDISCPILOT01",
    "USUBJID": "01-701-005",
    "TRTP": "Placebo",
    "TRTPN": 0,
    "PARAMCD": "SYSBP",
    "PARAM": "Systolic Blood Pressure ( mmHg )",
    "AVAL": 105.9,
    "BASE": 107.5,
    "CHG": -1.6,
    "PCHG": -1.4884,
    "ADT": "2013-06-01",
    "ADY": 115,
    "AVISIT": "WEEK 16",
    "AVISITN": 7,
    "ABLFL": "",
    "ANL01FL": "Y",
    "SAFFL": "Y"
  },
  {
    "STUDYID": "CDISCPILOT01",
    "USUBJID": "01-701-005",
    "TRTP": "Placebo",
    "TRTPN": 0,
    "PARAMCD": "SYSBP",
    "PARAM": "Systolic Blood Pressure ( mmHg )",
    "AVAL": 108.6,
    "BASE": 107.5,
    "CHG": 1.1,
    "PCHG": 1.0233,
    "ADT": "2013-04-06",
    "ADY": 59,
    "AVISIT": "WEEK 8",
    "AVISITN": 5,
    "ABLFL": "",
    "ANL01FL": "Y",
    "SAFFL": "Y"
  },
  {
    "STUDYID": "CDISCPILOT01",
    "USUBJID": "01-701-005",
    "TRTP": "Placebo",
    "TRTPN": 0,
    "PARAMCD": "SYSBP",
    "PARAM": "Systolic Blood Pressure ( mmHg )",
    "AVAL": 110.6,
    "BASE": 107.5,
    "CHG": 3.1,
    "PCHG": 2.8837,
    "ADT": "2013-02-23",
    "ADY": 17,
    "AVISIT": "WEEK 2",
    "AVISITN": 3,
    "ABLFL": "",
    "ANL01FL": "Y",
    "SAFFL": "Y"
  },
  {
    "STUDYID": "CDISCPILOT01",
    "USUBJID": "01-701-005",
    "TRTP": "Placebo",
    "TRTPN": 0,
    "PARAMCD": "SYSBP",
    "PARAM": "Systolic Blood Pressure ( mmHg )",
    "AVAL": 105.7,
    "BASE": 107.5,
    "CHG": -1.8,
    "PCHG": -1.6744,
    "ADT": "2013-03-08",
    "ADY": 30,
    "AVISIT": "WEEK 4",
    "AVISITN": 4,
    "ABLFL": "",
    "ANL01FL": "Y",
    "SAFFL": "Y"
  },
  {
    "STUDYID": "CDISCPILOT01",
    "USUBJID": "01-701-005",
    "TRTP": "Placebo",
    "TRTPN": 0,
    "PARAMCD": "SYSBP",
    "PARAM": "Systolic Blood Pressure ( mmHg )",
    "AVAL": 104.6,
    "BASE": 107.5,
    "CHG": -2.9,
    "PCHG": -2.6977,
    "ADT": "2013-02-09",
    "ADY": 3,
    "AVISIT": "BASELINE",
    "AVISITN": 2,
    "ABLFL": "",
    "ANL01FL": "Y",
    "SAFFL": "Y"
  },
  {
    "STUDYID": "CDISCPILOT01",
    "USUBJID": "01-701-005",
    "TRTP": "Placebo",
    "TRTPN": 0,
    "PARAMCD": "SYSBP",
    "PARAM": "Systolic Blood Pressure ( mmHg )",
    "AVAL": 107.5,
    "BASE": 107.5,
    "CHG": 0,
    "PCHG": 0,
    "ADT": "2013-01-30",
    "ADY": -8,
    "AVISIT": "SCREENING",
    "AVISITN": 1,
    "ABLFL": "Y",
    "ANL01FL": "Y",
    "SAFFL": "Y"
  },
  {
    "STUDYID": "CDISCPILOT01",
    "USUBJID": "01-701-005",
    "TRTP": "Placebo",
    "TRTPN": 0,
    "PARAMCD": "TEMP",
    "PARAM": "Temperature ( C )",
    "AVAL": 36.8,
    "BASE": 36.9,
    "CHG": -0.1,
    "PCHG": -0.271,
    "ADT": "2013-07-26",
    "ADY": 170,
    "AVISIT": "WEEK 24",
    "AVISITN": 9,
    "ABLFL": "",
    "ANL01FL": "Y",
    "SAFFL": "Y"
  },
  {
    "STUDYID": "CDISCPILOT01",
    "USUBJID": "01-701-005",
    "TRTP": "Placebo",
    "TRTPN": 0,
    "PARAMCD": "TEMP",
    "PARAM": "Temperature ( C )",
    "AVAL": 36.9,
    "BASE": 36.9,
    "CHG": 0,
    "PCHG": 0,
    "ADT": "2013-04-06",
    "ADY": 59,
    "AVISIT": "WEEK 8",
    "AVISITN": 5,
    "ABLFL": "",
    "ANL01FL": "Y",
    "SAFFL": "Y"
  },
  {
    "STUDYID": "CDISCPILOT01",
    "USUBJID": "01-701-005",
    "TRTP": "Placebo",
    "TRTPN": 0,
    "PARAMCD": "TEMP",
    "PARAM": "Temperature ( C )",
    "AVAL": 36.9,
    "BASE": 36.9,
    "CHG": 0,
    "PCHG": 0,
    "ADT": "2013-05-02",
    "ADY": 85,
    "AVISIT": "WEEK 12",
    "AVISITN": 6,
    "ABLFL": "",
    "ANL01FL": "Y",
    "SAFFL": "Y"
  },
  {
    "STUDYID": "CDISCPILOT01",
    "USUBJID": "01-701-005",
    "TRTP": "Placebo",
    "TRTPN": 0,
    "PARAMCD": "TEMP",
    "PARAM": "Temperature ( C )",
    "AVAL": 36.9,
    "BASE": 36.9,
    "CHG": 0,
    "PCHG": 0,
    "ADT": "2013-05-31",
    "ADY": 114,
    "AVISIT": "WEEK 16",
    "AVISITN": 7,
    "ABLFL": "",
    "ANL01FL": "Y",
    "SAFFL": "Y"
  },
  {
    "STUDYID": "CDISCPILOT01",
    "USUBJID": "01-701-005",
    "TRTP": "Placebo",
    "TRTPN": 0,
    "PARAMCD": "TEMP",
    "PARAM": "Temperature ( C )",
    "AVAL": 36.9,
    "BASE": 36.9,
    "CHG": 0,
    "PCHG": 0,
    "ADT": "2013-01-31",
    "ADY": -7,
    "AVISIT": "SCREENING",
    "AVISITN": 1,
    "ABLFL": "Y",
    "ANL01FL": "Y",
    "SAFFL": "Y"
  },
  {
    "STUDYID": "CDISCPILOT01",
    "USUBJID": "01-701-005",
    "TRTP": "Placebo",
    "TRTPN": 0,
    "PARAMCD": "TEMP",
    "PARAM": "Temperature ( C )",
    "AVAL": 36.9,
    "BASE": 36.9,
    "CHG": 0,
    "PCHG": 0,
    "ADT": "2013-06-29",
    "ADY": 143,
    "AVISIT": "WEEK 20",
    "AVISITN": 8,
    "ABLFL": "",
    "ANL01FL": "Y",
    "SAFFL": "Y"
  },
  {
    "STUDYID": "CDISCPILOT01",
    "USUBJID": "01-701-005",
    "TRTP": "Placebo",
    "TRTPN": 0,
    "PARAMCD": "TEMP",
    "PARAM": "Temperature ( C )",
    "AVAL": 36.9,
    "BASE": 36.9,
    "CHG": 0,
    "PCHG": 0,
    "ADT": "2013-03-08",
    "ADY": 30,
    "AVISIT": "WEEK 4",
    "AVISITN": 4,
    "ABLFL": "",
    "ANL01FL": "Y",
    "SAFFL": "Y"
  },
  {
    "STUDYID": "CDISCPILOT01",
    "USUBJID": "01-701-005",
    "TRTP": "Placebo",
    "TRTPN": 0,
    "PARAMCD": "TEMP",
    "PARAM": "Temperature ( C )",
    "AVAL": 37.1,
    "BASE": 36.9,
    "CHG": 0.2,
    "PCHG": 0.542,
    "ADT": "2013-02-08",
    "ADY": 2,
    "AVISIT": "BASELINE",
    "AVISITN": 2,
    "ABLFL": "",
    "ANL01FL": "Y",
    "SAFFL": "Y"
  },
  {
    "STUDYID": "CDISCPILOT01",
    "USUBJID": "01-701-005",
    "TRTP": "Placebo",
    "TRTPN": 0,
    "PARAMCD": "TEMP",
    "PARAM": "Temperature ( C )",
    "AVAL": 36.8,
    "BASE": 36.9,
    "CHG": -0.1,
    "PCHG": -0.271,
    "ADT": "2013-02-22",
    "ADY": 16,
    "AVISIT": "WEEK 2",
    "AVISITN": 3,
    "ABLFL": "",
    "ANL01FL": "Y",
    "SAFFL": "Y"
  },
  {
    "STUDYID": "CDISCPILOT01",
    "USUBJID": "01-701-005",
    "TRTP": "Placebo",
    "TRTPN": 0,
    "PARAMCD": "WEIGHT",
    "PARAM": "Weight ( kg )",
    "AVAL": 70.6,
    "BASE": 70.6,
    "CHG": 0,
    "PCHG": 0,
    "ADT": "2013-01-30",
    "ADY": -8,
    "AVISIT": "SCREENING",
    "AVISITN": 1,
    "ABLFL": "Y",
    "ANL01FL": "Y",
    "SAFFL": "Y"
  },
  {
    "STUDYID": "CDISCPILOT01",
    "USUBJID": "01-701-005",
    "TRTP": "Placebo",
    "TRTPN": 0,
    "PARAMCD": "WEIGHT",
    "PARAM": "Weight ( kg )",
    "AVAL": 70,
    "BASE": 70.6,
    "CHG": -0.6,
    "PCHG": -0.8499,
    "ADT": "2013-02-21",
    "ADY": 15,
    "AVISIT": "WEEK 2",
    "AVISITN": 3,
    "ABLFL": "",
    "ANL01FL": "Y",
    "SAFFL": "Y"
  },
  {
    "STUDYID": "CDISCPILOT01",
    "USUBJID": "01-701-005",
    "TRTP": "Placebo",
    "TRTPN": 0,
    "PARAMCD": "WEIGHT",
    "PARAM": "Weight ( kg )",
    "AVAL": 69.2,
    "BASE": 70.6,
    "CHG": -1.4,
    "PCHG": -1.983,
    "ADT": "2013-05-30",
    "ADY": 113,
    "AVISIT": "WEEK 16",
    "AVISITN": 7,
    "ABLFL": "",
    "ANL01FL": "Y",
    "SAFFL": "Y"
  },
  {
    "STUDYID": "CDISCPILOT01",
    "USUBJID": "01-701-005",
    "TRTP": "Placebo",
    "TRTPN": 0,
    "PARAMCD": "WEIGHT",
    "PARAM": "Weight ( kg )",
    "AVAL": 70.3,
    "BASE": 70.6,
    "CHG": -0.3,
    "PCHG": -0.4249,
    "ADT": "2013-07-26",
    "ADY": 170,
    "AVISIT": "WEEK 24",
    "AVISITN": 9,
    "ABLFL": "",
    "ANL01FL": "Y",
    "SAFFL": "Y"
  },
  {
    "STUDYID": "CDISCPILOT01",
    "USUBJID": "01-701-005",
    "TRTP": "Placebo",
    "TRTPN": 0,
    "PARAMCD": "WEIGHT",
    "PARAM": "Weight ( kg )",
    "AVAL": 70.4,
    "BASE": 70.6,
    "CHG": -0.2,
    "PCHG": -0.2833,
    "ADT": "2013-03-08",
    "ADY": 30,
    "AVISIT": "WEEK 4",
    "AVISITN": 4,
    "ABLFL": "",
    "ANL01FL": "Y",
    "SAFFL": "Y"
  },
  {
    "STUDYID": "CDISCPILOT01",
    "USUBJID": "01-701-005",
    "TRTP": "Placebo",
    "TRTPN": 0,
    "PARAMCD": "WEIGHT",
    "PARAM": "Weight ( kg )",
    "AVAL": 70.2,
    "BASE": 70.6,
    "CHG": -0.4,
    "PCHG": -0.5666,
    "ADT": "2013-06-29",
    "ADY": 143,
    "AVISIT": "WEEK 20",
    "AVISITN": 8,
    "ABLFL": "",
    "ANL01FL": "Y",
    "SAFFL": "Y"
  },
  {
    "STUDYID": "CDISCPILOT01",
    "USUBJID": "01-701-005",
    "TRTP": "Placebo",
    "TRTPN": 0,
    "PARAMCD": "WEIGHT",
    "PARAM": "Weight ( kg )",
    "AVAL": 69.7,
    "BASE": 70.6,
    "CHG": -0.9,
    "PCHG": -1.2748,
    "ADT": "2013-05-03",
    "ADY": 86,
    "AVISIT": "WEEK 12",
    "AVISITN": 6,
    "ABLFL": "",
    "ANL01FL": "Y",
    "SAFFL": "Y"
  },
  {
    "STUDYID": "CDISCPILOT01",
    "USUBJID": "01-701-005",
    "TRTP": "Placebo",
    "TRTPN": 0,
    "PARAMCD": "WEIGHT",
    "PARAM": "Weight ( kg )",
    "AVAL": 71,
    "BASE": 70.6,
    "CHG": 0.4,
    "PCHG": 0.5666,
    "ADT": "2013-02-07",
    "ADY": 1,
    "AVISIT": "BASELINE",
    "AVISITN": 2,
    "ABLFL": "",
    "ANL01FL": "Y",
    "SAFFL": "Y"
  },
  {
    "STUDYID": "CDISCPILOT01",
    "USUBJID": "01-701-005",
    "TRTP": "Placebo",
    "TRTPN": 0,
    "PARAMCD": "WEIGHT",
    "PARAM": "Weight ( kg )",
    "AVAL": 70.5,
    "BASE": 70.6,
    "CHG": -0.1,
    "PCHG": -0.1416,
    "ADT": "2013-04-06",
    "ADY": 59,
    "AVISIT": "WEEK 8",
    "AVISITN": 5,
    "ABLFL": "",
    "ANL01FL": "Y",
    "SAFFL": "Y"
  },
  {
    "STUDYID": "CDISCPILOT01",
    "USUBJID": "01-701-006",
    "TRTP": "Placebo",
    "TRTPN": 0,
    "PARAMCD": "DIABP",
    "PARAM": "Diastolic Blood Pressure ( mmHg )",
    "AVAL": 88.5,
    "BASE": 86.9,
    "CHG": 1.6,
    "PCHG": 1.8412,
    "ADT": "2013-10-16",
    "ADY": 112,
    "AVISIT": "WEEK 16",
    "AVISITN": 7,
    "ABLFL": "",
    "ANL01FL": "Y",
    "SAFFL": "Y"
  },
  {
    "STUDYID": "CDISCPILOT01",
    "USUBJID": "01-701-006",
    "TRTP": "Placebo",
    "TRTPN": 0,
    "PARAMCD": "DIABP",
    "PARAM": "Diastolic Blood Pressure ( mmHg )",
    "AVAL": 89,
    "BASE": 86.9,
    "CHG": 2.1,
    "PCHG": 2.4166,
    "ADT": "2013-11-15",
    "ADY": 142,
    "AVISIT": "WEEK 20",
    "AVISITN": 8,
    "ABLFL": "",
    "ANL01FL": "Y",
    "SAFFL": "Y"
  },
  {
    "STUDYID": "CDISCPILOT01",
    "USUBJID": "01-701-006",
    "TRTP": "Placebo",
    "TRTPN": 0,
    "PARAMCD": "DIABP",
    "PARAM": "Diastolic Blood Pressure ( mmHg )",
    "AVAL": 85.4,
    "BASE": 86.9,
    "CHG": -1.5,
    "PCHG": -1.7261,
    "ADT": "2013-09-20",
    "ADY": 86,
    "AVISIT": "WEEK 12",
    "AVISITN": 6,
    "ABLFL": "",
    "ANL01FL": "Y",
    "SAFFL": "Y"
  },
  {
    "STUDYID": "CDISCPILOT01",
    "USUBJID": "01-701-006",
    "TRTP": "Placebo",
    "TRTPN": 0,
    "PARAMCD": "DIABP",
    "PARAM": "Diastolic Blood Pressure ( mmHg )",
    "AVAL": 89.5,
    "BASE": 86.9,
    "CHG": 2.6,
    "PCHG": 2.9919,
    "ADT": "2013-06-27",
    "ADY": 1,
    "AVISIT": "BASELINE",
    "AVISITN": 2,
    "ABLFL": "",
    "ANL01FL": "Y",
    "SAFFL": "Y"
  },
  {
    "STUDYID": "CDISCPILOT01",
    "USUBJID": "01-701-006",
    "TRTP": "Placebo",
    "TRTPN": 0,
    "PARAMCD": "DIABP",
    "PARAM": "Diastolic Blood Pressure ( mmHg )",
    "AVAL": 86,
    "BASE": 86.9,
    "CHG": -0.9,
    "PCHG": -1.0357,
    "ADT": "2013-12-13",
    "ADY": 170,
    "AVISIT": "WEEK 24",
    "AVISITN": 9,
    "ABLFL": "",
    "ANL01FL": "Y",
    "SAFFL": "Y"
  },
  {
    "STUDYID": "CDISCPILOT01",
    "USUBJID": "01-701-006",
    "TRTP": "Placebo",
    "TRTPN": 0,
    "PARAMCD": "DIABP",
    "PARAM": "Diastolic Blood Pressure ( mmHg )",
    "AVAL": 86.4,
    "BASE": 86.9,
    "CHG": -0.5,
    "PCHG": -0.5754,
    "ADT": "2013-07-10",
    "ADY": 14,
    "AVISIT": "WEEK 2",
    "AVISITN": 3,
    "ABLFL": "",
    "ANL01FL": "Y",
    "SAFFL": "Y"
  },
  {
    "STUDYID": "CDISCPILOT01",
    "USUBJID": "01-701-006",
    "TRTP": "Placebo",
    "TRTPN": 0,
    "PARAMCD": "DIABP",
    "PARAM": "Diastolic Blood Pressure ( mmHg )",
    "AVAL": 86.2,
    "BASE": 86.9,
    "CHG": -0.7,
    "PCHG": -0.8055,
    "ADT": "2013-07-25",
    "ADY": 29,
    "AVISIT": "WEEK 4",
    "AVISITN": 4,
    "ABLFL": "",
    "ANL01FL": "Y",
    "SAFFL": "Y"
  },
  {
    "STUDYID": "CDISCPILOT01",
    "USUBJID": "01-701-006",
    "TRTP": "Placebo",
    "TRTPN": 0,
    "PARAMCD": "DIABP",
    "PARAM": "Diastolic Blood Pressure ( mmHg )",
    "AVAL": 87.7,
    "BASE": 86.9,
    "CHG": 0.8,
    "PCHG": 0.9206,
    "ADT": "2013-08-21",
    "ADY": 56,
    "AVISIT": "WEEK 8",
    "AVISITN": 5,
    "ABLFL": "",
    "ANL01FL": "Y",
    "SAFFL": "Y"
  },
  {
    "STUDYID": "CDISCPILOT01",
    "USUBJID": "01-701-006",
    "TRTP": "Placebo",
    "TRTPN": 0,
    "PARAMCD": "DIABP",
    "PARAM": "Diastolic Blood Pressure ( mmHg )",
    "AVAL": 86.9,
    "BASE": 86.9,
    "CHG": 0,
    "PCHG": 0,
    "ADT": "2013-06-20",
    "ADY": -7,
    "AVISIT": "SCREENING",
    "AVISITN": 1,
    "ABLFL": "Y",
    "ANL01FL": "Y",
    "SAFFL": "Y"
  },
  {
    "STUDYID": "CDISCPILOT01",
    "USUBJID": "01-701-006",
    "TRTP": "Placebo",
    "TRTPN": 0,
    "PARAMCD": "HEIGHT",
    "PARAM": "Height ( cm )",
    "AVAL": 160.7,
    "BASE": 160.7,
    "CHG": 0,
    "PCHG": 0,
    "ADT": "2013-12-13",
    "ADY": 170,
    "AVISIT": "WEEK 24",
    "AVISITN": 9,
    "ABLFL": "",
    "ANL01FL": "Y",
    "SAFFL": "Y"
  },
  {
    "STUDYID": "CDISCPILOT01",
    "USUBJID": "01-701-006",
    "TRTP": "Placebo",
    "TRTPN": 0,
    "PARAMCD": "HEIGHT",
    "PARAM": "Height ( cm )",
    "AVAL": 160.7,
    "BASE": 160.7,
    "CHG": 0,
    "PCHG": 0,
    "ADT": "2013-06-26",
    "ADY": -1,
    "AVISIT": "BASELINE",
    "AVISITN": 2,
    "ABLFL": "",
    "ANL01FL": "Y",
    "SAFFL": "Y"
  },
  {
    "STUDYID": "CDISCPILOT01",
    "USUBJID": "01-701-006",
    "TRTP": "Placebo",
    "TRTPN": 0,
    "PARAMCD": "HEIGHT",
    "PARAM": "Height ( cm )",
    "AVAL": 160.7,
    "BASE": 160.7,
    "CHG": 0,
    "PCHG": 0,
    "ADT": "2013-11-13",
    "ADY": 140,
    "AVISIT": "WEEK 20",
    "AVISITN": 8,
    "ABLFL": "",
    "ANL01FL": "Y",
    "SAFFL": "Y"
  },
  {
    "STUDYID": "CDISCPILOT01",
    "USUBJID": "01-701-006",
    "TRTP": "Placebo",
    "TRTPN": 0,
    "PARAMCD": "HEIGHT",
    "PARAM": "Height ( cm )",
    "AVAL": 160.7,
    "BASE": 160.7,
    "CHG": 0,
    "PCHG": 0,
    "ADT": "2013-10-17",
    "ADY": 113,
    "AVISIT": "WEEK 16",
    "AVISITN": 7,
    "ABLFL": "",
    "ANL01FL": "Y",
    "SAFFL": "Y"
  },
  {
    "STUDYID": "CDISCPILOT01",
    "USUBJID": "01-701-006",
    "TRTP": "Placebo",
    "TRTPN": 0,
    "PARAMCD": "HEIGHT",
    "PARAM": "Height ( cm )",
    "AVAL": 160.7,
    "BASE": 160.7,
    "CHG": 0,
    "PCHG": 0,
    "ADT": "2013-08-21",
    "ADY": 56,
    "AVISIT": "WEEK 8",
    "AVISITN": 5,
    "ABLFL": "",
    "ANL01FL": "Y",
    "SAFFL": "Y"
  },
  {
    "STUDYID": "CDISCPILOT01",
    "USUBJID": "01-701-006",
    "TRTP": "Placebo",
    "TRTPN": 0,
    "PARAMCD": "HEIGHT",
    "PARAM": "Height ( cm )",
    "AVAL": 160.7,
    "BASE": 160.7,
    "CHG": 0,
    "PCHG": 0,
    "ADT": "2013-06-19",
    "ADY": -8,
    "AVISIT": "SCREENING",
    "AVISITN": 1,
    "ABLFL": "Y",
    "ANL01FL": "Y",
    "SAFFL": "Y"
  },
  {
    "STUDYID": "CDISCPILOT01",
    "USUBJID": "01-701-006",
    "TRTP": "Placebo",
    "TRTPN": 0,
    "PARAMCD": "HEIGHT",
    "PARAM": "Height ( cm )",
    "AVAL": 160.7,
    "BASE": 160.7,
    "CHG": 0,
    "PCHG": 0,
    "ADT": "2013-09-19",
    "ADY": 85,
    "AVISIT": "WEEK 12",
    "AVISITN": 6,
    "ABLFL": "",
    "ANL01FL": "Y",
    "SAFFL": "Y"
  },
  {
    "STUDYID": "CDISCPILOT01",
    "USUBJID": "01-701-006",
    "TRTP": "Placebo",
    "TRTPN": 0,
    "PARAMCD": "HEIGHT",
    "PARAM": "Height ( cm )",
    "AVAL": 160.7,
    "BASE": 160.7,
    "CHG": 0,
    "PCHG": 0,
    "ADT": "2013-07-11",
    "ADY": 15,
    "AVISIT": "WEEK 2",
    "AVISITN": 3,
    "ABLFL": "",
    "ANL01FL": "Y",
    "SAFFL": "Y"
  },
  {
    "STUDYID": "CDISCPILOT01",
    "USUBJID": "01-701-006",
    "TRTP": "Placebo",
    "TRTPN": 0,
    "PARAMCD": "HEIGHT",
    "PARAM": "Height ( cm )",
    "AVAL": 160.7,
    "BASE": 160.7,
    "CHG": 0,
    "PCHG": 0,
    "ADT": "2013-07-25",
    "ADY": 29,
    "AVISIT": "WEEK 4",
    "AVISITN": 4,
    "ABLFL": "",
    "ANL01FL": "Y",
    "SAFFL": "Y"
  },
  {
    "STUDYID": "CDISCPILOT01",
    "USUBJID": "01-701-006",
    "TRTP": "Placebo",
    "TRTPN": 0,
    "PARAMCD": "PULSE",
    "PARAM": "Pulse Rate ( beats/min )",
    "AVAL": 83.3,
    "BASE": 80.6,
    "CHG": 2.7,
    "PCHG": 3.3499,
    "ADT": "2013-09-20",
    "ADY": 86,
    "AVISIT": "WEEK 12",
    "AVISITN": 6,
    "ABLFL": "",
    "ANL01FL": "Y",
    "SAFFL": "Y"
  },
  {
    "STUDYID": "CDISCPILOT01",
    "USUBJID": "01-701-006",
    "TRTP": "Placebo",
    "TRTPN": 0,
    "PARAMCD": "PULSE",
    "PARAM": "Pulse Rate ( beats/min )",
    "AVAL": 80.9,
    "BASE": 80.6,
    "CHG": 0.3,
    "PCHG": 0.3722,
    "ADT": "2013-10-18",
    "ADY": 114,
    "AVISIT": "WEEK 16",
    "AVISITN": 7,
    "ABLFL": "",
    "ANL01FL": "Y",
    "SAFFL": "Y"
  },
  {
    "STUDYID": "CDISCPILOT01",
    "USUBJID": "01-701-006",
    "TRTP": "Placebo",
    "TRTPN": 0,
    "PARAMCD": "PULSE",
    "PARAM": "Pulse Rate ( beats/min )",
    "AVAL": 79.7,
    "BASE": 80.6,
    "CHG": -0.9,
    "PCHG": -1.1166,
    "ADT": "2013-07-24",
    "ADY": 28,
    "AVISIT": "WEEK 4",
    "AVISITN": 4,
    "ABLFL": "",
    "ANL01FL": "Y",
    "SAFFL": "Y"
  },
  {
    "STUDYID": "CDISCPILOT01",
    "USUBJID": "01-701-006",
    "TRTP": "Placebo",
    "TRTPN": 0,
    "PARAMCD": "PULSE",
    "PARAM": "Pulse Rate ( beats/min )",
    "AVAL": 80.6,
    "BASE": 80.6,
    "CHG": 0,
    "PCHG": 0,
    "ADT": "2013-12-12",
    "ADY": 169,
    "AVISIT": "WEEK 24",
    "AVISITN": 9,
    "ABLFL": "",
    "ANL01FL": "Y",
    "SAFFL": "Y"
  },
  {
    "STUDYID": "CDISCPILOT01",
    "USUBJID": "01-701-006",
    "TRTP": "Placebo",
    "TRTPN": 0,
    "PARAMCD": "PULSE",
    "PARAM": "Pulse Rate ( beats/min )",
    "AVAL": 82.3,
    "BASE": 80.6,
    "CHG": 1.7,
    "PCHG": 2.1092,
    "ADT": "2013-08-23",
    "ADY": 58,
    "AVISIT": "WEEK 8",
    "AVISITN": 5,
    "ABLFL": "",
    "ANL01FL": "Y",
    "SAFFL": "Y"
  },
  {
    "STUDYID": "CDISCPILOT01",
    "USUBJID": "01-701-006",
    "TRTP": "Placebo",
    "TRTPN": 0,
    "PARAMCD": "PULSE",
    "PARAM": "Pulse Rate ( beats/min )",
    "AVAL": 80.1,
    "BASE": 80.6,
    "CHG": -0.5,
    "PCHG": -0.6203,
    "ADT": "2013-07-12",
    "ADY": 16,
    "AVISIT": "WEEK 2",
    "AVISITN": 3,
    "ABLFL": "",
    "ANL01FL": "Y",
    "SAFFL": "Y"
  },
  {
    "STUDYID": "CDISCPILOT01",
    "USUBJID": "01-701-006",
    "TRTP": "Placebo",
    "TRTPN": 0,
    "PARAMCD": "PULSE",
    "PARAM": "Pulse Rate ( beats/min )",
    "AVAL": 79.7,
    "BASE": 80.6,
    "CHG": -0.9,
    "PCHG": -1.1166,
    "ADT": "2013-06-27",
    "ADY": 1,
    "AVISIT": "BASELINE",
    "AVISITN": 2,
    "ABLFL": "",
    "ANL01FL": "Y",
    "SAFFL": "Y"
  },
  {
    "STUDYID": "CDISCPILOT01",
    "USUBJID": "01-701-006",
    "TRTP": "Placebo",
    "TRTPN": 0,
    "PARAMCD": "PULSE",
    "PARAM": "Pulse Rate ( beats/min )",
    "AVAL": 79.8,
    "BASE": 80.6,
    "CHG": -0.8,
    "PCHG": -0.9926,
    "ADT": "2013-11-14",
    "ADY": 141,
    "AVISIT": "WEEK 20",
    "AVISITN": 8,
    "ABLFL": "",
    "ANL01FL": "Y",
    "SAFFL": "Y"
  },
  {
    "STUDYID": "CDISCPILOT01",
    "USUBJID": "01-701-006",
    "TRTP": "Placebo",
    "TRTPN": 0,
    "PARAMCD": "PULSE",
    "PARAM": "Pulse Rate ( beats/min )",
    "AVAL": 80.6,
    "BASE": 80.6,
    "CHG": 0,
    "PCHG": 0,
    "ADT": "2013-06-20",
    "ADY": -7,
    "AVISIT": "SCREENING",
    "AVISITN": 1,
    "ABLFL": "Y",
    "ANL01FL": "Y",
    "SAFFL": "Y"
  },
  {
    "STUDYID": "CDISCPILOT01",
    "USUBJID": "01-701-006",
    "TRTP": "Placebo",
    "TRTPN": 0,
    "PARAMCD": "RESP",
    "PARAM": "Respiratory Rate ( breaths/min )",
    "AVAL": 16.2,
    "BASE": 16.1,
    "CHG": 0.1,
    "PCHG": 0.6211,
    "ADT": "2013-08-22",
    "ADY": 57,
    "AVISIT": "WEEK 8",
    "AVISITN": 5,
    "ABLFL": "",
    "ANL01FL": "Y",
    "SAFFL": "Y"
  },
  {
    "STUDYID": "CDISCPILOT01",
    "USUBJID": "01-701-006",
    "TRTP": "Placebo",
    "TRTPN": 0,
    "PARAMCD": "RESP",
    "PARAM": "Respiratory Rate ( breaths/min )",
    "AVAL": 15.9,
    "BASE": 16.1,
    "CHG": -0.2,
    "PCHG": -1.2422,
    "ADT": "2013-11-14",
    "ADY": 141,
    "AVISIT": "WEEK 20",
    "AVISITN": 8,
    "ABLFL": "",
    "ANL01FL": "Y",
    "SAFFL": "Y"
  },
  {
    "STUDYID": "CDISCPILOT01",
    "USUBJID": "01-701-006",
    "TRTP": "Placebo",
    "TRTPN": 0,
    "PARAMCD": "RESP",
    "PARAM": "Respiratory Rate ( breaths/min )",
    "AVAL": 16.3,
    "BASE": 16.1,
    "CHG": 0.2,
    "PCHG": 1.2422,
    "ADT": "2013-07-25",
    "ADY": 29,
    "AVISIT": "WEEK 4",
    "AVISITN": 4,
    "ABLFL": "",
    "ANL01FL": "Y",
    "SAFFL": "Y"
  },
  {
    "STUDYID": "CDISCPILOT01",
    "USUBJID": "01-701-006",
    "TRTP": "Placebo",
    "TRTPN": 0,
    "PARAMCD": "RESP",
    "PARAM": "Respiratory Rate ( breaths/min )",
    "AVAL": 17.1,
    "BASE": 16.1,
    "CHG": 1,
    "PCHG": 6.2112,
    "ADT": "2013-06-27",
    "ADY": 1,
    "AVISIT": "BASELINE",
    "AVISITN": 2,
    "ABLFL": "",
    "ANL01FL": "Y",
    "SAFFL": "Y"
  },
  {
    "STUDYID": "CDISCPILOT01",
    "USUBJID": "01-701-006",
    "TRTP": "Placebo",
    "TRTPN": 0,
    "PARAMCD": "RESP",
    "PARAM": "Respiratory Rate ( breaths/min )",
    "AVAL": 15.6,
    "BASE": 16.1,
    "CHG": -0.5,
    "PCHG": -3.1056,
    "ADT": "2013-09-18",
    "ADY": 84,
    "AVISIT": "WEEK 12",
    "AVISITN": 6,
    "ABLFL": "",
    "ANL01FL": "Y",
    "SAFFL": "Y"
  },
  {
    "STUDYID": "CDISCPILOT01",
    "USUBJID": "01-701-006",
    "TRTP": "Placebo",
    "TRTPN": 0,
    "PARAMCD": "RESP",
    "PARAM": "Respiratory Rate ( breaths/min )",
    "AVAL": 16.1,
    "BASE": 16.1,
    "CHG": 0,
    "PCHG": 0,
    "ADT": "2013-06-19",
    "ADY": -8,
    "AVISIT": "SCREENING",
    "AVISITN": 1,
    "ABLFL": "Y",
    "ANL01FL": "Y",
    "SAFFL": "Y"
  },
  {
    "STUDYID": "CDISCPILOT01",
    "USUBJID": "01-701-006",
    "TRTP": "Placebo",
    "TRTPN": 0,
    "PARAMCD": "RESP",
    "PARAM": "Respiratory Rate ( breaths/min )",
    "AVAL": 16.4,
    "BASE": 16.1,
    "CHG": 0.3,
    "PCHG": 1.8634,
    "ADT": "2013-07-10",
    "ADY": 14,
    "AVISIT": "WEEK 2",
    "AVISITN": 3,
    "ABLFL": "",
    "ANL01FL": "Y",
    "SAFFL": "Y"
  },
  {
    "STUDYID": "CDISCPILOT01",
    "USUBJID": "01-701-006",
    "TRTP": "Placebo",
    "TRTPN": 0,
    "PARAMCD": "RESP",
    "PARAM": "Respiratory Rate ( breaths/min )",
    "AVAL": 16.2,
    "BASE": 16.1,
    "CHG": 0.1,
    "PCHG": 0.6211,
    "ADT": "2013-10-17",
    "ADY": 113,
    "AVISIT": "WEEK 16",
    "AVISITN": 7,
    "ABLFL": "",
    "ANL01FL": "Y",
    "SAFFL": "Y"
  },
  {
    "STUDYID": "CDISCPILOT01",
    "USUBJID": "01-701-006",
    "TRTP": "Placebo",
    "TRTPN": 0,
    "PARAMCD": "RESP",
    "PARAM": "Respiratory Rate ( breaths/min )",
    "AVAL": 15.4,
    "BASE": 16.1,
    "CHG": -0.7,
    "PCHG": -4.3478,
    "ADT": "2013-12-12",
    "ADY": 169,
    "AVISIT": "WEEK 24",
    "AVISITN": 9,
    "ABLFL": "",
    "ANL01FL": "Y",
    "SAFFL": "Y"
  },
  {
    "STUDYID": "CDISCPILOT01",
    "USUBJID": "01-701-006",
    "TRTP": "Placebo",
    "TRTPN": 0,
    "PARAMCD": "SYSBP",
    "PARAM": "Systolic Blood Pressure ( mmHg )",
    "AVAL": 127,
    "BASE": 129.7,
    "CHG": -2.7,
    "PCHG": -2.0817,
    "ADT": "2013-12-13",
    "ADY": 170,
    "AVISIT": "WEEK 24",
    "AVISITN": 9,
    "ABLFL": "",
    "ANL01FL": "Y",
    "SAFFL": "Y"
  },
  {
    "STUDYID": "CDISCPILOT01",
    "USUBJID": "01-701-006",
    "TRTP": "Placebo",
    "TRTPN": 0,
    "PARAMCD": "SYSBP",
    "PARAM": "Systolic Blood Pressure ( mmHg )",
    "AVAL": 129.9,
    "BASE": 129.7,
    "CHG": 0.2,
    "PCHG": 0.1542,
    "ADT": "2013-11-13",
    "ADY": 140,
    "AVISIT": "WEEK 20",
    "AVISITN": 8,
    "ABLFL": "",
    "ANL01FL": "Y",
    "SAFFL": "Y"
  },
  {
    "STUDYID": "CDISCPILOT01",
    "USUBJID": "01-701-006",
    "TRTP": "Placebo",
    "TRTPN": 0,
    "PARAMCD": "SYSBP",
    "PARAM": "Systolic Blood Pressure ( mmHg )",
    "AVAL": 129.2,
    "BASE": 129.7,
    "CHG": -0.5,
    "PCHG": -0.3855,
    "ADT": "2013-09-19",
    "ADY": 85,
    "AVISIT": "WEEK 12",
    "AVISITN": 6,
    "ABLFL": "",
    "ANL01FL": "Y",
    "SAFFL": "Y"
  },
  {
    "STUDYID": "CDISCPILOT01",
    "USUBJID": "01-701-006",
    "TRTP": "Placebo",
    "TRTPN": 0,
    "PARAMCD": "SYSBP",
    "PARAM": "Systolic Blood Pressure ( mmHg )",
    "AVAL": 132.4,
    "BASE": 129.7,
    "CHG": 2.7,
    "PCHG": 2.0817,
    "ADT": "2013-10-18",
    "ADY": 114,
    "AVISIT": "WEEK 16",
    "AVISITN": 7,
    "ABLFL": "",
    "ANL01FL": "Y",
    "SAFFL": "Y"
  },
  {
    "STUDYID": "CDISCPILOT01",
    "USUBJID": "01-701-006",
    "TRTP": "Placebo",
    "TRTPN": 0,
    "PARAMCD": "SYSBP",
    "PARAM": "Systolic Blood Pressure ( mmHg )",
    "AVAL": 126.8,
    "BASE": 129.7,
    "CHG": -2.9,
    "PCHG": -2.2359,
    "ADT": "2013-08-22",
    "ADY": 57,
    "AVISIT": "WEEK 8",
    "AVISITN": 5,
    "ABLFL": "",
    "ANL01FL": "Y",
    "SAFFL": "Y"
  },
  {
    "STUDYID": "CDISCPILOT01",
    "USUBJID": "01-701-006",
    "TRTP": "Placebo",
    "TRTPN": 0,
    "PARAMCD": "SYSBP",
    "PARAM": "Systolic Blood Pressure ( mmHg )",
    "AVAL": 130.7,
    "BASE": 129.7,
    "CHG": 1,
    "PCHG": 0.771,
    "ADT": "2013-07-12",
    "ADY": 16,
    "AVISIT": "WEEK 2",
    "AVISITN": 3,
    "ABLFL": "",
    "ANL01FL": "Y",
    "SAFFL": "Y"
  },
  {
    "STUDYID": "CDISCPILOT01",
    "USUBJID": "01-701-006",
    "TRTP": "Placebo",
    "TRTPN": 0,
    "PARAMCD": "SYSBP",
    "PARAM": "Systolic Blood Pressure ( mmHg )",
    "AVAL": 129,
    "BASE": 129.7,
    "CHG": -0.7,
    "PCHG": -0.5397,
    "ADT": "2013-07-25",
    "ADY": 29,
    "AVISIT": "WEEK 4",
    "AVISITN": 4,
    "ABLFL": "",
    "ANL01FL": "Y",
    "SAFFL": "Y"
  },
  {
    "STUDYID": "CDISCPILOT01",
    "USUBJID": "01-701-006",
    "TRTP": "Placebo",
    "TRTPN": 0,
    "PARAMCD": "SYSBP",
    "PARAM": "Systolic Blood Pressure ( mmHg )",
    "AVAL": 128.2,
    "BASE": 129.7,
    "CHG": -1.5,
    "PCHG": -1.1565,
    "ADT": "2013-06-26",
    "ADY": -1,
    "AVISIT": "BASELINE",
    "AVISITN": 2,
    "ABLFL": "",
    "ANL01FL": "Y",
    "SAFFL": "Y"
  },
  {
    "STUDYID": "CDISCPILOT01",
    "USUBJID": "01-701-006",
    "TRTP": "Placebo",
    "TRTPN": 0,
    "PARAMCD": "SYSBP",
    "PARAM": "Systolic Blood Pressure ( mmHg )",
    "AVAL": 129.7,
    "BASE": 129.7,
    "CHG": 0,
    "PCHG": 0,
    "ADT": "2013-06-20",
    "ADY": -7,
    "AVISIT": "SCREENING",
    "AVISITN": 1,
    "ABLFL": "Y",
    "ANL01FL": "Y",
    "SAFFL": "Y"
  },
  {
    "STUDYID": "CDISCPILOT01",
    "USUBJID": "01-701-006",
    "TRTP": "Placebo",
    "TRTPN": 0,
    "PARAMCD": "TEMP",
    "PARAM": "Temperature ( C )",
    "AVAL": 37,
    "BASE": 37,
    "CHG": 0,
    "PCHG": 0,
    "ADT": "2013-12-13",
    "ADY": 170,
    "AVISIT": "WEEK 24",
    "AVISITN": 9,
    "ABLFL": "",
    "ANL01FL": "Y",
    "SAFFL": "Y"
  },
  {
    "STUDYID": "CDISCPILOT01",
    "USUBJID": "01-701-006",
    "TRTP": "Placebo",
    "TRTPN": 0,
    "PARAMCD": "TEMP",
    "PARAM": "Temperature ( C )",
    "AVAL": 37,
    "BASE": 37,
    "CHG": 0,
    "PCHG": 0,
    "ADT": "2013-08-22",
    "ADY": 57,
    "AVISIT": "WEEK 8",
    "AVISITN": 5,
    "ABLFL": "",
    "ANL01FL": "Y",
    "SAFFL": "Y"
  },
  {
    "STUDYID": "CDISCPILOT01",
    "USUBJID": "01-701-006",
    "TRTP": "Placebo",
    "TRTPN": 0,
    "PARAMCD": "TEMP",
    "PARAM": "Temperature ( C )",
    "AVAL": 37,
    "BASE": 37,
    "CHG": 0,
    "PCHG": 0,
    "ADT": "2013-09-19",
    "ADY": 85,
    "AVISIT": "WEEK 12",
    "AVISITN": 6,
    "ABLFL": "",
    "ANL01FL": "Y",
    "SAFFL": "Y"
  },
  {
    "STUDYID": "CDISCPILOT01",
    "USUBJID": "01-701-006",
    "TRTP": "Placebo",
    "TRTPN": 0,
    "PARAMCD": "TEMP",
    "PARAM": "Temperature ( C )",
    "AVAL": 37.1,
    "BASE": 37,
    "CHG": 0.1,
    "PCHG": 0.2703,
    "ADT": "2013-10-18",
    "ADY": 114,
    "AVISIT": "WEEK 16",
    "AVISITN": 7,
    "ABLFL": "",
    "ANL01FL": "Y",
    "SAFFL": "Y"
  },
  {
    "STUDYID": "CDISCPILOT01",
    "USUBJID": "01-701-006",
    "TRTP": "Placebo",
    "TRTPN": 0,
    "PARAMCD": "TEMP",
    "PARAM": "Temperature ( C )",
    "AVAL": 37,
    "BASE": 37,
    "CHG": 0,
    "PCHG": 0,
    "ADT": "2013-06-18",
    "ADY": -9,
    "AVISIT": "SCREENING",
    "AVISITN": 1,
    "ABLFL": "Y",
    "ANL01FL": "Y",
    "SAFFL": "Y"
  },
  {
    "STUDYID": "CDISCPILOT01",
    "USUBJID": "01-701-006",
    "TRTP": "Placebo",
    "TRTPN": 0,
    "PARAMCD": "TEMP",
    "PARAM": "Temperature ( C )",
    "AVAL": 37.1,
    "BASE": 37,
    "CHG": 0.1,
    "PCHG": 0.2703,
    "ADT": "2013-11-15",
    "ADY": 142,
    "AVISIT": "WEEK 20",
    "AVISITN": 8,
    "ABLFL": "",
    "ANL01FL": "Y",
    "SAFFL": "Y"
  },
  {
    "STUDYID": "CDISCPILOT01",
    "USUBJID": "01-701-006",
    "TRTP": "Placebo",
    "TRTPN": 0,
    "PARAMCD": "TEMP",
    "PARAM": "Temperature ( C )",
    "AVAL": 37,
    "BASE": 37,
    "CHG": 0,
    "PCHG": 0,
    "ADT": "2013-07-24",
    "ADY": 28,
    "AVISIT": "WEEK 4",
    "AVISITN": 4,
    "ABLFL": "",
    "ANL01FL": "Y",
    "SAFFL": "Y"
  },
  {
    "STUDYID": "CDISCPILOT01",
    "USUBJID": "01-701-006",
    "TRTP": "Placebo",
    "TRTPN": 0,
    "PARAMCD": "TEMP",
    "PARAM": "Temperature ( C )",
    "AVAL": 37,
    "BASE": 37,
    "CHG": 0,
    "PCHG": 0,
    "ADT": "2013-06-27",
    "ADY": 1,
    "AVISIT": "BASELINE",
    "AVISITN": 2,
    "ABLFL": "",
    "ANL01FL": "Y",
    "SAFFL": "Y"
  },
  {
    "STUDYID": "CDISCPILOT01",
    "USUBJID": "01-701-006",
    "TRTP": "Placebo",
    "TRTPN": 0,
    "PARAMCD": "TEMP",
    "PARAM": "Temperature ( C )",
    "AVAL": 37,
    "BASE": 37,
    "CHG": 0,
    "PCHG": 0,
    "ADT": "2013-07-12",
    "ADY": 16,
    "AVISIT": "WEEK 2",
    "AVISITN": 3,
    "ABLFL": "",
    "ANL01FL": "Y",
    "SAFFL": "Y"
  },
  {
    "STUDYID": "CDISCPILOT01",
    "USUBJID": "01-701-006",
    "TRTP": "Placebo",
    "TRTPN": 0,
    "PARAMCD": "WEIGHT",
    "PARAM": "Weight ( kg )",
    "AVAL": 66.3,
    "BASE": 66.3,
    "CHG": 0,
    "PCHG": 0,
    "ADT": "2013-06-20",
    "ADY": -7,
    "AVISIT": "SCREENING",
    "AVISITN": 1,
    "ABLFL": "Y",
    "ANL01FL": "Y",
    "SAFFL": "Y"
  },
  {
    "STUDYID": "CDISCPILOT01",
    "USUBJID": "01-701-006",
    "TRTP": "Placebo",
    "TRTPN": 0,
    "PARAMCD": "WEIGHT",
    "PARAM": "Weight ( kg )",
    "AVAL": 66.5,
    "BASE": 66.3,
    "CHG": 0.2,
    "PCHG": 0.3017,
    "ADT": "2013-07-12",
    "ADY": 16,
    "AVISIT": "WEEK 2",
    "AVISITN": 3,
    "ABLFL": "",
    "ANL01FL": "Y",
    "SAFFL": "Y"
  },
  {
    "STUDYID": "CDISCPILOT01",
    "USUBJID": "01-701-006",
    "TRTP": "Placebo",
    "TRTPN": 0,
    "PARAMCD": "WEIGHT",
    "PARAM": "Weight ( kg )",
    "AVAL": 66.7,
    "BASE": 66.3,
    "CHG": 0.4,
    "PCHG": 0.6033,
    "ADT": "2013-10-17",
    "ADY": 113,
    "AVISIT": "WEEK 16",
    "AVISITN": 7,
    "ABLFL": "",
    "ANL01FL": "Y",
    "SAFFL": "Y"
  },
  {
    "STUDYID": "CDISCPILOT01",
    "USUBJID": "01-701-006",
    "TRTP": "Placebo",
    "TRTPN": 0,
    "PARAMCD": "WEIGHT",
    "PARAM": "Weight ( kg )",
    "AVAL": 65.7,
    "BASE": 66.3,
    "CHG": -0.6,
    "PCHG": -0.905,
    "ADT": "2013-12-13",
    "ADY": 170,
    "AVISIT": "WEEK 24",
    "AVISITN": 9,
    "ABLFL": "",
    "ANL01FL": "Y",
    "SAFFL": "Y"
  },
  {
    "STUDYID": "CDISCPILOT01",
    "USUBJID": "01-701-006",
    "TRTP": "Placebo",
    "TRTPN": 0,
    "PARAMCD": "WEIGHT",
    "PARAM": "Weight ( kg )",
    "AVAL": 66.2,
    "BASE": 66.3,
    "CHG": -0.1,
    "PCHG": -0.1508,
    "ADT": "2013-07-25",
    "ADY": 29,
    "AVISIT": "WEEK 4",
    "AVISITN": 4,
    "ABLFL": "",
    "ANL01FL": "Y",
    "SAFFL": "Y"
  },
  {
    "STUDYID": "CDISCPILOT01",
    "USUBJID": "01-701-006",
    "TRTP": "Placebo",
    "TRTPN": 0,
    "PARAMCD": "WEIGHT",
    "PARAM": "Weight ( kg )",
    "AVAL": 67,
    "BASE": 66.3,
    "CHG": 0.7,
    "PCHG": 1.0558,
    "ADT": "2013-11-14",
    "ADY": 141,
    "AVISIT": "WEEK 20",
    "AVISITN": 8,
    "ABLFL": "",
    "ANL01FL": "Y",
    "SAFFL": "Y"
  },
  {
    "STUDYID": "CDISCPILOT01",
    "USUBJID": "01-701-006",
    "TRTP": "Placebo",
    "TRTPN": 0,
    "PARAMCD": "WEIGHT",
    "PARAM": "Weight ( kg )",
    "AVAL": 66.4,
    "BASE": 66.3,
    "CHG": 0.1,
    "PCHG": 0.1508,
    "ADT": "2013-09-20",
    "ADY": 86,
    "AVISIT": "WEEK 12",
    "AVISITN": 6,
    "ABLFL": "",
    "ANL01FL": "Y",
    "SAFFL": "Y"
  },
  {
    "STUDYID": "CDISCPILOT01",
    "USUBJID": "01-701-006",
    "TRTP": "Placebo",
    "TRTPN": 0,
    "PARAMCD": "WEIGHT",
    "PARAM": "Weight ( kg )",
    "AVAL": 66.3,
    "BASE": 66.3,
    "CHG": 0,
    "PCHG": 0,
    "ADT": "2013-06-26",
    "ADY": -1,
    "AVISIT": "BASELINE",
    "AVISITN": 2,
    "ABLFL": "",
    "ANL01FL": "Y",
    "SAFFL": "Y"
  },
  {
    "STUDYID": "CDISCPILOT01",
    "USUBJID": "01-701-006",
    "TRTP": "Placebo",
    "TRTPN": 0,
    "PARAMCD": "WEIGHT",
    "PARAM": "Weight ( kg )",
    "AVAL": 67.2,
    "BASE": 66.3,
    "CHG": 0.9,
    "PCHG": 1.3575,
    "ADT": "2013-08-21",
    "ADY": 56,
    "AVISIT": "WEEK 8",
    "AVISITN": 5,
    "ABLFL": "",
    "ANL01FL": "Y",
    "SAFFL": "Y"
  },
  {
    "STUDYID": "CDISCPILOT01",
    "USUBJID": "01-701-007",
    "TRTP": "Placebo",
    "TRTPN": 0,
    "PARAMCD": "DIABP",
    "PARAM": "Diastolic Blood Pressure ( mmHg )",
    "AVAL": 66.1,
    "BASE": 67.9,
    "CHG": -1.8,
    "PCHG": -2.651,
    "ADT": "2013-11-06",
    "ADY": 114,
    "AVISIT": "WEEK 16",
    "AVISITN": 7,
    "ABLFL": "",
    "ANL01FL": "Y",
    "SAFFL": "Y"
  },
  {
    "STUDYID": "CDISCPILOT01",
    "USUBJID": "01-701-007",
    "TRTP": "Placebo",
    "TRTPN": 0,
    "PARAMCD": "DIABP",
    "PARAM": "Diastolic Blood Pressure ( mmHg )",
    "AVAL": 67.1,
    "BASE": 67.9,
    "CHG": -0.8,
    "PCHG": -1.1782,
    "ADT": "2013-12-04",
    "ADY": 142,
    "AVISIT": "WEEK 20",
    "AVISITN": 8,
    "ABLFL": "",
    "ANL01FL": "Y",
    "SAFFL": "Y"
  },
  {
    "STUDYID": "CDISCPILOT01",
    "USUBJID": "01-701-007",
    "TRTP": "Placebo",
    "TRTPN": 0,
    "PARAMCD": "DIABP",
    "PARAM": "Diastolic Blood Pressure ( mmHg )",
    "AVAL": 67.2,
    "BASE": 67.9,
    "CHG": -0.7,
    "PCHG": -1.0309,
    "ADT": "2013-10-07",
    "ADY": 84,
    "AVISIT": "WEEK 12",
    "AVISITN": 6,
    "ABLFL": "",
    "ANL01FL": "Y",
    "SAFFL": "Y"
  },
  {
    "STUDYID": "CDISCPILOT01",
    "USUBJID": "01-701-007",
    "TRTP": "Placebo",
    "TRTPN": 0,
    "PARAMCD": "DIABP",
    "PARAM": "Diastolic Blood Pressure ( mmHg )",
    "AVAL": 68.1,
    "BASE": 67.9,
    "CHG": 0.2,
    "PCHG": 0.2946,
    "ADT": "2013-07-15",
    "ADY": -1,
    "AVISIT": "BASELINE",
    "AVISITN": 2,
    "ABLFL": "",
    "ANL01FL": "Y",
    "SAFFL": "Y"
  },
  {
    "STUDYID": "CDISCPILOT01",
    "USUBJID": "01-701-007",
    "TRTP": "Placebo",
    "TRTPN": 0,
    "PARAMCD": "DIABP",
    "PARAM": "Diastolic Blood Pressure ( mmHg )",
    "AVAL": 68.6,
    "BASE": 67.9,
    "CHG": 0.7,
    "PCHG": 1.0309,
    "ADT": "2013-12-30",
    "ADY": 168,
    "AVISIT": "WEEK 24",
    "AVISITN": 9,
    "ABLFL": "",
    "ANL01FL": "Y",
    "SAFFL": "Y"
  },
  {
    "STUDYID": "CDISCPILOT01",
    "USUBJID": "01-701-007",
    "TRTP": "Placebo",
    "TRTPN": 0,
    "PARAMCD": "DIABP",
    "PARAM": "Diastolic Blood Pressure ( mmHg )",
    "AVAL": 68,
    "BASE": 67.9,
    "CHG": 0.1,
    "PCHG": 0.1473,
    "ADT": "2013-07-30",
    "ADY": 15,
    "AVISIT": "WEEK 2",
    "AVISITN": 3,
    "ABLFL": "",
    "ANL01FL": "Y",
    "SAFFL": "Y"
  },
  {
    "STUDYID": "CDISCPILOT01",
    "USUBJID": "01-701-007",
    "TRTP": "Placebo",
    "TRTPN": 0,
    "PARAMCD": "DIABP",
    "PARAM": "Diastolic Blood Pressure ( mmHg )",
    "AVAL": 69,
    "BASE": 67.9,
    "CHG": 1.1,
    "PCHG": 1.62,
    "ADT": "2013-08-12",
    "ADY": 28,
    "AVISIT": "WEEK 4",
    "AVISITN": 4,
    "ABLFL": "",
    "ANL01FL": "Y",
    "SAFFL": "Y"
  },
  {
    "STUDYID": "CDISCPILOT01",
    "USUBJID": "01-701-007",
    "TRTP": "Placebo",
    "TRTPN": 0,
    "PARAMCD": "DIABP",
    "PARAM": "Diastolic Blood Pressure ( mmHg )",
    "AVAL": 69.5,
    "BASE": 67.9,
    "CHG": 1.6,
    "PCHG": 2.3564,
    "ADT": "2013-09-11",
    "ADY": 58,
    "AVISIT": "WEEK 8",
    "AVISITN": 5,
    "ABLFL": "",
    "ANL01FL": "Y",
    "SAFFL": "Y"
  },
  {
    "STUDYID": "CDISCPILOT01",
    "USUBJID": "01-701-007",
    "TRTP": "Placebo",
    "TRTPN": 0,
    "PARAMCD": "DIABP",
    "PARAM": "Diastolic Blood Pressure ( mmHg )",
    "AVAL": 67.9,
    "BASE": 67.9,
    "CHG": 0,
    "PCHG": 0,
    "ADT": "2013-07-09",
    "ADY": -7,
    "AVISIT": "SCREENING",
    "AVISITN": 1,
    "ABLFL": "Y",
    "ANL01FL": "Y",
    "SAFFL": "Y"
  },
  {
    "STUDYID": "CDISCPILOT01",
    "USUBJID": "01-701-007",
    "TRTP": "Placebo",
    "TRTPN": 0,
    "PARAMCD": "HEIGHT",
    "PARAM": "Height ( cm )",
    "AVAL": 163.2,
    "BASE": 163.2,
    "CHG": 0,
    "PCHG": 0,
    "ADT": "2014-01-01",
    "ADY": 170,
    "AVISIT": "WEEK 24",
    "AVISITN": 9,
    "ABLFL": "",
    "ANL01FL": "Y",
    "SAFFL": "Y"
  },
  {
    "STUDYID": "CDISCPILOT01",
    "USUBJID": "01-701-007",
    "TRTP": "Placebo",
    "TRTPN": 0,
    "PARAMCD": "HEIGHT",
    "PARAM": "Height ( cm )",
    "AVAL": 163.2,
    "BASE": 163.2,
    "CHG": 0,
    "PCHG": 0,
    "ADT": "2013-07-16",
    "ADY": 1,
    "AVISIT": "BASELINE",
    "AVISITN": 2,
    "ABLFL": "",
    "ANL01FL": "Y",
    "SAFFL": "Y"
  },
  {
    "STUDYID": "CDISCPILOT01",
    "USUBJID": "01-701-007",
    "TRTP": "Placebo",
    "TRTPN": 0,
    "PARAMCD": "HEIGHT",
    "PARAM": "Height ( cm )",
    "AVAL": 163.2,
    "BASE": 163.2,
    "CHG": 0,
    "PCHG": 0,
    "ADT": "2013-12-04",
    "ADY": 142,
    "AVISIT": "WEEK 20",
    "AVISITN": 8,
    "ABLFL": "",
    "ANL01FL": "Y",
    "SAFFL": "Y"
  },
  {
    "STUDYID": "CDISCPILOT01",
    "USUBJID": "01-701-007",
    "TRTP": "Placebo",
    "TRTPN": 0,
    "PARAMCD": "HEIGHT",
    "PARAM": "Height ( cm )",
    "AVAL": 163.2,
    "BASE": 163.2,
    "CHG": 0,
    "PCHG": 0,
    "ADT": "2013-11-04",
    "ADY": 112,
    "AVISIT": "WEEK 16",
    "AVISITN": 7,
    "ABLFL": "",
    "ANL01FL": "Y",
    "SAFFL": "Y"
  },
  {
    "STUDYID": "CDISCPILOT01",
    "USUBJID": "01-701-007",
    "TRTP": "Placebo",
    "TRTPN": 0,
    "PARAMCD": "HEIGHT",
    "PARAM": "Height ( cm )",
    "AVAL": 163.2,
    "BASE": 163.2,
    "CHG": 0,
    "PCHG": 0,
    "ADT": "2013-09-11",
    "ADY": 58,
    "AVISIT": "WEEK 8",
    "AVISITN": 5,
    "ABLFL": "",
    "ANL01FL": "Y",
    "SAFFL": "Y"
  },
  {
    "STUDYID": "CDISCPILOT01",
    "USUBJID": "01-701-007",
    "TRTP": "Placebo",
    "TRTPN": 0,
    "PARAMCD": "HEIGHT",
    "PARAM": "Height ( cm )",
    "AVAL": 163.2,
    "BASE": 163.2,
    "CHG": 0,
    "PCHG": 0,
    "ADT": "2013-07-08",
    "ADY": -8,
    "AVISIT": "SCREENING",
    "AVISITN": 1,
    "ABLFL": "Y",
    "ANL01FL": "Y",
    "SAFFL": "Y"
  },
  {
    "STUDYID": "CDISCPILOT01",
    "USUBJID": "01-701-007",
    "TRTP": "Placebo",
    "TRTPN": 0,
    "PARAMCD": "HEIGHT",
    "PARAM": "Height ( cm )",
    "AVAL": 163.2,
    "BASE": 163.2,
    "CHG": 0,
    "PCHG": 0,
    "ADT": "2013-10-09",
    "ADY": 86,
    "AVISIT": "WEEK 12",
    "AVISITN": 6,
    "ABLFL": "",
    "ANL01FL": "Y",
    "SAFFL": "Y"
  },
  {
    "STUDYID": "CDISCPILOT01",
    "USUBJID": "01-701-007",
    "TRTP": "Placebo",
    "TRTPN": 0,
    "PARAMCD": "HEIGHT",
    "PARAM": "Height ( cm )",
    "AVAL": 163.2,
    "BASE": 163.2,
    "CHG": 0,
    "PCHG": 0,
    "ADT": "2013-07-29",
    "ADY": 14,
    "AVISIT": "WEEK 2",
    "AVISITN": 3,
    "ABLFL": "",
    "ANL01FL": "Y",
    "SAFFL": "Y"
  },
  {
    "STUDYID": "CDISCPILOT01",
    "USUBJID": "01-701-007",
    "TRTP": "Placebo",
    "TRTPN": 0,
    "PARAMCD": "HEIGHT",
    "PARAM": "Height ( cm )",
    "AVAL": 163.2,
    "BASE": 163.2,
    "CHG": 0,
    "PCHG": 0,
    "ADT": "2013-08-12",
    "ADY": 28,
    "AVISIT": "WEEK 4",
    "AVISITN": 4,
    "ABLFL": "",
    "ANL01FL": "Y",
    "SAFFL": "Y"
  },
  {
    "STUDYID": "CDISCPILOT01",
    "USUBJID": "01-701-007",
    "TRTP": "Placebo",
    "TRTPN": 0,
    "PARAMCD": "PULSE",
    "PARAM": "Pulse Rate ( beats/min )",
    "AVAL": 71.2,
    "BASE": 70.1,
    "CHG": 1.1,
    "PCHG": 1.5692,
    "ADT": "2013-10-08",
    "ADY": 85,
    "AVISIT": "WEEK 12",
    "AVISITN": 6,
    "ABLFL": "",
    "ANL01FL": "Y",
    "SAFFL": "Y"
  },
  {
    "STUDYID": "CDISCPILOT01",
    "USUBJID": "01-701-007",
    "TRTP": "Placebo",
    "TRTPN": 0,
    "PARAMCD": "PULSE",
    "PARAM": "Pulse Rate ( beats/min )",
    "AVAL": 69.7,
    "BASE": 70.1,
    "CHG": -0.4,
    "PCHG": -0.5706,
    "ADT": "2013-11-06",
    "ADY": 114,
    "AVISIT": "WEEK 16",
    "AVISITN": 7,
    "ABLFL": "",
    "ANL01FL": "Y",
    "SAFFL": "Y"
  },
  {
    "STUDYID": "CDISCPILOT01",
    "USUBJID": "01-701-007",
    "TRTP": "Placebo",
    "TRTPN": 0,
    "PARAMCD": "PULSE",
    "PARAM": "Pulse Rate ( beats/min )",
    "AVAL": 70.1,
    "BASE": 70.1,
    "CHG": 0,
    "PCHG": 0,
    "ADT": "2013-08-12",
    "ADY": 28,
    "AVISIT": "WEEK 4",
    "AVISITN": 4,
    "ABLFL": "",
    "ANL01FL": "Y",
    "SAFFL": "Y"
  },
  {
    "STUDYID": "CDISCPILOT01",
    "USUBJID": "01-701-007",
    "TRTP": "Placebo",
    "TRTPN": 0,
    "PARAMCD": "PULSE",
    "PARAM": "Pulse Rate ( beats/min )",
    "AVAL": 71.1,
    "BASE": 70.1,
    "CHG": 1,
    "PCHG": 1.4265,
    "ADT": "2013-12-30",
    "ADY": 168,
    "AVISIT": "WEEK 24",
    "AVISITN": 9,
    "ABLFL": "",
    "ANL01FL": "Y",
    "SAFFL": "Y"
  },
  {
    "STUDYID": "CDISCPILOT01",
    "USUBJID": "01-701-007",
    "TRTP": "Placebo",
    "TRTPN": 0,
    "PARAMCD": "PULSE",
    "PARAM": "Pulse Rate ( beats/min )",
    "AVAL": 69.1,
    "BASE": 70.1,
    "CHG": -1,
    "PCHG": -1.4265,
    "ADT": "2013-09-11",
    "ADY": 58,
    "AVISIT": "WEEK 8",
    "AVISITN": 5,
    "ABLFL": "",
    "ANL01FL": "Y",
    "SAFFL": "Y"
  },
  {
    "STUDYID": "CDISCPILOT01",
    "USUBJID": "01-701-007",
    "TRTP": "Placebo",
    "TRTPN": 0,
    "PARAMCD": "PULSE",
    "PARAM": "Pulse Rate ( beats/min )",
    "AVAL": 69.9,
    "BASE": 70.1,
    "CHG": -0.2,
    "PCHG": -0.2853,
    "ADT": "2013-07-31",
    "ADY": 16,
    "AVISIT": "WEEK 2",
    "AVISITN": 3,
    "ABLFL": "",
    "ANL01FL": "Y",
    "SAFFL": "Y"
  },
  {
    "STUDYID": "CDISCPILOT01",
    "USUBJID": "01-701-007",
    "TRTP": "Placebo",
    "TRTPN": 0,
    "PARAMCD": "PULSE",
    "PARAM": "Pulse Rate ( beats/min )",
    "AVAL": 70.6,
    "BASE": 70.1,
    "CHG": 0.5,
    "PCHG": 0.7133,
    "ADT": "2013-07-17",
    "ADY": 2,
    "AVISIT": "BASELINE",
    "AVISITN": 2,
    "ABLFL": "",
    "ANL01FL": "Y",
    "SAFFL": "Y"
  },
  {
    "STUDYID": "CDISCPILOT01",
    "USUBJID": "01-701-007",
    "TRTP": "Placebo",
    "TRTPN": 0,
    "PARAMCD": "PULSE",
    "PARAM": "Pulse Rate ( beats/min )",
    "AVAL": 70.2,
    "BASE": 70.1,
    "CHG": 0.1,
    "PCHG": 0.1427,
    "ADT": "2013-12-04",
    "ADY": 142,
    "AVISIT": "WEEK 20",
    "AVISITN": 8,
    "ABLFL": "",
    "ANL01FL": "Y",
    "SAFFL": "Y"
  },
  {
    "STUDYID": "CDISCPILOT01",
    "USUBJID": "01-701-007",
    "TRTP": "Placebo",
    "TRTPN": 0,
    "PARAMCD": "PULSE",
    "PARAM": "Pulse Rate ( beats/min )",
    "AVAL": 70.1,
    "BASE": 70.1,
    "CHG": 0,
    "PCHG": 0,
    "ADT": "2013-07-07",
    "ADY": -9,
    "AVISIT": "SCREENING",
    "AVISITN": 1,
    "ABLFL": "Y",
    "ANL01FL": "Y",
    "SAFFL": "Y"
  },
  {
    "STUDYID": "CDISCPILOT01",
    "USUBJID": "01-701-007",
    "TRTP": "Placebo",
    "TRTPN": 0,
    "PARAMCD": "RESP",
    "PARAM": "Respiratory Rate ( breaths/min )",
    "AVAL": 15.3,
    "BASE": 15.1,
    "CHG": 0.2,
    "PCHG": 1.3245,
    "ADT": "2013-09-10",
    "ADY": 57,
    "AVISIT": "WEEK 8",
    "AVISITN": 5,
    "ABLFL": "",
    "ANL01FL": "Y",
    "SAFFL": "Y"
  },
  {
    "STUDYID": "CDISCPILOT01",
    "USUBJID": "01-701-007",
    "TRTP": "Placebo",
    "TRTPN": 0,
    "PARAMCD": "RESP",
    "PARAM": "Respiratory Rate ( breaths/min )",
    "AVAL": 15,
    "BASE": 15.1,
    "CHG": -0.1,
    "PCHG": -0.6623,
    "ADT": "2013-12-03",
    "ADY": 141,
    "AVISIT": "WEEK 20",
    "AVISITN": 8,
    "ABLFL": "",
    "ANL01FL": "Y",
    "SAFFL": "Y"
  },
  {
    "STUDYID": "CDISCPILOT01",
    "USUBJID": "01-701-007",
    "TRTP": "Placebo",
    "TRTPN": 0,
    "PARAMCD": "RESP",
    "PARAM": "Respiratory Rate ( breaths/min )",
    "AVAL": 14.7,
    "BASE": 15.1,
    "CHG": -0.4,
    "PCHG": -2.649,
    "ADT": "2013-08-12",
    "ADY": 28,
    "AVISIT": "WEEK 4",
    "AVISITN": 4,
    "ABLFL": "",
    "ANL01FL": "Y",
    "SAFFL": "Y"
  },
  {
    "STUDYID": "CDISCPILOT01",
    "USUBJID": "01-701-007",
    "TRTP": "Placebo",
    "TRTPN": 0,
    "PARAMCD": "RESP",
    "PARAM": "Respiratory Rate ( breaths/min )",
    "AVAL": 15.7,
    "BASE": 15.1,
    "CHG": 0.6,
    "PCHG": 3.9735,
    "ADT": "2013-07-17",
    "ADY": 2,
    "AVISIT": "BASELINE",
    "AVISITN": 2,
    "ABLFL": "",
    "ANL01FL": "Y",
    "SAFFL": "Y"
  },
  {
    "STUDYID": "CDISCPILOT01",
    "USUBJID": "01-701-007",
    "TRTP": "Placebo",
    "TRTPN": 0,
    "PARAMCD": "RESP",
    "PARAM": "Respiratory Rate ( breaths/min )",
    "AVAL": 15.3,
    "BASE": 15.1,
    "CHG": 0.2,
    "PCHG": 1.3245,
    "ADT": "2013-10-07",
    "ADY": 84,
    "AVISIT": "WEEK 12",
    "AVISITN": 6,
    "ABLFL": "",
    "ANL01FL": "Y",
    "SAFFL": "Y"
  },
  {
    "STUDYID": "CDISCPILOT01",
    "USUBJID": "01-701-007",
    "TRTP": "Placebo",
    "TRTPN": 0,
    "PARAMCD": "RESP",
    "PARAM": "Respiratory Rate ( breaths/min )",
    "AVAL": 15.1,
    "BASE": 15.1,
    "CHG": 0,
    "PCHG": 0,
    "ADT": "2013-07-08",
    "ADY": -8,
    "AVISIT": "SCREENING",
    "AVISITN": 1,
    "ABLFL": "Y",
    "ANL01FL": "Y",
    "SAFFL": "Y"
  },
  {
    "STUDYID": "CDISCPILOT01",
    "USUBJID": "01-701-007",
    "TRTP": "Placebo",
    "TRTPN": 0,
    "PARAMCD": "RESP",
    "PARAM": "Respiratory Rate ( breaths/min )",
    "AVAL": 15.1,
    "BASE": 15.1,
    "CHG": 0,
    "PCHG": 0,
    "ADT": "2013-07-29",
    "ADY": 14,
    "AVISIT": "WEEK 2",
    "AVISITN": 3,
    "ABLFL": "",
    "ANL01FL": "Y",
    "SAFFL": "Y"
  },
  {
    "STUDYID": "CDISCPILOT01",
    "USUBJID": "01-701-007",
    "TRTP": "Placebo",
    "TRTPN": 0,
    "PARAMCD": "RESP",
    "PARAM": "Respiratory Rate ( breaths/min )",
    "AVAL": 15.2,
    "BASE": 15.1,
    "CHG": 0.1,
    "PCHG": 0.6623,
    "ADT": "2013-11-06",
    "ADY": 114,
    "AVISIT": "WEEK 16",
    "AVISITN": 7,
    "ABLFL": "",
    "ANL01FL": "Y",
    "SAFFL": "Y"
  },
  {
    "STUDYID": "CDISCPILOT01",
    "USUBJID": "01-701-007",
    "TRTP": "Placebo",
    "TRTPN": 0,
    "PARAMCD": "RESP",
    "PARAM": "Respiratory Rate ( breaths/min )",
    "AVAL": 14.8,
    "BASE": 15.1,
    "CHG": -0.3,
    "PCHG": -1.9868,
    "ADT": "2014-01-01",
    "ADY": 170,
    "AVISIT": "WEEK 24",
    "AVISITN": 9,
    "ABLFL": "",
    "ANL01FL": "Y",
    "SAFFL": "Y"
  },
  {
    "STUDYID": "CDISCPILOT01",
    "USUBJID": "01-701-007",
    "TRTP": "Placebo",
    "TRTPN": 0,
    "PARAMCD": "SYSBP",
    "PARAM": "Systolic Blood Pressure ( mmHg )",
    "AVAL": 117.1,
    "BASE": 116.5,
    "CHG": 0.6,
    "PCHG": 0.515,
    "ADT": "2013-12-31",
    "ADY": 169,
    "AVISIT": "WEEK 24",
    "AVISITN": 9,
    "ABLFL": "",
    "ANL01FL": "Y",
    "SAFFL": "Y"
  },
  {
    "STUDYID": "CDISCPILOT01",
    "USUBJID": "01-701-007",
    "TRTP": "Placebo",
    "TRTPN": 0,
    "PARAMCD": "SYSBP",
    "PARAM": "Systolic Blood Pressure ( mmHg )",
    "AVAL": 115.5,
    "BASE": 116.5,
    "CHG": -1,
    "PCHG": -0.8584,
    "ADT": "2013-12-04",
    "ADY": 142,
    "AVISIT": "WEEK 20",
    "AVISITN": 8,
    "ABLFL": "",
    "ANL01FL": "Y",
    "SAFFL": "Y"
  },
  {
    "STUDYID": "CDISCPILOT01",
    "USUBJID": "01-701-007",
    "TRTP": "Placebo",
    "TRTPN": 0,
    "PARAMCD": "SYSBP",
    "PARAM": "Systolic Blood Pressure ( mmHg )",
    "AVAL": 116.5,
    "BASE": 116.5,
    "CHG": 0,
    "PCHG": 0,
    "ADT": "2013-10-07",
    "ADY": 84,
    "AVISIT": "WEEK 12",
    "AVISITN": 6,
    "ABLFL": "",
    "ANL01FL": "Y",
    "SAFFL": "Y"
  },
  {
    "STUDYID": "CDISCPILOT01",
    "USUBJID": "01-701-007",
    "TRTP": "Placebo",
    "TRTPN": 0,
    "PARAMCD": "SYSBP",
    "PARAM": "Systolic Blood Pressure ( mmHg )",
    "AVAL": 118.4,
    "BASE": 116.5,
    "CHG": 1.9,
    "PCHG": 1.6309,
    "ADT": "2013-11-05",
    "ADY": 113,
    "AVISIT": "WEEK 16",
    "AVISITN": 7,
    "ABLFL": "",
    "ANL01FL": "Y",
    "SAFFL": "Y"
  },
  {
    "STUDYID": "CDISCPILOT01",
    "USUBJID": "01-701-007",
    "TRTP": "Placebo",
    "TRTPN": 0,
    "PARAMCD": "SYSBP",
    "PARAM": "Systolic Blood Pressure ( mmHg )",
    "AVAL": 120.5,
    "BASE": 116.5,
    "CHG": 4,
    "PCHG": 3.4335,
    "ADT": "2013-09-10",
    "ADY": 57,
    "AVISIT": "WEEK 8",
    "AVISITN": 5,
    "ABLFL": "",
    "ANL01FL": "Y",
    "SAFFL": "Y"
  },
  {
    "STUDYID": "CDISCPILOT01",
    "USUBJID": "01-701-007",
    "TRTP": "Placebo",
    "TRTPN": 0,
    "PARAMCD": "SYSBP",
    "PARAM": "Systolic Blood Pressure ( mmHg )",
    "AVAL": 115,
    "BASE": 116.5,
    "CHG": -1.5,
    "PCHG": -1.2876,
    "ADT": "2013-07-29",
    "ADY": 14,
    "AVISIT": "WEEK 2",
    "AVISITN": 3,
    "ABLFL": "",
    "ANL01FL": "Y",
    "SAFFL": "Y"
  },
  {
    "STUDYID": "CDISCPILOT01",
    "USUBJID": "01-701-007",
    "TRTP": "Placebo",
    "TRTPN": 0,
    "PARAMCD": "SYSBP",
    "PARAM": "Systolic Blood Pressure ( mmHg )",
    "AVAL": 117.8,
    "BASE": 116.5,
    "CHG": 1.3,
    "PCHG": 1.1159,
    "ADT": "2013-08-13",
    "ADY": 29,
    "AVISIT": "WEEK 4",
    "AVISITN": 4,
    "ABLFL": "",
    "ANL01FL": "Y",
    "SAFFL": "Y"
  },
  {
    "STUDYID": "CDISCPILOT01",
    "USUBJID": "01-701-007",
    "TRTP": "Placebo",
    "TRTPN": 0,
    "PARAMCD": "SYSBP",
    "PARAM": "Systolic Blood Pressure ( mmHg )",
    "AVAL": 118.9,
    "BASE": 116.5,
    "CHG": 2.4,
    "PCHG": 2.0601,
    "ADT": "2013-07-17",
    "ADY": 2,
    "AVISIT": "BASELINE",
    "AVISITN": 2,
    "ABLFL": "",
    "ANL01FL": "Y",
    "SAFFL": "Y"
  },
  {
    "STUDYID": "CDISCPILOT01",
    "USUBJID": "01-701-007",
    "TRTP": "Placebo",
    "TRTPN": 0,
    "PARAMCD": "SYSBP",
    "PARAM": "Systolic Blood Pressure ( mmHg )",
    "AVAL": 116.5,
    "BASE": 116.5,
    "CHG": 0,
    "PCHG": 0,
    "ADT": "2013-07-08",
    "ADY": -8,
    "AVISIT": "SCREENING",
    "AVISITN": 1,
    "ABLFL": "Y",
    "ANL01FL": "Y",
    "SAFFL": "Y"
  },
  {
    "STUDYID": "CDISCPILOT01",
    "USUBJID": "01-701-007",
    "TRTP": "Placebo",
    "TRTPN": 0,
    "PARAMCD": "TEMP",
    "PARAM": "Temperature ( C )",
    "AVAL": 36.9,
    "BASE": 36.7,
    "CHG": 0.2,
    "PCHG": 0.545,
    "ADT": "2013-12-31",
    "ADY": 169,
    "AVISIT": "WEEK 24",
    "AVISITN": 9,
    "ABLFL": "",
    "ANL01FL": "Y",
    "SAFFL": "Y"
  },
  {
    "STUDYID": "CDISCPILOT01",
    "USUBJID": "01-701-007",
    "TRTP": "Placebo",
    "TRTPN": 0,
    "PARAMCD": "TEMP",
    "PARAM": "Temperature ( C )",
    "AVAL": 36.7,
    "BASE": 36.7,
    "CHG": 0,
    "PCHG": 0,
    "ADT": "2013-09-10",
    "ADY": 57,
    "AVISIT": "WEEK 8",
    "AVISITN": 5,
    "ABLFL": "",
    "ANL01FL": "Y",
    "SAFFL": "Y"
  },
  {
    "STUDYID": "CDISCPILOT01",
    "USUBJID": "01-701-007",
    "TRTP": "Placebo",
    "TRTPN": 0,
    "PARAMCD": "TEMP",
    "PARAM": "Temperature ( C )",
    "AVAL": 36.7,
    "BASE": 36.7,
    "CHG": 0,
    "PCHG": 0,
    "ADT": "2013-10-08",
    "ADY": 85,
    "AVISIT": "WEEK 12",
    "AVISITN": 6,
    "ABLFL": "",
    "ANL01FL": "Y",
    "SAFFL": "Y"
  },
  {
    "STUDYID": "CDISCPILOT01",
    "USUBJID": "01-701-007",
    "TRTP": "Placebo",
    "TRTPN": 0,
    "PARAMCD": "TEMP",
    "PARAM": "Temperature ( C )",
    "AVAL": 36.8,
    "BASE": 36.7,
    "CHG": 0.1,
    "PCHG": 0.2725,
    "ADT": "2013-11-05",
    "ADY": 113,
    "AVISIT": "WEEK 16",
    "AVISITN": 7,
    "ABLFL": "",
    "ANL01FL": "Y",
    "SAFFL": "Y"
  },
  {
    "STUDYID": "CDISCPILOT01",
    "USUBJID": "01-701-007",
    "TRTP": "Placebo",
    "TRTPN": 0,
    "PARAMCD": "TEMP",
    "PARAM": "Temperature ( C )",
    "AVAL": 36.7,
    "BASE": 36.7,
    "CHG": 0,
    "PCHG": 0,
    "ADT": "2013-07-09",
    "ADY": -7,
    "AVISIT": "SCREENING",
    "AVISITN": 1,
    "ABLFL": "Y",
    "ANL01FL": "Y",
    "SAFFL": "Y"
  },
  {
    "STUDYID": "CDISCPILOT01",
    "USUBJID": "01-701-007",
    "TRTP": "Placebo",
    "TRTPN": 0,
    "PARAMCD": "TEMP",
    "PARAM": "Temperature ( C )",
    "AVAL": 36.8,
    "BASE": 36.7,
    "CHG": 0.1,
    "PCHG": 0.2725,
    "ADT": "2013-12-04",
    "ADY": 142,
    "AVISIT": "WEEK 20",
    "AVISITN": 8,
    "ABLFL": "",
    "ANL01FL": "Y",
    "SAFFL": "Y"
  },
  {
    "STUDYID": "CDISCPILOT01",
    "USUBJID": "01-701-007",
    "TRTP": "Placebo",
    "TRTPN": 0,
    "PARAMCD": "TEMP",
    "PARAM": "Temperature ( C )",
    "AVAL": 36.8,
    "BASE": 36.7,
    "CHG": 0.1,
    "PCHG": 0.2725,
    "ADT": "2013-08-14",
    "ADY": 30,
    "AVISIT": "WEEK 4",
    "AVISITN": 4,
    "ABLFL": "",
    "ANL01FL": "Y",
    "SAFFL": "Y"
  },
  {
    "STUDYID": "CDISCPILOT01",
    "USUBJID": "01-701-007",
    "TRTP": "Placebo",
    "TRTPN": 0,
    "PARAMCD": "TEMP",
    "PARAM": "Temperature ( C )",
    "AVAL": 36.7,
    "BASE": 36.7,
    "CHG": 0,
    "PCHG": 0,
    "ADT": "2013-07-16",
    "ADY": 1,
    "AVISIT": "BASELINE",
    "AVISITN": 2,
    "ABLFL": "",
    "ANL01FL": "Y",
    "SAFFL": "Y"
  },
  {
    "STUDYID": "CDISCPILOT01",
    "USUBJID": "01-701-007",
    "TRTP": "Placebo",
    "TRTPN": 0,
    "PARAMCD": "TEMP",
    "PARAM": "Temperature ( C )",
    "AVAL": 36.8,
    "BASE": 36.7,
    "CHG": 0.1,
    "PCHG": 0.2725,
    "ADT": "2013-07-31",
    "ADY": 16,
    "AVISIT": "WEEK 2",
    "AVISITN": 3,
    "ABLFL": "",
    "ANL01FL": "Y",
    "SAFFL": "Y"
  },
  {
    "STUDYID": "CDISCPILOT01",
    "USUBJID": "01-701-007",
    "TRTP": "Placebo",
    "TRTPN": 0,
    "PARAMCD": "WEIGHT",
    "PARAM": "Weight ( kg )",
    "AVAL": 47.2,
    "BASE": 47.2,
    "CHG": 0,
    "PCHG": 0,
    "ADT": "2013-07-08",
    "ADY": -8,
    "AVISIT": "SCREENING",
    "AVISITN": 1,
    "ABLFL": "Y",
    "ANL01FL": "Y",
    "SAFFL": "Y"
  },
  {
    "STUDYID": "CDISCPILOT01",
    "USUBJID": "01-701-007",
    "TRTP": "Placebo",
    "TRTPN": 0,
    "PARAMCD": "WEIGHT",
    "PARAM": "Weight ( kg )",
    "AVAL": 46.3,
    "BASE": 47.2,
    "CHG": -0.9,
    "PCHG": -1.9068,
    "ADT": "2013-07-30",
    "ADY": 15,
    "AVISIT": "WEEK 2",
    "AVISITN": 3,
    "ABLFL": "",
    "ANL01FL": "Y",
    "SAFFL": "Y"
  },
  {
    "STUDYID": "CDISCPILOT01",
    "USUBJID": "01-701-007",
    "TRTP": "Placebo",
    "TRTPN": 0,
    "PARAMCD": "WEIGHT",
    "PARAM": "Weight ( kg )",
    "AVAL": 46.8,
    "BASE": 47.2,
    "CHG": -0.4,
    "PCHG": -0.8475,
    "ADT": "2013-11-06",
    "ADY": 114,
    "AVISIT": "WEEK 16",
    "AVISITN": 7,
    "ABLFL": "",
    "ANL01FL": "Y",
    "SAFFL": "Y"
  },
  {
    "STUDYID": "CDISCPILOT01",
    "USUBJID": "01-701-007",
    "TRTP": "Placebo",
    "TRTPN": 0,
    "PARAMCD": "WEIGHT",
    "PARAM": "Weight ( kg )",
    "AVAL": 47.5,
    "BASE": 47.2,
    "CHG": 0.3,
    "PCHG": 0.6356,
    "ADT": "2013-12-31",
    "ADY": 169,
    "AVISIT": "WEEK 24",
    "AVISITN": 9,
    "ABLFL": "",
    "ANL01FL": "Y",
    "SAFFL": "Y"
  },
  {
    "STUDYID": "CDISCPILOT01",
    "USUBJID": "01-701-007",
    "TRTP": "Placebo",
    "TRTPN": 0,
    "PARAMCD": "WEIGHT",
    "PARAM": "Weight ( kg )",
    "AVAL": 47.6,
    "BASE": 47.2,
    "CHG": 0.4,
    "PCHG": 0.8475,
    "ADT": "2013-08-13",
    "ADY": 29,
    "AVISIT": "WEEK 4",
    "AVISITN": 4,
    "ABLFL": "",
    "ANL01FL": "Y",
    "SAFFL": "Y"
  },
  {
    "STUDYID": "CDISCPILOT01",
    "USUBJID": "01-701-007",
    "TRTP": "Placebo",
    "TRTPN": 0,
    "PARAMCD": "WEIGHT",
    "PARAM": "Weight ( kg )",
    "AVAL": 46.6,
    "BASE": 47.2,
    "CHG": -0.6,
    "PCHG": -1.2712,
    "ADT": "2013-12-03",
    "ADY": 141,
    "AVISIT": "WEEK 20",
    "AVISITN": 8,
    "ABLFL": "",
    "ANL01FL": "Y",
    "SAFFL": "Y"
  },
  {
    "STUDYID": "CDISCPILOT01",
    "USUBJID": "01-701-007",
    "TRTP": "Placebo",
    "TRTPN": 0,
    "PARAMCD": "WEIGHT",
    "PARAM": "Weight ( kg )",
    "AVAL": 47.3,
    "BASE": 47.2,
    "CHG": 0.1,
    "PCHG": 0.2119,
    "ADT": "2013-10-08",
    "ADY": 85,
    "AVISIT": "WEEK 12",
    "AVISITN": 6,
    "ABLFL": "",
    "ANL01FL": "Y",
    "SAFFL": "Y"
  },
  {
    "STUDYID": "CDISCPILOT01",
    "USUBJID": "01-701-007",
    "TRTP": "Placebo",
    "TRTPN": 0,
    "PARAMCD": "WEIGHT",
    "PARAM": "Weight ( kg )",
    "AVAL": 47.3,
    "BASE": 47.2,
    "CHG": 0.1,
    "PCHG": 0.2119,
    "ADT": "2013-07-15",
    "ADY": -1,
    "AVISIT": "BASELINE",
    "AVISITN": 2,
    "ABLFL": "",
    "ANL01FL": "Y",
    "SAFFL": "Y"
  },
  {
    "STUDYID": "CDISCPILOT01",
    "USUBJID": "01-701-007",
    "TRTP": "Placebo",
    "TRTPN": 0,
    "PARAMCD": "WEIGHT",
    "PARAM": "Weight ( kg )",
    "AVAL": 47.8,
    "BASE": 47.2,
    "CHG": 0.6,
    "PCHG": 1.2712,
    "ADT": "2013-09-11",
    "ADY": 58,
    "AVISIT": "WEEK 8",
    "AVISITN": 5,
    "ABLFL": "",
    "ANL01FL": "Y",
    "SAFFL": "Y"
  },
  {
    "STUDYID": "CDISCPILOT01",
    "USUBJID": "01-701-008",
    "TRTP": "Xanomeline Low Dose",
    "TRTPN": 1,
    "PARAMCD": "DIABP",
    "PARAM": "Diastolic Blood Pressure ( mmHg )",
    "AVAL": 88.2,
    "BASE": 88.5,
    "CHG": -0.3,
    "PCHG": -0.339,
    "ADT": "2014-03-17",
    "ADY": 114,
    "AVISIT": "WEEK 16",
    "AVISITN": 7,
    "ABLFL": "",
    "ANL01FL": "Y",
    "SAFFL": "Y"
  },
  {
    "STUDYID": "CDISCPILOT01",
    "USUBJID": "01-701-008",
    "TRTP": "Xanomeline Low Dose",
    "TRTPN": 1,
    "PARAMCD": "DIABP",
    "PARAM": "Diastolic Blood Pressure ( mmHg )",
    "AVAL": 88.7,
    "BASE": 88.5,
    "CHG": 0.2,
    "PCHG": 0.226,
    "ADT": "2014-04-13",
    "ADY": 141,
    "AVISIT": "WEEK 20",
    "AVISITN": 8,
    "ABLFL": "",
    "ANL01FL": "Y",
    "SAFFL": "Y"
  },
  {
    "STUDYID": "CDISCPILOT01",
    "USUBJID": "01-701-008",
    "TRTP": "Xanomeline Low Dose",
    "TRTPN": 1,
    "PARAMCD": "DIABP",
    "PARAM": "Diastolic Blood Pressure ( mmHg )",
    "AVAL": 87.8,
    "BASE": 88.5,
    "CHG": -0.7,
    "PCHG": -0.791,
    "ADT": "2014-02-17",
    "ADY": 86,
    "AVISIT": "WEEK 12",
    "AVISITN": 6,
    "ABLFL": "",
    "ANL01FL": "Y",
    "SAFFL": "Y"
  },
  {
    "STUDYID": "CDISCPILOT01",
    "USUBJID": "01-701-008",
    "TRTP": "Xanomeline Low Dose",
    "TRTPN": 1,
    "PARAMCD": "DIABP",
    "PARAM": "Diastolic Blood Pressure ( mmHg )",
    "AVAL": 88.7,
    "BASE": 88.5,
    "CHG": 0.2,
    "PCHG": 0.226,
    "ADT": "2013-11-23",
    "ADY": -1,
    "AVISIT": "BASELINE",
    "AVISITN": 2,
    "ABLFL": "",
    "ANL01FL": "Y",
    "SAFFL": "Y"
  },
  {
    "STUDYID": "CDISCPILOT01",
    "USUBJID": "01-701-008",
    "TRTP": "Xanomeline Low Dose",
    "TRTPN": 1,
    "PARAMCD": "DIABP",
    "PARAM": "Diastolic Blood Pressure ( mmHg )",
    "AVAL": 85.8,
    "BASE": 88.5,
    "CHG": -2.7,
    "PCHG": -3.0508,
    "ADT": "2014-05-10",
    "ADY": 168,
    "AVISIT": "WEEK 24",
    "AVISITN": 9,
    "ABLFL": "",
    "ANL01FL": "Y",
    "SAFFL": "Y"
  },
  {
    "STUDYID": "CDISCPILOT01",
    "USUBJID": "01-701-008",
    "TRTP": "Xanomeline Low Dose",
    "TRTPN": 1,
    "PARAMCD": "DIABP",
    "PARAM": "Diastolic Blood Pressure ( mmHg )",
    "AVAL": 87.7,
    "BASE": 88.5,
    "CHG": -0.8,
    "PCHG": -0.904,
    "ADT": "2013-12-09",
    "ADY": 16,
    "AVISIT": "WEEK 2",
    "AVISITN": 3,
    "ABLFL": "",
    "ANL01FL": "Y",
    "SAFFL": "Y"
  },
  {
    "STUDYID": "CDISCPILOT01",
    "USUBJID": "01-701-008",
    "TRTP": "Xanomeline Low Dose",
    "TRTPN": 1,
    "PARAMCD": "DIABP",
    "PARAM": "Diastolic Blood Pressure ( mmHg )",
    "AVAL": 91.1,
    "BASE": 88.5,
    "CHG": 2.6,
    "PCHG": 2.9379,
    "ADT": "2013-12-23",
    "ADY": 30,
    "AVISIT": "WEEK 4",
    "AVISITN": 4,
    "ABLFL": "",
    "ANL01FL": "Y",
    "SAFFL": "Y"
  },
  {
    "STUDYID": "CDISCPILOT01",
    "USUBJID": "01-701-008",
    "TRTP": "Xanomeline Low Dose",
    "TRTPN": 1,
    "PARAMCD": "DIABP",
    "PARAM": "Diastolic Blood Pressure ( mmHg )",
    "AVAL": 87.9,
    "BASE": 88.5,
    "CHG": -0.6,
    "PCHG": -0.678,
    "ADT": "2014-01-19",
    "ADY": 57,
    "AVISIT": "WEEK 8",
    "AVISITN": 5,
    "ABLFL": "",
    "ANL01FL": "Y",
    "SAFFL": "Y"
  },
  {
    "STUDYID": "CDISCPILOT01",
    "USUBJID": "01-701-008",
    "TRTP": "Xanomeline Low Dose",
    "TRTPN": 1,
    "PARAMCD": "DIABP",
    "PARAM": "Diastolic Blood Pressure ( mmHg )",
    "AVAL": 88.5,
    "BASE": 88.5,
    "CHG": 0,
    "PCHG": 0,
    "ADT": "2013-11-16",
    "ADY": -8,
    "AVISIT": "SCREENING",
    "AVISITN": 1,
    "ABLFL": "Y",
    "ANL01FL": "Y",
    "SAFFL": "Y"
  },
  {
    "STUDYID": "CDISCPILOT01",
    "USUBJID": "01-701-008",
    "TRTP": "Xanomeline Low Dose",
    "TRTPN": 1,
    "PARAMCD": "HEIGHT",
    "PARAM": "Height ( cm )",
    "AVAL": 168,
    "BASE": 168,
    "CHG": 0,
    "PCHG": 0,
    "ADT": "2014-05-10",
    "ADY": 168,
    "AVISIT": "WEEK 24",
    "AVISITN": 9,
    "ABLFL": "",
    "ANL01FL": "Y",
    "SAFFL": "Y"
  },
  {
    "STUDYID": "CDISCPILOT01",
    "USUBJID": "01-701-008",
    "TRTP": "Xanomeline Low Dose",
    "TRTPN": 1,
    "PARAMCD": "HEIGHT",
    "PARAM": "Height ( cm )",
    "AVAL": 168,
    "BASE": 168,
    "CHG": 0,
    "PCHG": 0,
    "ADT": "2013-11-24",
    "ADY": 1,
    "AVISIT": "BASELINE",
    "AVISITN": 2,
    "ABLFL": "",
    "ANL01FL": "Y",
    "SAFFL": "Y"
  },
  {
    "STUDYID": "CDISCPILOT01",
    "USUBJID": "01-701-008",
    "TRTP": "Xanomeline Low Dose",
    "TRTPN": 1,
    "PARAMCD": "HEIGHT",
    "PARAM": "Height ( cm )",
    "AVAL": 168,
    "BASE": 168,
    "CHG": 0,
    "PCHG": 0,
    "ADT": "2014-04-13",
    "ADY": 141,
    "AVISIT": "WEEK 20",
    "AVISITN": 8,
    "ABLFL": "",
    "ANL01FL": "Y",
    "SAFFL": "Y"
  },
  {
    "STUDYID": "CDISCPILOT01",
    "USUBJID": "01-701-008",
    "TRTP": "Xanomeline Low Dose",
    "TRTPN": 1,
    "PARAMCD": "HEIGHT",
    "PARAM": "Height ( cm )",
    "AVAL": 168,
    "BASE": 168,
    "CHG": 0,
    "PCHG": 0,
    "ADT": "2014-03-15",
    "ADY": 112,
    "AVISIT": "WEEK 16",
    "AVISITN": 7,
    "ABLFL": "",
    "ANL01FL": "Y",
    "SAFFL": "Y"
  },
  {
    "STUDYID": "CDISCPILOT01",
    "USUBJID": "01-701-008",
    "TRTP": "Xanomeline Low Dose",
    "TRTPN": 1,
    "PARAMCD": "HEIGHT",
    "PARAM": "Height ( cm )",
    "AVAL": 168,
    "BASE": 168,
    "CHG": 0,
    "PCHG": 0,
    "ADT": "2014-01-19",
    "ADY": 57,
    "AVISIT": "WEEK 8",
    "AVISITN": 5,
    "ABLFL": "",
    "ANL01FL": "Y",
    "SAFFL": "Y"
  },
  {
    "STUDYID": "CDISCPILOT01",
    "USUBJID": "01-701-008",
    "TRTP": "Xanomeline Low Dose",
    "TRTPN": 1,
    "PARAMCD": "HEIGHT",
    "PARAM": "Height ( cm )",
    "AVAL": 168,
    "BASE": 168,
    "CHG": 0,
    "PCHG": 0,
    "ADT": "2013-11-15",
    "ADY": -9,
    "AVISIT": "SCREENING",
    "AVISITN": 1,
    "ABLFL": "Y",
    "ANL01FL": "Y",
    "SAFFL": "Y"
  },
  {
    "STUDYID": "CDISCPILOT01",
    "USUBJID": "01-701-008",
    "TRTP": "Xanomeline Low Dose",
    "TRTPN": 1,
    "PARAMCD": "HEIGHT",
    "PARAM": "Height ( cm )",
    "AVAL": 168,
    "BASE": 168,
    "CHG": 0,
    "PCHG": 0,
    "ADT": "2014-02-15",
    "ADY": 84,
    "AVISIT": "WEEK 12",
    "AVISITN": 6,
    "ABLFL": "",
    "ANL01FL": "Y",
    "SAFFL": "Y"
  },
  {
    "STUDYID": "CDISCPILOT01",
    "USUBJID": "01-701-008",
    "TRTP": "Xanomeline Low Dose",
    "TRTPN": 1,
    "PARAMCD": "HEIGHT",
    "PARAM": "Height ( cm )",
    "AVAL": 168,
    "BASE": 168,
    "CHG": 0,
    "PCHG": 0,
    "ADT": "2013-12-08",
    "ADY": 15,
    "AVISIT": "WEEK 2",
    "AVISITN": 3,
    "ABLFL": "",
    "ANL01FL": "Y",
    "SAFFL": "Y"
  },
  {
    "STUDYID": "CDISCPILOT01",
    "USUBJID": "01-701-008",
    "TRTP": "Xanomeline Low Dose",
    "TRTPN": 1,
    "PARAMCD": "HEIGHT",
    "PARAM": "Height ( cm )",
    "AVAL": 168,
    "BASE": 168,
    "CHG": 0,
    "PCHG": 0,
    "ADT": "2013-12-22",
    "ADY": 29,
    "AVISIT": "WEEK 4",
    "AVISITN": 4,
    "ABLFL": "",
    "ANL01FL": "Y",
    "SAFFL": "Y"
  },
  {
    "STUDYID": "CDISCPILOT01",
    "USUBJID": "01-701-008",
    "TRTP": "Xanomeline Low Dose",
    "TRTPN": 1,
    "PARAMCD": "PULSE",
    "PARAM": "Pulse Rate ( beats/min )",
    "AVAL": 98.9,
    "BASE": 98.3,
    "CHG": 0.6,
    "PCHG": 0.6104,
    "ADT": "2014-02-16",
    "ADY": 85,
    "AVISIT": "WEEK 12",
    "AVISITN": 6,
    "ABLFL": "",
    "ANL01FL": "Y",
    "SAFFL": "Y"
  },
  {
    "STUDYID": "CDISCPILOT01",
    "USUBJID": "01-701-008",
    "TRTP": "Xanomeline Low Dose",
    "TRTPN": 1,
    "PARAMCD": "PULSE",
    "PARAM": "Pulse Rate ( beats/min )",
    "AVAL": 93.1,
    "BASE": 98.3,
    "CHG": -5.2,
    "PCHG": -5.2899,
    "ADT": "2014-03-16",
    "ADY": 113,
    "AVISIT": "WEEK 16",
    "AVISITN": 7,
    "ABLFL": "",
    "ANL01FL": "Y",
    "SAFFL": "Y"
  },
  {
    "STUDYID": "CDISCPILOT01",
    "USUBJID": "01-701-008",
    "TRTP": "Xanomeline Low Dose",
    "TRTPN": 1,
    "PARAMCD": "PULSE",
    "PARAM": "Pulse Rate ( beats/min )",
    "AVAL": 96.5,
    "BASE": 98.3,
    "CHG": -1.8,
    "PCHG": -1.8311,
    "ADT": "2013-12-22",
    "ADY": 29,
    "AVISIT": "WEEK 4",
    "AVISITN": 4,
    "ABLFL": "",
    "ANL01FL": "Y",
    "SAFFL": "Y"
  },
  {
    "STUDYID": "CDISCPILOT01",
    "USUBJID": "01-701-008",
    "TRTP": "Xanomeline Low Dose",
    "TRTPN": 1,
    "PARAMCD": "PULSE",
    "PARAM": "Pulse Rate ( beats/min )",
    "AVAL": 99.6,
    "BASE": 98.3,
    "CHG": 1.3,
    "PCHG": 1.3225,
    "ADT": "2014-05-10",
    "ADY": 168,
    "AVISIT": "WEEK 24",
    "AVISITN": 9,
    "ABLFL": "",
    "ANL01FL": "Y",
    "SAFFL": "Y"
  },
  {
    "STUDYID": "CDISCPILOT01",
    "USUBJID": "01-701-008",
    "TRTP": "Xanomeline Low Dose",
    "TRTPN": 1,
    "PARAMCD": "PULSE",
    "PARAM": "Pulse Rate ( beats/min )",
    "AVAL": 92.7,
    "BASE": 98.3,
    "CHG": -5.6,
    "PCHG": -5.6968,
    "ADT": "2014-01-19",
    "ADY": 57,
    "AVISIT": "WEEK 8",
    "AVISITN": 5,
    "ABLFL": "",
    "ANL01FL": "Y",
    "SAFFL": "Y"
  },
  {
    "STUDYID": "CDISCPILOT01",
    "USUBJID": "01-701-008",
    "TRTP": "Xanomeline Low Dose",
    "TRTPN": 1,
    "PARAMCD": "PULSE",
    "PARAM": "Pulse Rate ( beats/min )",
    "AVAL": 97.3,
    "BASE": 98.3,
    "CHG": -1,
    "PCHG": -1.0173,
    "ADT": "2013-12-07",
    "ADY": 14,
    "AVISIT": "WEEK 2",
    "AVISITN": 3,
    "ABLFL": "",
    "ANL01FL": "Y",
    "SAFFL": "Y"
  },
  {
    "STUDYID": "CDISCPILOT01",
    "USUBJID": "01-701-008",
    "TRTP": "Xanomeline Low Dose",
    "TRTPN": 1,
    "PARAMCD": "PULSE",
    "PARAM": "Pulse Rate ( beats/min )",
    "AVAL": 100.2,
    "BASE": 98.3,
    "CHG": 1.9,
    "PCHG": 1.9329,
    "ADT": "2013-11-25",
    "ADY": 2,
    "AVISIT": "BASELINE",
    "AVISITN": 2,
    "ABLFL": "",
    "ANL01FL": "Y",
    "SAFFL": "Y"
  },
  {
    "STUDYID": "CDISCPILOT01",
    "USUBJID": "01-701-008",
    "TRTP": "Xanomeline Low Dose",
    "TRTPN": 1,
    "PARAMCD": "PULSE",
    "PARAM": "Pulse Rate ( beats/min )",
    "AVAL": 96.6,
    "BASE": 98.3,
    "CHG": -1.7,
    "PCHG": -1.7294,
    "ADT": "2014-04-13",
    "ADY": 141,
    "AVISIT": "WEEK 20",
    "AVISITN": 8,
    "ABLFL": "",
    "ANL01FL": "Y",
    "SAFFL": "Y"
  },
  {
    "STUDYID": "CDISCPILOT01",
    "USUBJID": "01-701-008",
    "TRTP": "Xanomeline Low Dose",
    "TRTPN": 1,
    "PARAMCD": "PULSE",
    "PARAM": "Pulse Rate ( beats/min )",
    "AVAL": 98.3,
    "BASE": 98.3,
    "CHG": 0,
    "PCHG": 0,
    "ADT": "2013-11-15",
    "ADY": -9,
    "AVISIT": "SCREENING",
    "AVISITN": 1,
    "ABLFL": "Y",
    "ANL01FL": "Y",
    "SAFFL": "Y"
  },
  {
    "STUDYID": "CDISCPILOT01",
    "USUBJID": "01-701-008",
    "TRTP": "Xanomeline Low Dose",
    "TRTPN": 1,
    "PARAMCD": "RESP",
    "PARAM": "Respiratory Rate ( breaths/min )",
    "AVAL": 16.5,
    "BASE": 16.5,
    "CHG": 0,
    "PCHG": 0,
    "ADT": "2014-01-19",
    "ADY": 57,
    "AVISIT": "WEEK 8",
    "AVISITN": 5,
    "ABLFL": "",
    "ANL01FL": "Y",
    "SAFFL": "Y"
  },
  {
    "STUDYID": "CDISCPILOT01",
    "USUBJID": "01-701-008",
    "TRTP": "Xanomeline Low Dose",
    "TRTPN": 1,
    "PARAMCD": "RESP",
    "PARAM": "Respiratory Rate ( breaths/min )",
    "AVAL": 16.5,
    "BASE": 16.5,
    "CHG": 0,
    "PCHG": 0,
    "ADT": "2014-04-12",
    "ADY": 140,
    "AVISIT": "WEEK 20",
    "AVISITN": 8,
    "ABLFL": "",
    "ANL01FL": "Y",
    "SAFFL": "Y"
  },
  {
    "STUDYID": "CDISCPILOT01",
    "USUBJID": "01-701-008",
    "TRTP": "Xanomeline Low Dose",
    "TRTPN": 1,
    "PARAMCD": "RESP",
    "PARAM": "Respiratory Rate ( breaths/min )",
    "AVAL": 16,
    "BASE": 16.5,
    "CHG": -0.5,
    "PCHG": -3.0303,
    "ADT": "2013-12-22",
    "ADY": 29,
    "AVISIT": "WEEK 4",
    "AVISITN": 4,
    "ABLFL": "",
    "ANL01FL": "Y",
    "SAFFL": "Y"
  },
  {
    "STUDYID": "CDISCPILOT01",
    "USUBJID": "01-701-008",
    "TRTP": "Xanomeline Low Dose",
    "TRTPN": 1,
    "PARAMCD": "RESP",
    "PARAM": "Respiratory Rate ( breaths/min )",
    "AVAL": 16.6,
    "BASE": 16.5,
    "CHG": 0.1,
    "PCHG": 0.6061,
    "ADT": "2013-11-23",
    "ADY": -1,
    "AVISIT": "BASELINE",
    "AVISITN": 2,
    "ABLFL": "",
    "ANL01FL": "Y",
    "SAFFL": "Y"
  },
  {
    "STUDYID": "CDISCPILOT01",
    "USUBJID": "01-701-008",
    "TRTP": "Xanomeline Low Dose",
    "TRTPN": 1,
    "PARAMCD": "RESP",
    "PARAM": "Respiratory Rate ( breaths/min )",
    "AVAL": 16.5,
    "BASE": 16.5,
    "CHG": 0,
    "PCHG": 0,
    "ADT": "2014-02-17",
    "ADY": 86,
    "AVISIT": "WEEK 12",
    "AVISITN": 6,
    "ABLFL": "",
    "ANL01FL": "Y",
    "SAFFL": "Y"
  },
  {
    "STUDYID": "CDISCPILOT01",
    "USUBJID": "01-701-008",
    "TRTP": "Xanomeline Low Dose",
    "TRTPN": 1,
    "PARAMCD": "RESP",
    "PARAM": "Respiratory Rate ( breaths/min )",
    "AVAL": 16.5,
    "BASE": 16.5,
    "CHG": 0,
    "PCHG": 0,
    "ADT": "2013-11-16",
    "ADY": -8,
    "AVISIT": "SCREENING",
    "AVISITN": 1,
    "ABLFL": "Y",
    "ANL01FL": "Y",
    "SAFFL": "Y"
  },
  {
    "STUDYID": "CDISCPILOT01",
    "USUBJID": "01-701-008",
    "TRTP": "Xanomeline Low Dose",
    "TRTPN": 1,
    "PARAMCD": "RESP",
    "PARAM": "Respiratory Rate ( breaths/min )",
    "AVAL": 16.1,
    "BASE": 16.5,
    "CHG": -0.4,
    "PCHG": -2.4242,
    "ADT": "2013-12-09",
    "ADY": 16,
    "AVISIT": "WEEK 2",
    "AVISITN": 3,
    "ABLFL": "",
    "ANL01FL": "Y",
    "SAFFL": "Y"
  },
  {
    "STUDYID": "CDISCPILOT01",
    "USUBJID": "01-701-008",
    "TRTP": "Xanomeline Low Dose",
    "TRTPN": 1,
    "PARAMCD": "RESP",
    "PARAM": "Respiratory Rate ( breaths/min )",
    "AVAL": 16.7,
    "BASE": 16.5,
    "CHG": 0.2,
    "PCHG": 1.2121,
    "ADT": "2014-03-15",
    "ADY": 112,
    "AVISIT": "WEEK 16",
    "AVISITN": 7,
    "ABLFL": "",
    "ANL01FL": "Y",
    "SAFFL": "Y"
  },
  {
    "STUDYID": "CDISCPILOT01",
    "USUBJID": "01-701-008",
    "TRTP": "Xanomeline Low Dose",
    "TRTPN": 1,
    "PARAMCD": "RESP",
    "PARAM": "Respiratory Rate ( breaths/min )",
    "AVAL": 16.6,
    "BASE": 16.5,
    "CHG": 0.1,
    "PCHG": 0.6061,
    "ADT": "2014-05-12",
    "ADY": 170,
    "AVISIT": "WEEK 24",
    "AVISITN": 9,
    "ABLFL": "",
    "ANL01FL": "Y",
    "SAFFL": "Y"
  },
  {
    "STUDYID": "CDISCPILOT01",
    "USUBJID": "01-701-008",
    "TRTP": "Xanomeline Low Dose",
    "TRTPN": 1,
    "PARAMCD": "SYSBP",
    "PARAM": "Systolic Blood Pressure ( mmHg )",
    "AVAL": 168,
    "BASE": 168,
    "CHG": 0,
    "PCHG": 0,
    "ADT": "2014-05-12",
    "ADY": 170,
    "AVISIT": "WEEK 24",
    "AVISITN": 9,
    "ABLFL": "",
    "ANL01FL": "Y",
    "SAFFL": "Y"
  },
  {
    "STUDYID": "CDISCPILOT01",
    "USUBJID": "01-701-008",
    "TRTP": "Xanomeline Low Dose",
    "TRTPN": 1,
    "PARAMCD": "SYSBP",
    "PARAM": "Systolic Blood Pressure ( mmHg )",
    "AVAL": 168,
    "BASE": 168,
    "CHG": 0,
    "PCHG": 0,
    "ADT": "2014-04-14",
    "ADY": 142,
    "AVISIT": "WEEK 20",
    "AVISITN": 8,
    "ABLFL": "",
    "ANL01FL": "Y",
    "SAFFL": "Y"
  },
  {
    "STUDYID": "CDISCPILOT01",
    "USUBJID": "01-701-008",
    "TRTP": "Xanomeline Low Dose",
    "TRTPN": 1,
    "PARAMCD": "SYSBP",
    "PARAM": "Systolic Blood Pressure ( mmHg )",
    "AVAL": 168,
    "BASE": 168,
    "CHG": 0,
    "PCHG": 0,
    "ADT": "2014-02-16",
    "ADY": 85,
    "AVISIT": "WEEK 12",
    "AVISITN": 6,
    "ABLFL": "",
    "ANL01FL": "Y",
    "SAFFL": "Y"
  },
  {
    "STUDYID": "CDISCPILOT01",
    "USUBJID": "01-701-008",
    "TRTP": "Xanomeline Low Dose",
    "TRTPN": 1,
    "PARAMCD": "SYSBP",
    "PARAM": "Systolic Blood Pressure ( mmHg )",
    "AVAL": 167.7,
    "BASE": 168,
    "CHG": -0.3,
    "PCHG": -0.1786,
    "ADT": "2014-03-17",
    "ADY": 114,
    "AVISIT": "WEEK 16",
    "AVISITN": 7,
    "ABLFL": "",
    "ANL01FL": "Y",
    "SAFFL": "Y"
  },
  {
    "STUDYID": "CDISCPILOT01",
    "USUBJID": "01-701-008",
    "TRTP": "Xanomeline Low Dose",
    "TRTPN": 1,
    "PARAMCD": "SYSBP",
    "PARAM": "Systolic Blood Pressure ( mmHg )",
    "AVAL": 168,
    "BASE": 168,
    "CHG": 0,
    "PCHG": 0,
    "ADT": "2014-01-20",
    "ADY": 58,
    "AVISIT": "WEEK 8",
    "AVISITN": 5,
    "ABLFL": "",
    "ANL01FL": "Y",
    "SAFFL": "Y"
  },
  {
    "STUDYID": "CDISCPILOT01",
    "USUBJID": "01-701-008",
    "TRTP": "Xanomeline Low Dose",
    "TRTPN": 1,
    "PARAMCD": "SYSBP",
    "PARAM": "Systolic Blood Pressure ( mmHg )",
    "AVAL": 168,
    "BASE": 168,
    "CHG": 0,
    "PCHG": 0,
    "ADT": "2013-12-09",
    "ADY": 16,
    "AVISIT": "WEEK 2",
    "AVISITN": 3,
    "ABLFL": "",
    "ANL01FL": "Y",
    "SAFFL": "Y"
  },
  {
    "STUDYID": "CDISCPILOT01",
    "USUBJID": "01-701-008",
    "TRTP": "Xanomeline Low Dose",
    "TRTPN": 1,
    "PARAMCD": "SYSBP",
    "PARAM": "Systolic Blood Pressure ( mmHg )",
    "AVAL": 168,
    "BASE": 168,
    "CHG": 0,
    "PCHG": 0,
    "ADT": "2013-12-22",
    "ADY": 29,
    "AVISIT": "WEEK 4",
    "AVISITN": 4,
    "ABLFL": "",
    "ANL01FL": "Y",
    "SAFFL": "Y"
  },
  {
    "STUDYID": "CDISCPILOT01",
    "USUBJID": "01-701-008",
    "TRTP": "Xanomeline Low Dose",
    "TRTPN": 1,
    "PARAMCD": "SYSBP",
    "PARAM": "Systolic Blood Pressure ( mmHg )",
    "AVAL": 168,
    "BASE": 168,
    "CHG": 0,
    "PCHG": 0,
    "ADT": "2013-11-25",
    "ADY": 2,
    "AVISIT": "BASELINE",
    "AVISITN": 2,
    "ABLFL": "",
    "ANL01FL": "Y",
    "SAFFL": "Y"
  },
  {
    "STUDYID": "CDISCPILOT01",
    "USUBJID": "01-701-008",
    "TRTP": "Xanomeline Low Dose",
    "TRTPN": 1,
    "PARAMCD": "SYSBP",
    "PARAM": "Systolic Blood Pressure ( mmHg )",
    "AVAL": 168,
    "BASE": 168,
    "CHG": 0,
    "PCHG": 0,
    "ADT": "2013-11-16",
    "ADY": -8,
    "AVISIT": "SCREENING",
    "AVISITN": 1,
    "ABLFL": "Y",
    "ANL01FL": "Y",
    "SAFFL": "Y"
  },
  {
    "STUDYID": "CDISCPILOT01",
    "USUBJID": "01-701-008",
    "TRTP": "Xanomeline Low Dose",
    "TRTPN": 1,
    "PARAMCD": "TEMP",
    "PARAM": "Temperature ( C )",
    "AVAL": 36.3,
    "BASE": 36.3,
    "CHG": 0,
    "PCHG": 0,
    "ADT": "2014-05-11",
    "ADY": 169,
    "AVISIT": "WEEK 24",
    "AVISITN": 9,
    "ABLFL": "",
    "ANL01FL": "Y",
    "SAFFL": "Y"
  },
  {
    "STUDYID": "CDISCPILOT01",
    "USUBJID": "01-701-008",
    "TRTP": "Xanomeline Low Dose",
    "TRTPN": 1,
    "PARAMCD": "TEMP",
    "PARAM": "Temperature ( C )",
    "AVAL": 36.4,
    "BASE": 36.3,
    "CHG": 0.1,
    "PCHG": 0.2755,
    "ADT": "2014-01-18",
    "ADY": 56,
    "AVISIT": "WEEK 8",
    "AVISITN": 5,
    "ABLFL": "",
    "ANL01FL": "Y",
    "SAFFL": "Y"
  },
  {
    "STUDYID": "CDISCPILOT01",
    "USUBJID": "01-701-008",
    "TRTP": "Xanomeline Low Dose",
    "TRTPN": 1,
    "PARAMCD": "TEMP",
    "PARAM": "Temperature ( C )",
    "AVAL": 36.2,
    "BASE": 36.3,
    "CHG": -0.1,
    "PCHG": -0.2755,
    "ADT": "2014-02-15",
    "ADY": 84,
    "AVISIT": "WEEK 12",
    "AVISITN": 6,
    "ABLFL": "",
    "ANL01FL": "Y",
    "SAFFL": "Y"
  },
  {
    "STUDYID": "CDISCPILOT01",
    "USUBJID": "01-701-008",
    "TRTP": "Xanomeline Low Dose",
    "TRTPN": 1,
    "PARAMCD": "TEMP",
    "PARAM": "Temperature ( C )",
    "AVAL": 36.3,
    "BASE": 36.3,
    "CHG": 0,
    "PCHG": 0,
    "ADT": "2014-03-16",
    "ADY": 113,
    "AVISIT": "WEEK 16",
    "AVISITN": 7,
    "ABLFL": "",
    "ANL01FL": "Y",
    "SAFFL": "Y"
  },
  {
    "STUDYID": "CDISCPILOT01",
    "USUBJID": "01-701-008",
    "TRTP": "Xanomeline Low Dose",
    "TRTPN": 1,
    "PARAMCD": "TEMP",
    "PARAM": "Temperature ( C )",
    "AVAL": 36.3,
    "BASE": 36.3,
    "CHG": 0,
    "PCHG": 0,
    "ADT": "2013-11-15",
    "ADY": -9,
    "AVISIT": "SCREENING",
    "AVISITN": 1,
    "ABLFL": "Y",
    "ANL01FL": "Y",
    "SAFFL": "Y"
  },
  {
    "STUDYID": "CDISCPILOT01",
    "USUBJID": "01-701-008",
    "TRTP": "Xanomeline Low Dose",
    "TRTPN": 1,
    "PARAMCD": "TEMP",
    "PARAM": "Temperature ( C )",
    "AVAL": 36.3,
    "BASE": 36.3,
    "CHG": 0,
    "PCHG": 0,
    "ADT": "2014-04-13",
    "ADY": 141,
    "AVISIT": "WEEK 20",
    "AVISITN": 8,
    "ABLFL": "",
    "ANL01FL": "Y",
    "SAFFL": "Y"
  },
  {
    "STUDYID": "CDISCPILOT01",
    "USUBJID": "01-701-008",
    "TRTP": "Xanomeline Low Dose",
    "TRTPN": 1,
    "PARAMCD": "TEMP",
    "PARAM": "Temperature ( C )",
    "AVAL": 36.2,
    "BASE": 36.3,
    "CHG": -0.1,
    "PCHG": -0.2755,
    "ADT": "2013-12-23",
    "ADY": 30,
    "AVISIT": "WEEK 4",
    "AVISITN": 4,
    "ABLFL": "",
    "ANL01FL": "Y",
    "SAFFL": "Y"
  },
  {
    "STUDYID": "CDISCPILOT01",
    "USUBJID": "01-701-008",
    "TRTP": "Xanomeline Low Dose",
    "TRTPN": 1,
    "PARAMCD": "TEMP",
    "PARAM": "Temperature ( C )",
    "AVAL": 36.4,
    "BASE": 36.3,
    "CHG": 0.1,
    "PCHG": 0.2755,
    "ADT": "2013-11-25",
    "ADY": 2,
    "AVISIT": "BASELINE",
    "AVISITN": 2,
    "ABLFL": "",
    "ANL01FL": "Y",
    "SAFFL": "Y"
  },
  {
    "STUDYID": "CDISCPILOT01",
    "USUBJID": "01-701-008",
    "TRTP": "Xanomeline Low Dose",
    "TRTPN": 1,
    "PARAMCD": "TEMP",
    "PARAM": "Temperature ( C )",
    "AVAL": 36.3,
    "BASE": 36.3,
    "CHG": 0,
    "PCHG": 0,
    "ADT": "2013-12-07",
    "ADY": 14,
    "AVISIT": "WEEK 2",
    "AVISITN": 3,
    "ABLFL": "",
    "ANL01FL": "Y",
    "SAFFL": "Y"
  },
  {
    "STUDYID": "CDISCPILOT01",
    "USUBJID": "01-701-008",
    "TRTP": "Xanomeline Low Dose",
    "TRTPN": 1,
    "PARAMCD": "WEIGHT",
    "PARAM": "Weight ( kg )",
    "AVAL": 78.5,
    "BASE": 78.5,
    "CHG": 0,
    "PCHG": 0,
    "ADT": "2013-11-15",
    "ADY": -9,
    "AVISIT": "SCREENING",
    "AVISITN": 1,
    "ABLFL": "Y",
    "ANL01FL": "Y",
    "SAFFL": "Y"
  },
  {
    "STUDYID": "CDISCPILOT01",
    "USUBJID": "01-701-008",
    "TRTP": "Xanomeline Low Dose",
    "TRTPN": 1,
    "PARAMCD": "WEIGHT",
    "PARAM": "Weight ( kg )",
    "AVAL": 78.9,
    "BASE": 78.5,
    "CHG": 0.4,
    "PCHG": 0.5096,
    "ADT": "2013-12-08",
    "ADY": 15,
    "AVISIT": "WEEK 2",
    "AVISITN": 3,
    "ABLFL": "",
    "ANL01FL": "Y",
    "SAFFL": "Y"
  },
  {
    "STUDYID": "CDISCPILOT01",
    "USUBJID": "01-701-008",
    "TRTP": "Xanomeline Low Dose",
    "TRTPN": 1,
    "PARAMCD": "WEIGHT",
    "PARAM": "Weight ( kg )",
    "AVAL": 79,
    "BASE": 78.5,
    "CHG": 0.5,
    "PCHG": 0.6369,
    "ADT": "2014-03-17",
    "ADY": 114,
    "AVISIT": "WEEK 16",
    "AVISITN": 7,
    "ABLFL": "",
    "ANL01FL": "Y",
    "SAFFL": "Y"
  },
  {
    "STUDYID": "CDISCPILOT01",
    "USUBJID": "01-701-008",
    "TRTP": "Xanomeline Low Dose",
    "TRTPN": 1,
    "PARAMCD": "WEIGHT",
    "PARAM": "Weight ( kg )",
    "AVAL": 78.9,
    "BASE": 78.5,
    "CHG": 0.4,
    "PCHG": 0.5096,
    "ADT": "2014-05-10",
    "ADY": 168,
    "AVISIT": "WEEK 24",
    "AVISITN": 9,
    "ABLFL": "",
    "ANL01FL": "Y",
    "SAFFL": "Y"
  },
  {
    "STUDYID": "CDISCPILOT01",
    "USUBJID": "01-701-008",
    "TRTP": "Xanomeline Low Dose",
    "TRTPN": 1,
    "PARAMCD": "WEIGHT",
    "PARAM": "Weight ( kg )",
    "AVAL": 78.9,
    "BASE": 78.5,
    "CHG": 0.4,
    "PCHG": 0.5096,
    "ADT": "2013-12-22",
    "ADY": 29,
    "AVISIT": "WEEK 4",
    "AVISITN": 4,
    "ABLFL": "",
    "ANL01FL": "Y",
    "SAFFL": "Y"
  },
  {
    "STUDYID": "CDISCPILOT01",
    "USUBJID": "01-701-008",
    "TRTP": "Xanomeline Low Dose",
    "TRTPN": 1,
    "PARAMCD": "WEIGHT",
    "PARAM": "Weight ( kg )",
    "AVAL": 78.6,
    "BASE": 78.5,
    "CHG": 0.1,
    "PCHG": 0.1274,
    "ADT": "2014-04-12",
    "ADY": 140,
    "AVISIT": "WEEK 20",
    "AVISITN": 8,
    "ABLFL": "",
    "ANL01FL": "Y",
    "SAFFL": "Y"
  },
  {
    "STUDYID": "CDISCPILOT01",
    "USUBJID": "01-701-008",
    "TRTP": "Xanomeline Low Dose",
    "TRTPN": 1,
    "PARAMCD": "WEIGHT",
    "PARAM": "Weight ( kg )",
    "AVAL": 79,
    "BASE": 78.5,
    "CHG": 0.5,
    "PCHG": 0.6369,
    "ADT": "2014-02-16",
    "ADY": 85,
    "AVISIT": "WEEK 12",
    "AVISITN": 6,
    "ABLFL": "",
    "ANL01FL": "Y",
    "SAFFL": "Y"
  },
  {
    "STUDYID": "CDISCPILOT01",
    "USUBJID": "01-701-008",
    "TRTP": "Xanomeline Low Dose",
    "TRTPN": 1,
    "PARAMCD": "WEIGHT",
    "PARAM": "Weight ( kg )",
    "AVAL": 80,
    "BASE": 78.5,
    "CHG": 1.5,
    "PCHG": 1.9108,
    "ADT": "2013-11-23",
    "ADY": -1,
    "AVISIT": "BASELINE",
    "AVISITN": 2,
    "ABLFL": "",
    "ANL01FL": "Y",
    "SAFFL": "Y"
  },
  {
    "STUDYID": "CDISCPILOT01",
    "USUBJID": "01-701-008",
    "TRTP": "Xanomeline Low Dose",
    "TRTPN": 1,
    "PARAMCD": "WEIGHT",
    "PARAM": "Weight ( kg )",
    "AVAL": 78.9,
    "BASE": 78.5,
    "CHG": 0.4,
    "PCHG": 0.5096,
    "ADT": "2014-01-18",
    "ADY": 56,
    "AVISIT": "WEEK 8",
    "AVISITN": 5,
    "ABLFL": "",
    "ANL01FL": "Y",
    "SAFFL": "Y"
  },
  {
    "STUDYID": "CDISCPILOT01",
    "USUBJID": "01-701-009",
    "TRTP": "Xanomeline Low Dose",
    "TRTPN": 1,
    "PARAMCD": "DIABP",
    "PARAM": "Diastolic Blood Pressure ( mmHg )",
    "AVAL": 70.6,
    "BASE": 69.6,
    "CHG": 1,
    "PCHG": 1.4368,
    "ADT": "2013-06-24",
    "ADY": 17,
    "AVISIT": "WEEK 2",
    "AVISITN": 3,
    "ABLFL": "",
    "ANL01FL": "Y",
    "SAFFL": "Y"
  },
  {
    "STUDYID": "CDISCPILOT01",
    "USUBJID": "01-701-009",
    "TRTP": "Xanomeline Low Dose",
    "TRTPN": 1,
    "PARAMCD": "DIABP",
    "PARAM": "Diastolic Blood Pressure ( mmHg )",
    "AVAL": 69.7,
    "BASE": 69.6,
    "CHG": 0.1,
    "PCHG": 0.1437,
    "ADT": "2013-07-08",
    "ADY": 31,
    "AVISIT": "WEEK 4",
    "AVISITN": 4,
    "ABLFL": "",
    "ANL01FL": "Y",
    "SAFFL": "Y"
  },
  {
    "STUDYID": "CDISCPILOT01",
    "USUBJID": "01-701-009",
    "TRTP": "Xanomeline Low Dose",
    "TRTPN": 1,
    "PARAMCD": "DIABP",
    "PARAM": "Diastolic Blood Pressure ( mmHg )",
    "AVAL": 69.6,
    "BASE": 69.6,
    "CHG": 0,
    "PCHG": 0,
    "ADT": "2013-06-02",
    "ADY": -6,
    "AVISIT": "SCREENING",
    "AVISITN": 1,
    "ABLFL": "Y",
    "ANL01FL": "Y",
    "SAFFL": "Y"
  },
  {
    "STUDYID": "CDISCPILOT01",
    "USUBJID": "01-701-009",
    "TRTP": "Xanomeline Low Dose",
    "TRTPN": 1,
    "PARAMCD": "DIABP",
    "PARAM": "Diastolic Blood Pressure ( mmHg )",
    "AVAL": 67.8,
    "BASE": 69.6,
    "CHG": -1.8,
    "PCHG": -2.5862,
    "ADT": "2013-06-09",
    "ADY": 2,
    "AVISIT": "BASELINE",
    "AVISITN": 2,
    "ABLFL": "",
    "ANL01FL": "Y",
    "SAFFL": "Y"
  },
  {
    "STUDYID": "CDISCPILOT01",
    "USUBJID": "01-701-009",
    "TRTP": "Xanomeline Low Dose",
    "TRTPN": 1,
    "PARAMCD": "HEIGHT",
    "PARAM": "Height ( cm )",
    "AVAL": 158.8,
    "BASE": 158.8,
    "CHG": 0,
    "PCHG": 0,
    "ADT": "2013-06-22",
    "ADY": 15,
    "AVISIT": "WEEK 2",
    "AVISITN": 3,
    "ABLFL": "",
    "ANL01FL": "Y",
    "SAFFL": "Y"
  },
  {
    "STUDYID": "CDISCPILOT01",
    "USUBJID": "01-701-009",
    "TRTP": "Xanomeline Low Dose",
    "TRTPN": 1,
    "PARAMCD": "HEIGHT",
    "PARAM": "Height ( cm )",
    "AVAL": 158.8,
    "BASE": 158.8,
    "CHG": 0,
    "PCHG": 0,
    "ADT": "2013-07-08",
    "ADY": 31,
    "AVISIT": "WEEK 4",
    "AVISITN": 4,
    "ABLFL": "",
    "ANL01FL": "Y",
    "SAFFL": "Y"
  },
  {
    "STUDYID": "CDISCPILOT01",
    "USUBJID": "01-701-009",
    "TRTP": "Xanomeline Low Dose",
    "TRTPN": 1,
    "PARAMCD": "HEIGHT",
    "PARAM": "Height ( cm )",
    "AVAL": 158.8,
    "BASE": 158.8,
    "CHG": 0,
    "PCHG": 0,
    "ADT": "2013-05-31",
    "ADY": -8,
    "AVISIT": "SCREENING",
    "AVISITN": 1,
    "ABLFL": "Y",
    "ANL01FL": "Y",
    "SAFFL": "Y"
  },
  {
    "STUDYID": "CDISCPILOT01",
    "USUBJID": "01-701-009",
    "TRTP": "Xanomeline Low Dose",
    "TRTPN": 1,
    "PARAMCD": "HEIGHT",
    "PARAM": "Height ( cm )",
    "AVAL": 158.8,
    "BASE": 158.8,
    "CHG": 0,
    "PCHG": 0,
    "ADT": "2013-06-08",
    "ADY": 1,
    "AVISIT": "BASELINE",
    "AVISITN": 2,
    "ABLFL": "",
    "ANL01FL": "Y",
    "SAFFL": "Y"
  },
  {
    "STUDYID": "CDISCPILOT01",
    "USUBJID": "01-701-009",
    "TRTP": "Xanomeline Low Dose",
    "TRTPN": 1,
    "PARAMCD": "PULSE",
    "PARAM": "Pulse Rate ( beats/min )",
    "AVAL": 79.8,
    "BASE": 76.8,
    "CHG": 3,
    "PCHG": 3.9062,
    "ADT": "2013-06-23",
    "ADY": 16,
    "AVISIT": "WEEK 2",
    "AVISITN": 3,
    "ABLFL": "",
    "ANL01FL": "Y",
    "SAFFL": "Y"
  },
  {
    "STUDYID": "CDISCPILOT01",
    "USUBJID": "01-701-009",
    "TRTP": "Xanomeline Low Dose",
    "TRTPN": 1,
    "PARAMCD": "PULSE",
    "PARAM": "Pulse Rate ( beats/min )",
    "AVAL": 72.4,
    "BASE": 76.8,
    "CHG": -4.4,
    "PCHG": -5.7292,
    "ADT": "2013-07-07",
    "ADY": 30,
    "AVISIT": "WEEK 4",
    "AVISITN": 4,
    "ABLFL": "",
    "ANL01FL": "Y",
    "SAFFL": "Y"
  },
  {
    "STUDYID": "CDISCPILOT01",
    "USUBJID": "01-701-009",
    "TRTP": "Xanomeline Low Dose",
    "TRTPN": 1,
    "PARAMCD": "PULSE",
    "PARAM": "Pulse Rate ( beats/min )",
    "AVAL": 76.8,
    "BASE": 76.8,
    "CHG": 0,
    "PCHG": 0,
    "ADT": "2013-06-01",
    "ADY": -7,
    "AVISIT": "SCREENING",
    "AVISITN": 1,
    "ABLFL": "Y",
    "ANL01FL": "Y",
    "SAFFL": "Y"
  },
  {
    "STUDYID": "CDISCPILOT01",
    "USUBJID": "01-701-009",
    "TRTP": "Xanomeline Low Dose",
    "TRTPN": 1,
    "PARAMCD": "PULSE",
    "PARAM": "Pulse Rate ( beats/min )",
    "AVAL": 76.5,
    "BASE": 76.8,
    "CHG": -0.3,
    "PCHG": -0.3906,
    "ADT": "2013-06-09",
    "ADY": 2,
    "AVISIT": "BASELINE",
    "AVISITN": 2,
    "ABLFL": "",
    "ANL01FL": "Y",
    "SAFFL": "Y"
  },
  {
    "STUDYID": "CDISCPILOT01",
    "USUBJID": "01-701-009",
    "TRTP": "Xanomeline Low Dose",
    "TRTPN": 1,
    "PARAMCD": "RESP",
    "PARAM": "Respiratory Rate ( breaths/min )",
    "AVAL": 16,
    "BASE": 16,
    "CHG": 0,
    "PCHG": 0,
    "ADT": "2013-06-01",
    "ADY": -7,
    "AVISIT": "SCREENING",
    "AVISITN": 1,
    "ABLFL": "Y",
    "ANL01FL": "Y",
    "SAFFL": "Y"
  },
  {
    "STUDYID": "CDISCPILOT01",
    "USUBJID": "01-701-009",
    "TRTP": "Xanomeline Low Dose",
    "TRTPN": 1,
    "PARAMCD": "RESP",
    "PARAM": "Respiratory Rate ( breaths/min )",
    "AVAL": 15.8,
    "BASE": 16,
    "CHG": -0.2,
    "PCHG": -1.25,
    "ADT": "2013-06-22",
    "ADY": 15,
    "AVISIT": "WEEK 2",
    "AVISITN": 3,
    "ABLFL": "",
    "ANL01FL": "Y",
    "SAFFL": "Y"
  },
  {
    "STUDYID": "CDISCPILOT01",
    "USUBJID": "01-701-009",
    "TRTP": "Xanomeline Low Dose",
    "TRTPN": 1,
    "PARAMCD": "RESP",
    "PARAM": "Respiratory Rate ( breaths/min )",
    "AVAL": 15.9,
    "BASE": 16,
    "CHG": -0.1,
    "PCHG": -0.625,
    "ADT": "2013-06-09",
    "ADY": 2,
    "AVISIT": "BASELINE",
    "AVISITN": 2,
    "ABLFL": "",
    "ANL01FL": "Y",
    "SAFFL": "Y"
  },
  {
    "STUDYID": "CDISCPILOT01",
    "USUBJID": "01-701-009",
    "TRTP": "Xanomeline Low Dose",
    "TRTPN": 1,
    "PARAMCD": "RESP",
    "PARAM": "Respiratory Rate ( breaths/min )",
    "AVAL": 16.2,
    "BASE": 16,
    "CHG": 0.2,
    "PCHG": 1.25,
    "ADT": "2013-07-06",
    "ADY": 29,
    "AVISIT": "WEEK 4",
    "AVISITN": 4,
    "ABLFL": "",
    "ANL01FL": "Y",
    "SAFFL": "Y"
  },
  {
    "STUDYID": "CDISCPILOT01",
    "USUBJID": "01-701-009",
    "TRTP": "Xanomeline Low Dose",
    "TRTPN": 1,
    "PARAMCD": "SYSBP",
    "PARAM": "Systolic Blood Pressure ( mmHg )",
    "AVAL": 150,
    "BASE": 154.7,
    "CHG": -4.7,
    "PCHG": -3.0381,
    "ADT": "2013-06-24",
    "ADY": 17,
    "AVISIT": "WEEK 2",
    "AVISITN": 3,
    "ABLFL": "",
    "ANL01FL": "Y",
    "SAFFL": "Y"
  },
  {
    "STUDYID": "CDISCPILOT01",
    "USUBJID": "01-701-009",
    "TRTP": "Xanomeline Low Dose",
    "TRTPN": 1,
    "PARAMCD": "SYSBP",
    "PARAM": "Systolic Blood Pressure ( mmHg )",
    "AVAL": 154.7,
    "BASE": 154.7,
    "CHG": 0,
    "PCHG": 0,
    "ADT": "2013-06-02",
    "ADY": -6,
    "AVISIT": "SCREENING",
    "AVISITN": 1,
    "ABLFL": "Y",
    "ANL01FL": "Y",
    "SAFFL": "Y"
  },
  {
    "STUDYID": "CDISCPILOT01",
    "USUBJID": "01-701-009",
    "TRTP": "Xanomeline Low Dose",
    "TRTPN": 1,
    "PARAMCD": "SYSBP",
    "PARAM": "Systolic Blood Pressure ( mmHg )",
    "AVAL": 155.4,
    "BASE": 154.7,
    "CHG": 0.7,
    "PCHG": 0.4525,
    "ADT": "2013-07-08",
    "ADY": 31,
    "AVISIT": "WEEK 4",
    "AVISITN": 4,
    "ABLFL": "",
    "ANL01FL": "Y",
    "SAFFL": "Y"
  },
  {
    "STUDYID": "CDISCPILOT01",
    "USUBJID": "01-701-009",
    "TRTP": "Xanomeline Low Dose",
    "TRTPN": 1,
    "PARAMCD": "SYSBP",
    "PARAM": "Systolic Blood Pressure ( mmHg )",
    "AVAL": 156.4,
    "BASE": 154.7,
    "CHG": 1.7,
    "PCHG": 1.0989,
    "ADT": "2013-06-09",
    "ADY": 2,
    "AVISIT": "BASELINE",
    "AVISITN": 2,
    "ABLFL": "",
    "ANL01FL": "Y",
    "SAFFL": "Y"
  },
  {
    "STUDYID": "CDISCPILOT01",
    "USUBJID": "01-701-009",
    "TRTP": "Xanomeline Low Dose",
    "TRTPN": 1,
    "PARAMCD": "TEMP",
    "PARAM": "Temperature ( C )",
    "AVAL": 36.6,
    "BASE": 36.7,
    "CHG": -0.1,
    "PCHG": -0.2725,
    "ADT": "2013-06-22",
    "ADY": 15,
    "AVISIT": "WEEK 2",
    "AVISITN": 3,
    "ABLFL": "",
    "ANL01FL": "Y",
    "SAFFL": "Y"
  },
  {
    "STUDYID": "CDISCPILOT01",
    "USUBJID": "01-701-009",
    "TRTP": "Xanomeline Low Dose",
    "TRTPN": 1,
    "PARAMCD": "TEMP",
    "PARAM": "Temperature ( C )",
    "AVAL": 36.6,
    "BASE": 36.7,
    "CHG": -0.1,
    "PCHG": -0.2725,
    "ADT": "2013-07-06",
    "ADY": 29,
    "AVISIT": "WEEK 4",
    "AVISITN": 4,
    "ABLFL": "",
    "ANL01FL": "Y",
    "SAFFL": "Y"
  },
  {
    "STUDYID": "CDISCPILOT01",
    "USUBJID": "01-701-009",
    "TRTP": "Xanomeline Low Dose",
    "TRTPN": 1,
    "PARAMCD": "TEMP",
    "PARAM": "Temperature ( C )",
    "AVAL": 36.7,
    "BASE": 36.7,
    "CHG": 0,
    "PCHG": 0,
    "ADT": "2013-06-02",
    "ADY": -6,
    "AVISIT": "SCREENING",
    "AVISITN": 1,
    "ABLFL": "Y",
    "ANL01FL": "Y",
    "SAFFL": "Y"
  },
  {
    "STUDYID": "CDISCPILOT01",
    "USUBJID": "01-701-009",
    "TRTP": "Xanomeline Low Dose",
    "TRTPN": 1,
    "PARAMCD": "TEMP",
    "PARAM": "Temperature ( C )",
    "AVAL": 36.6,
    "BASE": 36.7,
    "CHG": -0.1,
    "PCHG": -0.2725,
    "ADT": "2013-06-08",
    "ADY": 1,
    "AVISIT": "BASELINE",
    "AVISITN": 2,
    "ABLFL": "",
    "ANL01FL": "Y",
    "SAFFL": "Y"
  },
  {
    "STUDYID": "CDISCPILOT01",
    "USUBJID": "01-701-009",
    "TRTP": "Xanomeline Low Dose",
    "TRTPN": 1,
    "PARAMCD": "WEIGHT",
    "PARAM": "Weight ( kg )",
    "AVAL": 45.1,
    "BASE": 45.1,
    "CHG": 0,
    "PCHG": 0,
    "ADT": "2013-06-02",
    "ADY": -6,
    "AVISIT": "SCREENING",
    "AVISITN": 1,
    "ABLFL": "Y",
    "ANL01FL": "Y",
    "SAFFL": "Y"
  },
  {
    "STUDYID": "CDISCPILOT01",
    "USUBJID": "01-701-009",
    "TRTP": "Xanomeline Low Dose",
    "TRTPN": 1,
    "PARAMCD": "WEIGHT",
    "PARAM": "Weight ( kg )",
    "AVAL": 45.3,
    "BASE": 45.1,
    "CHG": 0.2,
    "PCHG": 0.4435,
    "ADT": "2013-06-23",
    "ADY": 16,
    "AVISIT": "WEEK 2",
    "AVISITN": 3,
    "ABLFL": "",
    "ANL01FL": "Y",
    "SAFFL": "Y"
  },
  {
    "STUDYID": "CDISCPILOT01",
    "USUBJID": "01-701-009",
    "TRTP": "Xanomeline Low Dose",
    "TRTPN": 1,
    "PARAMCD": "WEIGHT",
    "PARAM": "Weight ( kg )",
    "AVAL": 45.2,
    "BASE": 45.1,
    "CHG": 0.1,
    "PCHG": 0.2217,
    "ADT": "2013-06-09",
    "ADY": 2,
    "AVISIT": "BASELINE",
    "AVISITN": 2,
    "ABLFL": "",
    "ANL01FL": "Y",
    "SAFFL": "Y"
  },
  {
    "STUDYID": "CDISCPILOT01",
    "USUBJID": "01-701-009",
    "TRTP": "Xanomeline Low Dose",
    "TRTPN": 1,
    "PARAMCD": "WEIGHT",
    "PARAM": "Weight ( kg )",
    "AVAL": 45.3,
    "BASE": 45.1,
    "CHG": 0.2,
    "PCHG": 0.4435,
    "ADT": "2013-07-08",
    "ADY": 31,
    "AVISIT": "WEEK 4",
    "AVISITN": 4,
    "ABLFL": "",
    "ANL01FL": "Y",
    "SAFFL": "Y"
  },
  {
    "STUDYID": "CDISCPILOT01",
    "USUBJID": "01-701-010",
    "TRTP": "Xanomeline Low Dose",
    "TRTPN": 1,
    "PARAMCD": "DIABP",
    "PARAM": "Diastolic Blood Pressure ( mmHg )",
    "AVAL": 78.8,
    "BASE": 78.7,
    "CHG": 0.1,
    "PCHG": 0.1271,
    "ADT": "2014-03-25",
    "ADY": 113,
    "AVISIT": "WEEK 16",
    "AVISITN": 7,
    "ABLFL": "",
    "ANL01FL": "Y",
    "SAFFL": "Y"
  },
  {
    "STUDYID": "CDISCPILOT01",
    "USUBJID": "01-701-010",
    "TRTP": "Xanomeline Low Dose",
    "TRTPN": 1,
    "PARAMCD": "DIABP",
    "PARAM": "Diastolic Blood Pressure ( mmHg )",
    "AVAL": 80.7,
    "BASE": 78.7,
    "CHG": 2,
    "PCHG": 2.5413,
    "ADT": "2014-04-22",
    "ADY": 141,
    "AVISIT": "WEEK 20",
    "AVISITN": 8,
    "ABLFL": "",
    "ANL01FL": "Y",
    "SAFFL": "Y"
  },
  {
    "STUDYID": "CDISCPILOT01",
    "USUBJID": "01-701-010",
    "TRTP": "Xanomeline Low Dose",
    "TRTPN": 1,
    "PARAMCD": "DIABP",
    "PARAM": "Diastolic Blood Pressure ( mmHg )",
    "AVAL": 77.4,
    "BASE": 78.7,
    "CHG": -1.3,
    "PCHG": -1.6518,
    "ADT": "2014-02-27",
    "ADY": 87,
    "AVISIT": "WEEK 12",
    "AVISITN": 6,
    "ABLFL": "",
    "ANL01FL": "Y",
    "SAFFL": "Y"
  },
  {
    "STUDYID": "CDISCPILOT01",
    "USUBJID": "01-701-010",
    "TRTP": "Xanomeline Low Dose",
    "TRTPN": 1,
    "PARAMCD": "DIABP",
    "PARAM": "Diastolic Blood Pressure ( mmHg )",
    "AVAL": 79.3,
    "BASE": 78.7,
    "CHG": 0.6,
    "PCHG": 0.7624,
    "ADT": "2013-12-03",
    "ADY": 1,
    "AVISIT": "BASELINE",
    "AVISITN": 2,
    "ABLFL": "",
    "ANL01FL": "Y",
    "SAFFL": "Y"
  },
  {
    "STUDYID": "CDISCPILOT01",
    "USUBJID": "01-701-010",
    "TRTP": "Xanomeline Low Dose",
    "TRTPN": 1,
    "PARAMCD": "DIABP",
    "PARAM": "Diastolic Blood Pressure ( mmHg )",
    "AVAL": 78.6,
    "BASE": 78.7,
    "CHG": -0.1,
    "PCHG": -0.1271,
    "ADT": "2014-05-20",
    "ADY": 169,
    "AVISIT": "WEEK 24",
    "AVISITN": 9,
    "ABLFL": "",
    "ANL01FL": "Y",
    "SAFFL": "Y"
  },
  {
    "STUDYID": "CDISCPILOT01",
    "USUBJID": "01-701-010",
    "TRTP": "Xanomeline Low Dose",
    "TRTPN": 1,
    "PARAMCD": "DIABP",
    "PARAM": "Diastolic Blood Pressure ( mmHg )",
    "AVAL": 77.9,
    "BASE": 78.7,
    "CHG": -0.8,
    "PCHG": -1.0165,
    "ADT": "2013-12-18",
    "ADY": 16,
    "AVISIT": "WEEK 2",
    "AVISITN": 3,
    "ABLFL": "",
    "ANL01FL": "Y",
    "SAFFL": "Y"
  },
  {
    "STUDYID": "CDISCPILOT01",
    "USUBJID": "01-701-010",
    "TRTP": "Xanomeline Low Dose",
    "TRTPN": 1,
    "PARAMCD": "DIABP",
    "PARAM": "Diastolic Blood Pressure ( mmHg )",
    "AVAL": 78,
    "BASE": 78.7,
    "CHG": -0.7,
    "PCHG": -0.8895,
    "ADT": "2014-01-01",
    "ADY": 30,
    "AVISIT": "WEEK 4",
    "AVISITN": 4,
    "ABLFL": "",
