[
  {
    "STUDYID": "CDISCPILOT01",
    "USUBJID": "01-701-001",
    "TRTP": "Xanomeline Low Dose",
    "TRTPN": 1,
    "PARAMCD": "ACTOT11",
    "PARAM": "ADAS-Cog (11) Total Score",
    "AVAL": 28,
    "BASE": 28,
    "CHG": 0,
    "ACAT1": "No Change",
    "ADT": "2013-06-18",
    "ADY": 1,
    "AVISIT": "BASELINE",
    "AVISITN": 1,
    "ABLFL": "Y",
    "DTYPE": "",
    "ANL01FL": "Y",
    "ANL02FL": "",
    "ANL03FL": "",
    "AGE": 70,
    "AGEGR1": "65-80",
    "SEX": "F",
    "MMSETOT": 21,
    "MMSEGRP": "Mild (20-24)",
    "COMPLFL": "Y",
    "SAFFL": "Y",
    "ITTFL": "Y",
    "EFFFL": "Y"
  },
  {
    "STUDYID": "CDISCPILOT01",
    "USUBJID": "01-701-001",
    "TRTP": "Xanomeline Low Dose",
    "TRTPN": 1,
    "PARAMCD": "ACTOT11",
    "PARAM": "ADAS-Cog (11) Total Score",
    "AVAL": 29,
    "BASE": 28,
    "CHG": 1,
    "ACAT1": "Worsening",
    "ADT": "2013-07-16",
    "ADY": 29,
    "AVISIT": "WEEK 4",
    "AVISITN": 3,
    "ABLFL": "",
    "DTYPE": "",
    "ANL01FL": "Y",
    "ANL02FL": "",
    "ANL03FL": "",
    "AGE": 70,
    "AGEGR1": "65-80",
    "SEX": "F",
    "MMSETOT": 21,
    "MMSEGRP": "Mild (20-24)",
    "COMPLFL": "Y",
    "SAFFL": "Y",
    "ITTFL": "Y",
    "EFFFL": "Y"
  },
  {
    "STUDYID": "CDISCPILOT01",
    "USUBJID": "01-701-001",
    "TRTP": "Xanomeline Low Dose",
    "TRTPN": 1,
    "PARAMCD": "ACTOT11",
    "PARAM": "ADAS-Cog (11) Total Score",
    "AVAL": 30,
    "BASE": 28,
    "CHG": 2,
    "ACAT1": "Worsening",
    "ADT": "2013-08-13",
    "ADY": 57,
    "AVISIT": "WEEK 8",
    "AVISITN": 4,
    "ABLFL": "",
    "DTYPE": "",
    "ANL01FL": "Y",
    "ANL02FL": "",
    "ANL03FL": "",
    "AGE": 70,
    "AGEGR1": "65-80",
    "SEX": "F",
    "MMSETOT": 21,
    "MMSEGRP": "Mild (20-24)",
    "COMPLFL": "Y",
    "SAFFL": "Y",
    "ITTFL": "Y",
    "EFFFL": "Y"
  },
  {
    "STUDYID": "CDISCPILOT01",
    "USUBJID": "01-701-001",
    "TRTP": "Xanomeline Low Dose",
    "TRTPN": 1,
    "PARAMCD": "ACTOT11",
    "PARAM": "ADAS-Cog (11) Total Score",
    "AVAL": 29,
    "BASE": 28,
    "CHG": 1,
    "ACAT1": "Worsening",
    "ADT": "2013-09-10",
    "ADY": 85,
    "AVISIT": "WEEK 12",
    "AVISITN": 5,
    "ABLFL": "",
    "DTYPE": "",
    "ANL01FL": "Y",
    "ANL02FL": "",
    "ANL03FL": "",
    "AGE": 70,
    "AGEGR1": "65-80",
    "SEX": "F",
    "MMSETOT": 21,
    "MMSEGRP": "Mild (20-24)",
    "COMPLFL": "Y",
    "SAFFL": "Y",
    "ITTFL": "Y",
    "EFFFL": "Y"
  },
  {
    "STUDYID": "CDISCPILOT01",
    "USUBJID": "01-701-001",
    "TRTP": "Xanomeline Low Dose",
    "TRTPN": 1,
    "PARAMCD": "ACTOT11",
    "PARAM": "ADAS-Cog (11) Total Score",
    "AVAL": 30,
    "BASE": 28,
    "CHG": 2,
    "ACAT1": "Worsening",
    "ADT": "2013-12-03",
    "ADY": 169,
    "AVISIT": "WEEK 24",
    "AVISITN": 7,
    "ABLFL": "",
    "DTYPE": "",
    "ANL01FL": "Y",
    "ANL02FL": "Y",
    "ANL03FL": "Y",
    "AGE": 70,
    "AGEGR1": "65-80",
    "SEX": "F",
    "MMSETOT": 21,
    "MMSEGRP": "Mild (20-24)",
    "COMPLFL": "Y",
    "SAFFL": "Y",
    "ITTFL": "Y",
    "EFFFL": "Y"
  },
  {
    "STUDYID": "CDISCPILOT01",
    "USUBJID": "01-701-001",
    "TRTP": "Xanomeline Low Dose",
    "TRTPN": 1,
    "PARAMCD": "CIBIC",
    "PARAM": "CIBIC+ Global Impression of Change",
    "AVAL": 4,
    "ACAT1": "No Change",
    "ADT": "2013-12-03",
    "ADY": 169,
    "AVISIT": "WEEK 24",
    "AVISITN": 7,
    "ABLFL": "",
    "DTYPE": "",
    "ANL01FL": "Y",
    "ANL02FL": "Y",
    "ANL03FL": "Y",
    "AGE": 70,
    "AGEGR1": "65-80",
    "SEX": "F",
    "MMSETOT": 21,
    "MMSEGRP": "Mild (20-24)",
    "COMPLFL": "Y",
    "SAFFL": "Y",
    "ITTFL": "Y",
    "EFFFL": "Y"
  },
  {
    "STUDYID": "CDISCPILOT01",
    "USUBJID": "01-701-002",
    "TRTP": "Xanomeline Low Dose",
    "TRTPN": 1,
    "PARAMCD": "ACTOT11",
    "PARAM": "ADAS-Cog (11) Total Score",
    "AVAL": 35,
    "BASE": 35,
    "CHG": 0,
    "ACAT1": "No Change",
    "ADT": "2013-03-31",
    "ADY": 1,
    "AVISIT": "BASELINE",
    "AVISITN": 1,
    "ABLFL": "Y",
    "DTYPE": "",
    "ANL01FL": "Y",
    "ANL02FL": "",
    "ANL03FL": "",
    "AGE": 68,
    "AGEGR1": "65-80",
    "SEX": "F",
    "MMSETOT": 19,
    "MMSEGRP": "Moderate (15-19)",
    "COMPLFL": "Y",
    "SAFFL": "Y",
    "ITTFL": "Y",
    "EFFFL": "Y"
  },
  {
    "STUDYID": "CDISCPILOT01",
    "USUBJID": "01-701-002",
    "TRTP": "Xanomeline Low Dose",
    "TRTPN": 1,
    "PARAMCD": "ACTOT11",
    "PARAM": "ADAS-Cog (11) Total Score",
    "AVAL": 33,
    "BASE": 35,
    "CHG": -2,
    "ACAT1": "Improvement",
    "ADT": "2013-04-28",
    "ADY": 29,
    "AVISIT": "WEEK 4",
    "AVISITN": 3,
    "ABLFL": "",
    "DTYPE": "",
    "ANL01FL": "Y",
    "ANL02FL": "",
    "ANL03FL": "",
    "AGE": 68,
    "AGEGR1": "65-80",
    "SEX": "F",
    "MMSETOT": 19,
    "MMSEGRP": "Moderate (15-19)",
    "COMPLFL": "Y",
    "SAFFL": "Y",
    "ITTFL": "Y",
    "EFFFL": "Y"
  },
  {
    "STUDYID": "CDISCPILOT01",
    "USUBJID": "01-701-002",
    "TRTP": "Xanomeline Low Dose",
    "TRTPN": 1,
    "PARAMCD": "ACTOT11",
    "PARAM": "ADAS-Cog (11) Total Score",
    "AVAL": 35,
    "BASE": 35,
    "CHG": 0,
    "ACAT1": "No Change",
    "ADT": "2013-05-26",
    "ADY": 57,
    "AVISIT": "WEEK 8",
    "AVISITN": 4,
    "ABLFL": "",
    "DTYPE": "",
    "ANL01FL": "Y",
    "ANL02FL": "",
    "ANL03FL": "",
    "AGE": 68,
    "AGEGR1": "65-80",
    "SEX": "F",
    "MMSETOT": 19,
    "MMSEGRP": "Moderate (15-19)",
    "COMPLFL": "Y",
    "SAFFL": "Y",
    "ITTFL": "Y",
    "EFFFL": "Y"
  },
  {
    "STUDYID": "CDISCPILOT01",
    "USUBJID": "01-701-002",
    "TRTP": "Xanomeline Low Dose",
    "TRTPN": 1,
    "PARAMCD": "ACTOT11",
    "PARAM": "ADAS-Cog (11) Total Score",
    "AVAL": 39,
    "BASE": 35,
    "CHG": 4,
    "ACAT1": "Marked Worsening",
    "ADT": "2013-06-23",
    "ADY": 85,
    "AVISIT": "WEEK 12",
    "AVISITN": 5,
    "ABLFL": "",
    "DTYPE": "",
    "ANL01FL": "Y",
    "ANL02FL": "",
    "ANL03FL": "",
    "AGE": 68,
    "AGEGR1": "65-80",
    "SEX": "F",
    "MMSETOT": 19,
    "MMSEGRP": "Moderate (15-19)",
    "COMPLFL": "Y",
    "SAFFL": "Y",
    "ITTFL": "Y",
    "EFFFL": "Y"
  },
  {
    "STUDYID": "CDISCPILOT01",
    "USUBJID": "01-701-002",
    "TRTP": "Xanomeline Low Dose",
    "TRTPN": 1,
    "PARAMCD": "ACTOT11",
    "PARAM": "ADAS-Cog (11) Total Score",
    "AVAL": 31,
    "BASE": 35,
    "CHG": -4,
    "ACAT1": "Marked Improvement",
    "ADT": "2013-09-15",
    "ADY": 169,
    "AVISIT": "WEEK 24",
    "AVISITN": 7,
    "ABLFL": "",
    "DTYPE": "",
    "ANL01FL": "Y",
    "ANL02FL": "Y",
    "ANL03FL": "Y",
    "AGE": 68,
    "AGEGR1": "65-80",
    "SEX": "F",
    "MMSETOT": 19,
    "MMSEGRP": "Moderate (15-19)",
    "COMPLFL": "Y",
    "SAFFL": "Y",
    "ITTFL": "Y",
    "EFFFL": "Y"
  },
  {
    "STUDYID": "CDISCPILOT01",
    "USUBJID": "01-701-002",
    "TRTP": "Xanomeline Low Dose",
    "TRTPN": 1,
    "PARAMCD": "CIBIC",
    "PARAM": "CIBIC+ Global Impression of Change",
    "AVAL": 3,
    "ACAT1": "Improved",
    "ADT": "2013-09-15",
    "ADY": 169,
    "AVISIT": "WEEK 24",
    "AVISITN": 7,
    "ABLFL": "",
    "DTYPE": "",
    "ANL01FL": "Y",
    "ANL02FL": "Y",
    "ANL03FL": "Y",
    "AGE": 68,
    "AGEGR1": "65-80",
    "SEX": "F",
    "MMSETOT": 19,
    "MMSEGRP": "Moderate (15-19)",
    "COMPLFL": "Y",
    "SAFFL": "Y",
    "ITTFL": "Y",
    "EFFFL": "Y"
  },
  {
    "STUDYID": "CDISCPILOT01",
    "USUBJID": "01-701-003",
    "TRTP": "Placebo",
    "TRTPN": 0,
    "PARAMCD": "ACTOT11",
    "PARAM": "ADAS-Cog (11) Total Score",
    "AVAL": 11,
    "BASE": 11,
    "CHG": 0,
    "ACAT1": "No Change",
    "ADT": "2013-01-01",
    "ADY": 1,
    "AVISIT": "BASELINE",
    "AVISITN": 1,
    "ABLFL": "Y",
    "DTYPE": "",
    "ANL01FL": "Y",
    "ANL02FL": "",
    "ANL03FL": "",
    "AGE": 82,
    "AGEGR1": ">80",
    "SEX": "F",
    "MMSETOT": 24,
    "MMSEGRP": "Mild (20-24)",
    "COMPLFL": "Y",
    "SAFFL": "Y",
    "ITTFL": "Y",
    "EFFFL": "Y"
  },
  {
    "STUDYID": "CDISCPILOT01",
    "USUBJID": "01-701-003",
    "TRTP": "Placebo",
    "TRTPN": 0,
    "PARAMCD": "ACTOT11",
    "PARAM": "ADAS-Cog (11) Total Score",
    "AVAL": 11,
    "BASE": 11,
    "CHG": 0,
    "ACAT1": "No Change",
    "ADT": "2013-01-29",
    "ADY": 29,
    "AVISIT": "WEEK 4",
    "AVISITN": 3,
    "ABLFL": "",
    "DTYPE": "",
    "ANL01FL": "Y",
    "ANL02FL": "",
    "ANL03FL": "",
    "AGE": 82,
    "AGEGR1": ">80",
    "SEX": "F",
    "MMSETOT": 24,
    "MMSEGRP": "Mild (20-24)",
    "COMPLFL": "Y",
    "SAFFL": "Y",
    "ITTFL": "Y",
    "EFFFL": "Y"
  },
  {
    "STUDYID": "CDISCPILOT01",
    "USUBJID": "01-701-003",
    "TRTP": "Placebo",
    "TRTPN": 0,
    "PARAMCD": "ACTOT11",
    "PARAM": "ADAS-Cog (11) Total Score",
    "AVAL": 8,
    "BASE": 11,
    "CHG": -3,
    "ACAT1": "Improvement",
    "ADT": "2013-02-26",
    "ADY": 57,
    "AVISIT": "WEEK 8",
    "AVISITN": 4,
    "ABLFL": "",
    "DTYPE": "",
    "ANL01FL": "Y",
    "ANL02FL": "",
    "ANL03FL": "",
    "AGE": 82,
    "AGEGR1": ">80",
    "SEX": "F",
    "MMSETOT": 24,
    "MMSEGRP": "Mild (20-24)",
    "COMPLFL": "Y",
    "SAFFL": "Y",
    "ITTFL": "Y",
    "EFFFL": "Y"
  },
  {
    "STUDYID": "CDISCPILOT01",
    "USUBJID": "01-701-003",
    "TRTP": "Placebo",
    "TRTPN": 0,
    "PARAMCD": "ACTOT11",
    "PARAM": "ADAS-Cog (11) Total Score",
    "AVAL": 18,
    "BASE": 11,
    "CHG": 7,
    "ACAT1": "Marked Worsening",
    "ADT": "2013-03-26",
    "ADY": 85,
    "AVISIT": "WEEK 12",
    "AVISITN": 5,
    "ABLFL": "",
    "DTYPE": "",
    "ANL01FL": "Y",
    "ANL02FL": "",
    "ANL03FL": "",
    "AGE": 82,
    "AGEGR1": ">80",
    "SEX": "F",
    "MMSETOT": 24,
    "MMSEGRP": "Mild (20-24)",
    "COMPLFL": "Y",
    "SAFFL": "Y",
    "ITTFL": "Y",
    "EFFFL": "Y"
  },
  {
    "STUDYID": "CDISCPILOT01",
    "USUBJID": "01-701-003",
    "TRTP": "Placebo",
    "TRTPN": 0,
    "PARAMCD": "ACTOT11",
    "PARAM": "ADAS-Cog (11) Total Score",
    "AVAL": 18,
    "BASE": 11,
    "CHG": 7,
    "ACAT1": "Marked Worsening",
    "ADT": "2013-06-18",
    "ADY": 169,
    "AVISIT": "WEEK 24",
    "AVISITN": 7,
    "ABLFL": "",
    "DTYPE": "",
    "ANL01FL": "Y",
    "ANL02FL": "Y",
    "ANL03FL": "Y",
    "AGE": 82,
    "AGEGR1": ">80",
    "SEX": "F",
    "MMSETOT": 24,
    "MMSEGRP": "Mild (20-24)",
    "COMPLFL": "Y",
    "SAFFL": "Y",
    "ITTFL": "Y",
    "EFFFL": "Y"
  },
  {
    "STUDYID": "CDISCPILOT01",
    "USUBJID": "01-701-003",
    "TRTP": "Placebo",
    "TRTPN": 0,
    "PARAMCD": "CIBIC",
    "PARAM": "CIBIC+ Global Impression of Change",
    "AVAL": 5,
    "ACAT1": "Worsened",
    "ADT": "2013-06-18",
    "ADY": 169,
    "AVISIT": "WEEK 24",
    "AVISITN": 7,
    "ABLFL": "",
    "DTYPE": "",
    "ANL01FL": "Y",
    "ANL02FL": "Y",
    "ANL03FL": "Y",
    "AGE": 82,
    "AGEGR1": ">80",
    "SEX": "F",
    "MMSETOT": 24,
    "MMSEGRP": "Mild (20-24)",
    "COMPLFL": "Y",
    "SAFFL": "Y",
    "ITTFL": "Y",
    "EFFFL": "Y"
  },
  {
    "STUDYID": "CDISCPILOT01",
    "USUBJID": "01-701-004",
    "TRTP": "Xanomeline High Dose",
    "TRTPN": 2,
    "PARAMCD": "ACTOT11",
    "PARAM": "ADAS-Cog (11) Total Score",
    "AVAL": 5,
    "BASE": 5,
    "CHG": 0,
    "ACAT1": "No Change",
    "ADT": "2013-08-24",
    "ADY": 1,
    "AVISIT": "BASELINE",
    "AVISITN": 1,
    "ABLFL": "Y",
    "DTYPE": "",
    "ANL01FL": "Y",
    "ANL02FL": "",
    "ANL03FL": "",
    "AGE": 87,
    "AGEGR1": ">80",
    "SEX": "F",
    "MMSETOT": 24,
    "MMSEGRP": "Mild (20-24)",
    "COMPLFL": "N",
    "SAFFL": "Y",
    "ITTFL": "Y",
    "EFFFL": "Y"
  },
  {
    "STUDYID": "CDISCPILOT01",
    "USUBJID": "01-701-004",
    "TRTP": "Xanomeline High Dose",
    "TRTPN": 2,
    "PARAMCD": "ACTOT11",
    "PARAM": "ADAS-Cog (11) Total Score",
    "AVAL": 5,
    "BASE": 5,
    "CHG": 0,
    "ACAT1": "No Change",
    "ADT": "2013-09-21",
    "ADY": 29,
    "AVISIT": "WEEK 4",
    "AVISITN": 3,
    "ABLFL": "",
    "DTYPE": "",
    "ANL01FL": "Y",
    "ANL02FL": "",
    "ANL03FL": "",
    "AGE": 87,
    "AGEGR1": ">80",
    "SEX": "F",
    "MMSETOT": 24,
    "MMSEGRP": "Mild (20-24)",
    "COMPLFL": "N",
    "SAFFL": "Y",
    "ITTFL": "Y",
    "EFFFL": "Y"
  },
  {
    "STUDYID": "CDISCPILOT01",
    "USUBJID": "01-701-004",
    "TRTP": "Xanomeline High Dose",
    "TRTPN": 2,
    "PARAMCD": "ACTOT11",
    "PARAM": "ADAS-Cog (11) Total Score",
    "AVAL": 5,
    "BASE": 5,
    "CHG": 0,
    "ACAT1": "No Change",
    "ADT": "2013-10-19",
    "ADY": 57,
    "AVISIT": "WEEK 8",
    "AVISITN": 4,
    "ABLFL": "",
    "DTYPE": "",
    "ANL01FL": "Y",
    "ANL02FL": "Y",
    "ANL03FL": "",
    "AGE": 87,
    "AGEGR1": ">80",
    "SEX": "F",
    "MMSETOT": 24,
    "MMSEGRP": "Mild (20-24)",
    "COMPLFL": "N",
    "SAFFL": "Y",
    "ITTFL": "Y",
    "EFFFL": "Y"
  },
  {
    "STUDYID": "CDISCPILOT01",
    "USUBJID": "01-701-004",
    "TRTP": "Xanomeline High Dose",
    "TRTPN": 2,
    "PARAMCD": "CIBIC",
    "PARAM": "CIBIC+ Global Impression of Change",
    "AVAL": 5,
    "ACAT1": "Worsened",
    "ADT": "2014-02-08",
    "ADY": 169,
    "AVISIT": "WEEK 24",
    "AVISITN": 7,
    "ABLFL": "",
    "DTYPE": "",
    "ANL01FL": "Y",
    "ANL02FL": "Y",
    "ANL03FL": "Y",
    "AGE": 87,
    "AGEGR1": ">80",
    "SEX": "F",
    "MMSETOT": 24,
    "MMSEGRP": "Mild (20-24)",
    "COMPLFL": "N",
    "SAFFL": "Y",
    "ITTFL": "Y",
    "EFFFL": "Y"
  },
  {
    "STUDYID": "CDISCPILOT01",
    "USUBJID": "01-701-005",
    "TRTP": "Placebo",
    "TRTPN": 0,
    "PARAMCD": "ACTOT11",
    "PARAM": "ADAS-Cog (11) Total Score",
    "AVAL": 22,
    "BASE": 22,
    "CHG": 0,
    "ACAT1": "No Change",
    "ADT": "2013-02-07",
    "ADY": 1,
    "AVISIT": "BASELINE",
    "AVISITN": 1,
    "ABLFL": "Y",
    "DTYPE": "",
    "ANL01FL": "Y",
    "ANL02FL": "",
    "ANL03FL": "",
    "AGE": 89,
    "AGEGR1": ">80",
    "SEX": "F",
    "MMSETOT": 18,
    "MMSEGRP": "Moderate (15-19)",
    "COMPLFL": "Y",
    "SAFFL": "Y",
    "ITTFL": "Y",
    "EFFFL": "Y"
  },
  {
    "STUDYID": "CDISCPILOT01",
    "USUBJID": "01-701-005",
    "TRTP": "Placebo",
    "TRTPN": 0,
    "PARAMCD": "ACTOT11",
    "PARAM": "ADAS-Cog (11) Total Score",
    "AVAL": 20,
    "BASE": 22,
    "CHG": -2,
    "ACAT1": "Improvement",
    "ADT": "2013-03-07",
    "ADY": 29,
    "AVISIT": "WEEK 4",
    "AVISITN": 3,
    "ABLFL": "",
    "DTYPE": "",
    "ANL01FL": "Y",
    "ANL02FL": "",
    "ANL03FL": "",
    "AGE": 89,
    "AGEGR1": ">80",
    "SEX": "F",
    "MMSETOT": 18,
    "MMSEGRP": "Moderate (15-19)",
    "COMPLFL": "Y",
    "SAFFL": "Y",
    "ITTFL": "Y",
    "EFFFL": "Y"
  },
  {
    "STUDYID": "CDISCPILOT01",
    "USUBJID": "01-701-005",
    "TRTP": "Placebo",
    "TRTPN": 0,
    "PARAMCD": "ACTOT11",
    "PARAM": "ADAS-Cog (11) Total Score",
    "AVAL": 24,
    "BASE": 22,
    "CHG": 2,
    "ACAT1": "Worsening",
    "ADT": "2013-04-04",
    "ADY": 57,
    "AVISIT": "WEEK 8",
    "AVISITN": 4,
    "ABLFL": "",
    "DTYPE": "",
    "ANL01FL": "Y",
    "ANL02FL": "",
    "ANL03FL": "",
    "AGE": 89,
    "AGEGR1": ">80",
    "SEX": "F",
    "MMSETOT": 18,
    "MMSEGRP": "Moderate (15-19)",
    "COMPLFL": "Y",
    "SAFFL": "Y",
    "ITTFL": "Y",
    "EFFFL": "Y"
  },
  {
    "STUDYID": "CDISCPILOT01",
    "USUBJID": "01-701-005",
    "TRTP": "Placebo",
    "TRTPN": 0,
    "PARAMCD": "ACTOT11",
    "PARAM": "ADAS-Cog (11) Total Score",
    "AVAL": 21,
    "BASE": 22,
    "CHG": -1,
    "ACAT1": "Improvement",
    "ADT": "2013-05-02",
    "ADY": 85,
    "AVISIT": "WEEK 12",
    "AVISITN": 5,
    "ABLFL": "",
    "DTYPE": "",
    "ANL01FL": "Y",
    "ANL02FL": "",
    "ANL03FL": "",
    "AGE": 89,
    "AGEGR1": ">80",
    "SEX": "F",
    "MMSETOT": 18,
    "MMSEGRP": "Moderate (15-19)",
    "COMPLFL": "Y",
    "SAFFL": "Y",
    "ITTFL": "Y",
    "EFFFL": "Y"
  },
  {
    "STUDYID": "CDISCPILOT01",
    "USUBJID": "01-701-005",
    "TRTP": "Placebo",
    "TRTPN": 0,
    "PARAMCD": "ACTOT11",
    "PARAM": "ADAS-Cog (11) Total Score",
    "AVAL": 31,
    "BASE": 22,
    "CHG": 9,
    "ACAT1": "Marked Worsening",
    "ADT": "2013-07-25",
    "ADY": 169,
    "AVISIT": "WEEK 24",
    "AVISITN": 7,
    "ABLFL": "",
    "DTYPE": "",
    "ANL01FL": "Y",
    "ANL02FL": "Y",
    "ANL03FL": "Y",
    "AGE": 89,
    "AGEGR1": ">80",
    "SEX": "F",
    "MMSETOT": 18,
    "MMSEGRP": "Moderate (15-19)",
    "COMPLFL": "Y",
    "SAFFL": "Y",
    "ITTFL": "Y",
    "EFFFL": "Y"
  },
  {
    "STUDYID": "CDISCPILOT01",
    "USUBJID": "01-701-005",
    "TRTP": "Placebo",
    "TRTPN": 0,
    "PARAMCD": "CIBIC",
    "PARAM": "CIBIC+ Global Impression of Change",
    "AVAL": 4,
    "ACAT1": "No Change",
    "ADT": "2013-07-25",
    "ADY": 169,
    "AVISIT": "WEEK 24",
    "AVISITN": 7,
    "ABLFL": "",
    "DTYPE": "",
    "ANL01FL": "Y",
    "ANL02FL": "Y",
    "ANL03FL": "Y",
    "AGE": 89,
    "AGEGR1": ">80",
    "SEX": "F",
    "MMSETOT": 18,
    "MMSEGRP": "Moderate (15-19)",
    "COMPLFL": "Y",
    "SAFFL": "Y",
    "ITTFL": "Y",
    "EFFFL": "Y"
  },
  {
    "STUDYID": "CDISCPILOT01",
    "USUBJID": "01-701-006",
    "TRTP": "Placebo",
    "TRTPN": 0,
    "PARAMCD": "ACTOT11",
    "PARAM": "ADAS-Cog (11) Total Score",
    "AVAL": 3,
    "BASE": 3,
    "CHG": 0,
    "ACAT1": "No Change",
    "ADT": "2013-06-27",
    "ADY": 1,
    "AVISIT": "BASELINE",
    "AVISITN": 1,
    "ABLFL": "Y",
    "DTYPE": "",
    "ANL01FL": "Y",
    "ANL02FL": "",
    "ANL03FL": "",
    "AGE": 76,
    "AGEGR1": "65-80",
    "SEX": "F",
    "MMSETOT": 14,
    "MMSEGRP": "Severe (0-14)",
    "COMPLFL": "Y",
    "SAFFL": "Y",
    "ITTFL": "Y",
    "EFFFL": "Y"
  },
  {
    "STUDYID": "CDISCPILOT01",
    "USUBJID": "01-701-006",
    "TRTP": "Placebo",
    "TRTPN": 0,
    "PARAMCD": "ACTOT11",
    "PARAM": "ADAS-Cog (11) Total Score",
    "AVAL": 4,
    "BASE": 3,
    "CHG": 1,
    "ACAT1": "Worsening",
    "ADT": "2013-07-25",
    "ADY": 29,
    "AVISIT": "WEEK 4",
    "AVISITN": 3,
    "ABLFL": "",
    "DTYPE": "",
    "ANL01FL": "Y",
    "ANL02FL": "",
    "ANL03FL": "",
    "AGE": 76,
    "AGEGR1": "65-80",
    "SEX": "F",
    "MMSETOT": 14,
    "MMSEGRP": "Severe (0-14)",
    "COMPLFL": "Y",
    "SAFFL": "Y",
    "ITTFL": "Y",
    "EFFFL": "Y"
  },
  {
    "STUDYID": "CDISCPILOT01",
    "USUBJID": "01-701-006",
    "TRTP": "Placebo",
    "TRTPN": 0,
    "PARAMCD": "ACTOT11",
    "PARAM": "ADAS-Cog (11) Total Score",
    "AVAL": 7,
    "BASE": 3,
    "CHG": 4,
    "ACAT1": "Marked Worsening",
    "ADT": "2013-08-22",
    "ADY": 57,
    "AVISIT": "WEEK 8",
    "AVISITN": 4,
    "ABLFL": "",
    "DTYPE": "",
    "ANL01FL": "Y",
    "ANL02FL": "",
    "ANL03FL": "",
    "AGE": 76,
    "AGEGR1": "65-80",
    "SEX": "F",
    "MMSETOT": 14,
    "MMSEGRP": "Severe (0-14)",
    "COMPLFL": "Y",
    "SAFFL": "Y",
    "ITTFL": "Y",
    "EFFFL": "Y"
  },
  {
    "STUDYID": "CDISCPILOT01",
    "USUBJID": "01-701-006",
    "TRTP": "Placebo",
    "TRTPN": 0,
    "PARAMCD": "ACTOT11",
    "PARAM": "ADAS-Cog (11) Total Score",
    "AVAL": 3,
    "BASE": 3,
    "CHG": 0,
    "ACAT1": "No Change",
    "ADT": "2013-09-19",
    "ADY": 85,
    "AVISIT": "WEEK 12",
    "AVISITN": 5,
    "ABLFL": "",
    "DTYPE": "",
    "ANL01FL": "Y",
    "ANL02FL": "",
    "ANL03FL": "",
    "AGE": 76,
    "AGEGR1": "65-80",
    "SEX": "F",
    "MMSETOT": 14,
    "MMSEGRP": "Severe (0-14)",
    "COMPLFL": "Y",
    "SAFFL": "Y",
    "ITTFL": "Y",
    "EFFFL": "Y"
  },
  {
    "STUDYID": "CDISCPILOT01",
    "USUBJID": "01-701-006",
    "TRTP": "Placebo",
    "TRTPN": 0,
    "PARAMCD": "ACTOT11",
    "PARAM": "ADAS-Cog (11) Total Score",
    "AVAL": 4,
    "BASE": 3,
    "CHG": 1,
    "ACAT1": "Worsening",
    "ADT": "2013-12-12",
    "ADY": 169,
    "AVISIT": "WEEK 24",
    "AVISITN": 7,
    "ABLFL": "",
    "DTYPE": "",
    "ANL01FL": "Y",
    "ANL02FL": "Y",
    "ANL03FL": "Y",
    "AGE": 76,
    "AGEGR1": "65-80",
    "SEX": "F",
    "MMSETOT": 14,
    "MMSEGRP": "Severe (0-14)",
    "COMPLFL": "Y",
    "SAFFL": "Y",
    "ITTFL": "Y",
    "EFFFL": "Y"
  },
  {
    "STUDYID": "CDISCPILOT01",
    "USUBJID": "01-701-006",
    "TRTP": "Placebo",
    "TRTPN": 0,
    "PARAMCD": "CIBIC",
    "PARAM": "CIBIC+ Global Impression of Change",
    "AVAL": 3,
    "ACAT1": "Improved",
    "ADT": "2013-12-12",
    "ADY": 169,
    "AVISIT": "WEEK 24",
    "AVISITN": 7,
    "ABLFL": "",
    "DTYPE": "",
    "ANL01FL": "Y",
    "ANL02FL": "Y",
    "ANL03FL": "Y",
    "AGE": 76,
    "AGEGR1": "65-80",
    "SEX": "F",
    "MMSETOT": 14,
    "MMSEGRP": "Severe (0-14)",
    "COMPLFL": "Y",
    "SAFFL": "Y",
    "ITTFL": "Y",
    "EFFFL": "Y"
  },
  {
    "STUDYID": "CDISCPILOT01",
    "USUBJID": "01-701-007",
    "TRTP": "Placebo",
    "TRTPN": 0,
    "PARAMCD": "ACTOT11",
    "PARAM": "ADAS-Cog (11) Total Score",
    "AVAL": 37,
    "BASE": 37,
    "CHG": 0,
    "ACAT1": "No Change",
    "ADT": "2013-07-16",
    "ADY": 1,
    "AVISIT": "BASELINE",
    "AVISITN": 1,
    "ABLFL": "Y",
    "DTYPE": "",
    "ANL01FL": "Y",
    "ANL02FL": "",
    "ANL03FL": "",
    "AGE": 65,
    "AGEGR1": "65-80",
    "SEX": "F",
    "MMSETOT": 22,
    "MMSEGRP": "Mild (20-24)",
    "COMPLFL": "Y",
    "SAFFL": "Y",
    "ITTFL": "Y",
    "EFFFL": "Y"
  },
  {
    "STUDYID": "CDISCPILOT01",
    "USUBJID": "01-701-007",
    "TRTP": "Placebo",
    "TRTPN": 0,
    "PARAMCD": "ACTOT11",
    "PARAM": "ADAS-Cog (11) Total Score",
    "AVAL": 38,
    "BASE": 37,
    "CHG": 1,
    "ACAT1": "Worsening",
    "ADT": "2013-08-13",
    "ADY": 29,
    "AVISIT": "WEEK 4",
    "AVISITN": 3,
    "ABLFL": "",
    "DTYPE": "",
    "ANL01FL": "Y",
    "ANL02FL": "",
    "ANL03FL": "",
    "AGE": 65,
    "AGEGR1": "65-80",
    "SEX": "F",
    "MMSETOT": 22,
    "MMSEGRP": "Mild (20-24)",
    "COMPLFL": "Y",
    "SAFFL": "Y",
    "ITTFL": "Y",
    "EFFFL": "Y"
  },
  {
    "STUDYID": "CDISCPILOT01",
    "USUBJID": "01-701-007",
    "TRTP": "Placebo",
    "TRTPN": 0,
    "PARAMCD": "ACTOT11",
    "PARAM": "ADAS-Cog (11) Total Score",
    "AVAL": 37,
    "BASE": 37,
    "CHG": 0,
    "ACAT1": "No Change",
    "ADT": "2013-09-10",
    "ADY": 57,
    "AVISIT": "WEEK 8",
    "AVISITN": 4,
    "ABLFL": "",
    "DTYPE": "",
    "ANL01FL": "Y",
    "ANL02FL": "",
    "ANL03FL": "",
    "AGE": 65,
    "AGEGR1": "65-80",
    "SEX": "F",
    "MMSETOT": 22,
    "MMSEGRP": "Mild (20-24)",
    "COMPLFL": "Y",
    "SAFFL": "Y",
    "ITTFL": "Y",
    "EFFFL": "Y"
  },
  {
    "STUDYID": "CDISCPILOT01",
    "USUBJID": "01-701-007",
    "TRTP": "Placebo",
    "TRTPN": 0,
    "PARAMCD": "ACTOT11",
    "PARAM": "ADAS-Cog (11) Total Score",
    "AVAL": 41,
    "BASE": 37,
    "CHG": 4,
    "ACAT1": "Marked Worsening",
    "ADT": "2013-10-08",
    "ADY": 85,
    "AVISIT": "WEEK 12",
    "AVISITN": 5,
    "ABLFL": "",
    "DTYPE": "",
    "ANL01FL": "Y",
    "ANL02FL": "",
    "ANL03FL": "",
    "AGE": 65,
    "AGEGR1": "65-80",
    "SEX": "F",
    "MMSETOT": 22,
    "MMSEGRP": "Mild (20-24)",
    "COMPLFL": "Y",
    "SAFFL": "Y",
    "ITTFL": "Y",
    "EFFFL": "Y"
  },
  {
    "STUDYID": "CDISCPILOT01",
    "USUBJID": "01-701-007",
    "TRTP": "Placebo",
    "TRTPN": 0,
    "PARAMCD": "ACTOT11",
    "PARAM": "ADAS-Cog (11) Total Score",
    "AVAL": 34,
    "BASE": 37,
    "CHG": -3,
    "ACAT1": "Improvement",
    "ADT": "2013-12-31",
    "ADY": 169,
    "AVISIT": "WEEK 24",
    "AVISITN": 7,
    "ABLFL": "",
    "DTYPE": "",
    "ANL01FL": "Y",
    "ANL02FL": "Y",
    "ANL03FL": "Y",
    "AGE": 65,
    "AGEGR1": "65-80",
    "SEX": "F",
    "MMSETOT": 22,
    "MMSEGRP": "Mild (20-24)",
    "COMPLFL": "Y",
    "SAFFL": "Y",
    "ITTFL": "Y",
    "EFFFL": "Y"
  },
  {
    "STUDYID": "CDISCPILOT01",
    "USUBJID": "01-701-007",
    "TRTP": "Placebo",
    "TRTPN": 0,
    "PARAMCD": "CIBIC",
    "PARAM": "CIBIC+ Global Impression of Change",
    "AVAL": 4,
    "ACAT1": "No Change",
    "ADT": "2013-12-31",
    "ADY": 169,
    "AVISIT": "WEEK 24",
    "AVISITN": 7,
    "ABLFL": "",
    "DTYPE": "",
    "ANL01FL": "Y",
    "ANL02FL": "Y",
    "ANL03FL": "Y",
    "AGE": 65,
    "AGEGR1": "65-80",
    "SEX": "F",
    "MMSETOT": 22,
    "MMSEGRP": "Mild (20-24)",
    "COMPLFL": "Y",
    "SAFFL": "Y",
    "ITTFL": "Y",
    "EFFFL": "Y"
  },
  {
    "STUDYID": "CDISCPILOT01",
    "USUBJID": "01-701-008",
    "TRTP": "Xanomeline Low Dose",
    "TRTPN": 1,
    "PARAMCD": "ACTOT11",
    "PARAM": "ADAS-Cog (11) Total Score",
    "AVAL": 16,
    "BASE": 16,
    "CHG": 0,
    "ACAT1": "No Change",
    "ADT": "2013-11-24",
    "ADY": 1,
    "AVISIT": "BASELINE",
    "AVISITN": 1,
    "ABLFL": "Y",
    "DTYPE": "",
    "ANL01FL": "Y",
    "ANL02FL": "",
    "ANL03FL": "",
    "AGE": 76,
    "AGEGR1": "65-80",
    "SEX": "M",
    "MMSETOT": 13,
    "MMSEGRP": "Severe (0-14)",
    "COMPLFL": "Y",
    "SAFFL": "Y",
    "ITTFL": "Y",
    "EFFFL": "Y"
  },
  {
    "STUDYID": "CDISCPILOT01",
    "USUBJID": "01-701-008",
    "TRTP": "Xanomeline Low Dose",
    "TRTPN": 1,
    "PARAMCD": "ACTOT11",
    "PARAM": "ADAS-Cog (11) Total Score",
    "AVAL": 17,
    "BASE": 16,
    "CHG": 1,
    "ACAT1": "Worsening",
    "ADT": "2013-12-22",
    "ADY": 29,
    "AVISIT": "WEEK 4",
    "AVISITN": 3,
    "ABLFL": "",
    "DTYPE": "",
    "ANL01FL": "Y",
    "ANL02FL": "",
    "ANL03FL": "",
    "AGE": 76,
    "AGEGR1": "65-80",
    "SEX": "M",
    "MMSETOT": 13,
    "MMSEGRP": "Severe (0-14)",
    "COMPLFL": "Y",
    "SAFFL": "Y",
    "ITTFL": "Y",
    "EFFFL": "Y"
  },
  {
    "STUDYID": "CDISCPILOT01",
    "USUBJID": "01-701-008",
    "TRTP": "Xanomeline Low Dose",
    "TRTPN": 1,
    "PARAMCD": "ACTOT11",
    "PARAM": "ADAS-Cog (11) Total Score",
    "AVAL": 21,
    "BASE": 16,
    "CHG": 5,
    "ACAT1": "Marked Worsening",
    "ADT": "2014-01-19",
    "ADY": 57,
    "AVISIT": "WEEK 8",
    "AVISITN": 4,
    "ABLFL": "",
    "DTYPE": "",
    "ANL01FL": "Y",
    "ANL02FL": "",
    "ANL03FL": "",
    "AGE": 76,
    "AGEGR1": "65-80",
    "SEX": "M",
    "MMSETOT": 13,
    "MMSEGRP": "Severe (0-14)",
    "COMPLFL": "Y",
    "SAFFL": "Y",
    "ITTFL": "Y",
    "EFFFL": "Y"
  },
  {
    "STUDYID": "CDISCPILOT01",
    "USUBJID": "01-701-008",
    "TRTP": "Xanomeline Low Dose",
    "TRTPN": 1,
    "PARAMCD": "ACTOT11",
    "PARAM": "ADAS-Cog (11) Total Score",
    "AVAL": 11,
    "BASE": 16,
    "CHG": -5,
    "ACAT1": "Marked Improvement",
    "ADT": "2014-02-16",
    "ADY": 85,
    "AVISIT": "WEEK 12",
    "AVISITN": 5,
    "ABLFL": "",
    "DTYPE": "",
    "ANL01FL": "Y",
    "ANL02FL": "",
    "ANL03FL": "",
    "AGE": 76,
    "AGEGR1": "65-80",
    "SEX": "M",
    "MMSETOT": 13,
    "MMSEGRP": "Severe (0-14)",
    "COMPLFL": "Y",
    "SAFFL": "Y",
    "ITTFL": "Y",
    "EFFFL": "Y"
  },
  {
    "STUDYID": "CDISCPILOT01",
    "USUBJID": "01-701-008",
    "TRTP": "Xanomeline Low Dose",
    "TRTPN": 1,
    "PARAMCD": "ACTOT11",
    "PARAM": "ADAS-Cog (11) Total Score",
    "AVAL": 12,
    "BASE": 16,
    "CHG": -4,
    "ACAT1": "Marked Improvement",
    "ADT": "2014-05-11",
    "ADY": 169,
    "AVISIT": "WEEK 24",
    "AVISITN": 7,
    "ABLFL": "",
    "DTYPE": "",
    "ANL01FL": "Y",
    "ANL02FL": "Y",
    "ANL03FL": "Y",
    "AGE": 76,
    "AGEGR1": "65-80",
    "SEX": "M",
    "MMSETOT": 13,
    "MMSEGRP": "Severe (0-14)",
    "COMPLFL": "Y",
    "SAFFL": "Y",
    "ITTFL": "Y",
    "EFFFL": "Y"
  },
  {
    "STUDYID": "CDISCPILOT01",
    "USUBJID": "01-701-008",
    "TRTP": "Xanomeline Low Dose",
    "TRTPN": 1,
    "PARAMCD": "CIBIC",
    "PARAM": "CIBIC+ Global Impression of Change",
    "AVAL": 4,
    "ACAT1": "No Change",
    "ADT": "2014-05-11",
    "ADY": 169,
    "AVISIT": "WEEK 24",
    "AVISITN": 7,
    "ABLFL": "",
    "DTYPE": "",
    "ANL01FL": "Y",
    "ANL02FL": "Y",
    "ANL03FL": "Y",
    "AGE": 76,
    "AGEGR1": "65-80",
    "SEX": "M",
    "MMSETOT": 13,
    "MMSEGRP": "Severe (0-14)",
    "COMPLFL": "Y",
    "SAFFL": "Y",
    "ITTFL": "Y",
    "EFFFL": "Y"
  },
  {
    "STUDYID": "CDISCPILOT01",
    "USUBJID": "01-701-009",
    "TRTP": "Xanomeline Low Dose",
    "TRTPN": 1,
    "PARAMCD": "ACTOT11",
    "PARAM": "ADAS-Cog (11) Total Score",
    "AVAL": 33,
    "BASE": 33,
    "CHG": 0,
    "ACAT1": "No Change",
    "ADT": "2013-06-08",
    "ADY": 1,
    "AVISIT": "BASELINE",
    "AVISITN": 1,
    "ABLFL": "Y",
    "DTYPE": "",
    "ANL01FL": "Y",
    "ANL02FL": "",
    "ANL03FL": "",
    "AGE": 57,
    "AGEGR1": "<65",
    "SEX": "F",
    "MMSETOT": 19,
    "MMSEGRP": "Moderate (15-19)",
    "COMPLFL": "N",
    "SAFFL": "Y",
    "ITTFL": "Y",
    "EFFFL": "Y"
  },
  {
    "STUDYID": "CDISCPILOT01",
    "USUBJID": "01-701-009",
    "TRTP": "Xanomeline Low Dose",
    "TRTPN": 1,
    "PARAMCD": "ACTOT11",
    "PARAM": "ADAS-Cog (11) Total Score",
    "AVAL": 34,
    "BASE": 33,
    "CHG": 1,
    "ACAT1": "Worsening",
    "ADT": "2013-07-06",
    "ADY": 29,
    "AVISIT": "WEEK 4",
    "AVISITN": 3,
    "ABLFL": "",
    "DTYPE": "",
    "ANL01FL": "Y",
    "ANL02FL": "Y",
    "ANL03FL": "",
    "AGE": 57,
    "AGEGR1": "<65",
    "SEX": "F",
    "MMSETOT": 19,
    "MMSEGRP": "Moderate (15-19)",
    "COMPLFL": "N",
    "SAFFL": "Y",
    "ITTFL": "Y",
    "EFFFL": "Y"
  },
  {
    "STUDYID": "CDISCPILOT01",
    "USUBJID": "01-701-009",
    "TRTP": "Xanomeline Low Dose",
    "TRTPN": 1,
    "PARAMCD": "CIBIC",
    "PARAM": "CIBIC+ Global Impression of Change",
    "AVAL": 4,
    "ACAT1": "No Change",
    "ADT": "2013-11-23",
    "ADY": 169,
    "AVISIT": "WEEK 24",
    "AVISITN": 7,
    "ABLFL": "",
    "DTYPE": "",
    "ANL01FL": "Y",
    "ANL02FL": "Y",
    "ANL03FL": "Y",
    "AGE": 57,
    "AGEGR1": "<65",
    "SEX": "F",
    "MMSETOT": 19,
    "MMSEGRP": "Moderate (15-19)",
    "COMPLFL": "N",
    "SAFFL": "Y",
    "ITTFL": "Y",
    "EFFFL": "Y"
  },
  {
    "STUDYID": "CDISCPILOT01",
    "USUBJID": "01-701-010",
    "TRTP": "Xanomeline Low Dose",
    "TRTPN": 1,
    "PARAMCD": "ACTOT11",
    "PARAM": "ADAS-Cog (11) Total Score",
    "AVAL": 36,
    "BASE": 36,
    "CHG": 0,
    "ACAT1": "No Change",
    "ADT": "2013-12-03",
    "ADY": 1,
    "AVISIT": "BASELINE",
    "AVISITN": 1,
    "ABLFL": "Y",
    "DTYPE": "",
    "ANL01FL": "Y",
    "ANL02FL": "",
    "ANL03FL": "",
    "AGE": 59,
    "AGEGR1": "<65",
    "SEX": "M",
    "MMSETOT": 20,
    "MMSEGRP": "Mild (20-24)",
    "COMPLFL": "N",
    "SAFFL": "Y",
    "ITTFL": "Y",
    "EFFFL": "Y"
  },
  {
    "STUDYID": "CDISCPILOT01",
    "USUBJID": "01-701-010",
    "TRTP": "Xanomeline Low Dose",
    "TRTPN": 1,
    "PARAMCD": "ACTOT11",
    "PARAM": "ADAS-Cog (11) Total Score",
    "AVAL": 37,
    "BASE": 36,
    "CHG": 1,
    "ACAT1": "Worsening",
    "ADT": "2013-12-31",
    "ADY": 29,
    "AVISIT": "WEEK 4",
    "AVISITN": 3,
    "ABLFL": "",
    "DTYPE": "",
    "ANL01FL": "Y",
    "ANL02FL": "",
    "ANL03FL": "",
    "AGE": 59,
    "AGEGR1": "<65",
    "SEX": "M",
    "MMSETOT": 20,
    "MMSEGRP": "Mild (20-24)",
    "COMPLFL": "N",
    "SAFFL": "Y",
    "ITTFL": "Y",
    "EFFFL": "Y"
  },
  {
    "STUDYID": "CDISCPILOT01",
    "USUBJID": "01-701-010",
    "TRTP": "Xanomeline Low Dose",
    "TRTPN": 1,
    "PARAMCD": "ACTOT11",
    "PARAM": "ADAS-Cog (11) Total Score",
    "AVAL": 37,
    "BASE": 36,
    "CHG": 1,
    "ACAT1": "Worsening",
    "ADT": "2014-01-28",
    "ADY": 57,
    "AVISIT": "WEEK 8",
    "AVISITN": 4,
    "ABLFL": "",
    "DTYPE": "",
    "ANL01FL": "Y",
    "ANL02FL": "",
    "ANL03FL": "",
    "AGE": 59,
    "AGEGR1": "<65",
    "SEX": "M",
    "MMSETOT": 20,
    "MMSEGRP": "Mild (20-24)",
    "COMPLFL": "N",
    "SAFFL": "Y",
    "ITTFL": "Y",
    "EFFFL": "Y"
  },
  {
    "STUDYID": "CDISCPILOT01",
    "USUBJID": "01-701-010",
    "TRTP": "Xanomeline Low Dose",
    "TRTPN": 1,
    "PARAMCD": "ACTOT11",
    "PARAM": "ADAS-Cog (11) Total Score",
    "AVAL": 38,
    "BASE": 36,
    "CHG": 2,
    "ACAT1": "Worsening",
    "ADT": "2014-02-25",
    "ADY": 85,
    "AVISIT": "WEEK 12",
    "AVISITN": 5,
    "ABLFL": "",
    "DTYPE": "",
    "ANL01FL": "Y",
    "ANL02FL": "Y",
    "ANL03FL": "",
    "AGE": 59,
    "AGEGR1": "<65",
    "SEX": "M",
    "MMSETOT": 20,
    "MMSEGRP": "Mild (20-24)",
    "COMPLFL": "N",
    "SAFFL": "Y",
    "ITTFL": "Y",
    "EFFFL": "Y"
  },
  {
    "STUDYID": "CDISCPILOT01",
    "USUBJID": "01-701-010",
    "TRTP": "Xanomeline Low Dose",
    "TRTPN": 1,
    "PARAMCD": "CIBIC",
    "PARAM": "CIBIC+ Global Impression of Change",
    "AVAL": 4,
    "ACAT1": "No Change",
    "ADT": "2014-05-20",
    "ADY": 169,
    "AVISIT": "WEEK 24",
    "AVISITN": 7,
    "ABLFL": "",
    "DTYPE": "",
    "ANL01FL": "Y",
    "ANL02FL": "Y",
    "ANL03FL": "Y",
    "AGE": 59,
    "AGEGR1": "<65",
    "SEX": "M",
    "MMSETOT": 20,
    "MMSEGRP": "Mild (20-24)",
    "COMPLFL": "N",
    "SAFFL": "Y",
    "ITTFL": "Y",
    "EFFFL": "Y"
  },
  {
    "STUDYID": "CDISCPILOT01",
    "USUBJID": "01-701-011",
    "TRTP": "Xanomeline High Dose",
    "TRTPN": 2,
    "PARAMCD": "ACTOT11",
    "PARAM": "ADAS-Cog (11) Total Score",
    "AVAL": 12,
    "BASE": 12,
    "CHG": 0,
    "ACAT1": "No Change",
    "ADT": "2013-08-01",
    "ADY": 1,
    "AVISIT": "BASELINE",
    "AVISITN": 1,
    "ABLFL": "Y",
    "DTYPE": "",
    "ANL01FL": "Y",
    "ANL02FL": "",
    "ANL03FL": "",
    "AGE": 76,
    "AGEGR1": "65-80",
    "SEX": "F",
    "MMSETOT": 17,
    "MMSEGRP": "Moderate (15-19)",
    "COMPLFL": "Y",
    "SAFFL": "Y",
    "ITTFL": "Y",
    "EFFFL": "Y"
  },
  {
    "STUDYID": "CDISCPILOT01",
    "USUBJID": "01-701-011",
    "TRTP": "Xanomeline High Dose",
    "TRTPN": 2,
    "PARAMCD": "ACTOT11",
    "PARAM": "ADAS-Cog (11) Total Score",
    "AVAL": 15,
    "BASE": 12,
    "CHG": 3,
    "ACAT1": "Worsening",
    "ADT": "2013-08-29",
    "ADY": 29,
    "AVISIT": "WEEK 4",
    "AVISITN": 3,
    "ABLFL": "",
    "DTYPE": "",
    "ANL01FL": "Y",
    "ANL02FL": "",
    "ANL03FL": "",
    "AGE": 76,
    "AGEGR1": "65-80",
    "SEX": "F",
    "MMSETOT": 17,
    "MMSEGRP": "Moderate (15-19)",
    "COMPLFL": "Y",
    "SAFFL": "Y",
    "ITTFL": "Y",
    "EFFFL": "Y"
  },
  {
    "STUDYID": "CDISCPILOT01",
    "USUBJID": "01-701-011",
    "TRTP": "Xanomeline High Dose",
    "TRTPN": 2,
    "PARAMCD": "ACTOT11",
    "PARAM": "ADAS-Cog (11) Total Score",
    "AVAL": 11,
    "BASE": 12,
    "CHG": -1,
    "ACAT1": "Improvement",
    "ADT": "2013-09-26",
    "ADY": 57,
    "AVISIT": "WEEK 8",
    "AVISITN": 4,
    "ABLFL": "",
    "DTYPE": "",
    "ANL01FL": "Y",
    "ANL02FL": "",
    "ANL03FL": "",
    "AGE": 76,
    "AGEGR1": "65-80",
    "SEX": "F",
    "MMSETOT": 17,
    "MMSEGRP": "Moderate (15-19)",
    "COMPLFL": "Y",
    "SAFFL": "Y",
    "ITTFL": "Y",
    "EFFFL": "Y"
  },
  {
    "STUDYID": "CDISCPILOT01",
    "USUBJID": "01-701-011",
    "TRTP": "Xanomeline High Dose",
    "TRTPN": 2,
    "PARAMCD": "ACTOT11",
    "PARAM": "ADAS-Cog (11) Total Score",
    "AVAL": 18,
    "BASE": 12,
    "CHG": 6,
    "ACAT1": "Marked Worsening",
    "ADT": "2013-10-24",
    "ADY": 85,
    "AVISIT": "WEEK 12",
    "AVISITN": 5,
    "ABLFL": "",
    "DTYPE": "",
    "ANL01FL": "Y",
    "ANL02FL": "",
    "ANL03FL": "",
    "AGE": 76,
    "AGEGR1": "65-80",
    "SEX": "F",
    "MMSETOT": 17,
    "MMSEGRP": "Moderate (15-19)",
    "COMPLFL": "Y",
    "SAFFL": "Y",
    "ITTFL": "Y",
    "EFFFL": "Y"
  },
  {
    "STUDYID": "CDISCPILOT01",
    "USUBJID": "01-701-011",
    "TRTP": "Xanomeline High Dose",
    "TRTPN": 2,
    "PARAMCD": "ACTOT11",
    "PARAM": "ADAS-Cog (11) Total Score",
    "AVAL": 15,
    "BASE": 12,
    "CHG": 3,
    "ACAT1": "Worsening",
    "ADT": "2014-01-16",
    "ADY": 169,
    "AVISIT": "WEEK 24",
    "AVISITN": 7,
    "ABLFL": "",
    "DTYPE": "",
    "ANL01FL": "Y",
    "ANL02FL": "Y",
    "ANL03FL": "Y",
    "AGE": 76,
    "AGEGR1": "65-80",
    "SEX": "F",
    "MMSETOT": 17,
    "MMSEGRP": "Moderate (15-19)",
    "COMPLFL": "Y",
    "SAFFL": "Y",
    "ITTFL": "Y",
    "EFFFL": "Y"
  },
  {
    "STUDYID": "CDISCPILOT01",
    "USUBJID": "01-701-011",
    "TRTP": "Xanomeline High Dose",
    "TRTPN": 2,
    "PARAMCD": "CIBIC",
    "PARAM": "CIBIC+ Global Impression of Change",
    "AVAL": 6,
    "ACAT1": "Worsened",
    "ADT": "2014-01-16",
    "ADY": 169,
    "AVISIT": "WEEK 24",
    "AVISITN": 7,
    "ABLFL": "",
    "DTYPE": "",
    "ANL01FL": "Y",
    "ANL02FL": "Y",
    "ANL03FL": "Y",
    "AGE": 76,
    "AGEGR1": "65-80",
    "SEX": "F",
    "MMSETOT": 17,
    "MMSEGRP": "Moderate (15-19)",
    "COMPLFL": "Y",
    "SAFFL": "Y",
    "ITTFL": "Y",
    "EFFFL": "Y"
  },
  {
    "STUDYID": "CDISCPILOT01",
    "USUBJID": "01-701-012",
    "TRTP": "Placebo",
    "TRTPN": 0,
    "PARAMCD": "ACTOT11",
    "PARAM": "ADAS-Cog (11) Total Score",
    "AVAL": 5,
    "BASE": 5,
    "CHG": 0,
    "ACAT1": "No Change",
    "ADT": "2013-03-09",
    "ADY": 1,
    "AVISIT": "BASELINE",
    "AVISITN": 1,
    "ABLFL": "Y",
    "DTYPE": "",
    "ANL01FL": "Y",
    "ANL02FL": "",
    "ANL03FL": "",
    "AGE": 67,
    "AGEGR1": "65-80",
    "SEX": "M",
    "MMSETOT": 22,
    "MMSEGRP": "Mild (20-24)",
    "COMPLFL": "Y",
    "SAFFL": "Y",
    "ITTFL": "Y",
    "EFFFL": "Y"
  },
  {
    "STUDYID": "CDISCPILOT01",
    "USUBJID": "01-701-012",
    "TRTP": "Placebo",
    "TRTPN": 0,
    "PARAMCD": "ACTOT11",
    "PARAM": "ADAS-Cog (11) Total Score",
    "AVAL": 8,
    "BASE": 5,
    "CHG": 3,
    "ACAT1": "Worsening",
    "ADT": "2013-04-06",
    "ADY": 29,
    "AVISIT": "WEEK 4",
    "AVISITN": 3,
    "ABLFL": "",
    "DTYPE": "",
    "ANL01FL": "Y",
    "ANL02FL": "",
    "ANL03FL": "",
    "AGE": 67,
    "AGEGR1": "65-80",
    "SEX": "M",
    "MMSETOT": 22,
    "MMSEGRP": "Mild (20-24)",
    "COMPLFL": "Y",
    "SAFFL": "Y",
    "ITTFL": "Y",
    "EFFFL": "Y"
  },
  {
    "STUDYID": "CDISCPILOT01",
    "USUBJID": "01-701-012",
    "TRTP": "Placebo",
    "TRTPN": 0,
    "PARAMCD": "ACTOT11",
    "PARAM": "ADAS-Cog (11) Total Score",
    "AVAL": 9,
    "BASE": 5,
    "CHG": 4,
    "ACAT1": "Marked Worsening",
    "ADT": "2013-05-04",
    "ADY": 57,
    "AVISIT": "WEEK 8",
    "AVISITN": 4,
    "ABLFL": "",
    "DTYPE": "",
    "ANL01FL": "Y",
    "ANL02FL": "",
    "ANL03FL": "",
    "AGE": 67,
    "AGEGR1": "65-80",
    "SEX": "M",
    "MMSETOT": 22,
    "MMSEGRP": "Mild (20-24)",
    "COMPLFL": "Y",
    "SAFFL": "Y",
    "ITTFL": "Y",
    "EFFFL": "Y"
  },
  {
    "STUDYID": "CDISCPILOT01",
    "USUBJID": "01-701-012",
    "TRTP": "Placebo",
    "TRTPN": 0,
    "PARAMCD": "ACTOT11",
    "PARAM": "ADAS-Cog (11) Total Score",
    "AVAL": 7,
    "BASE": 5,
    "CHG": 2,
    "ACAT1": "Worsening",
    "ADT": "2013-06-01",
    "ADY": 85,
    "AVISIT": "WEEK 12",
    "AVISITN": 5,
    "ABLFL": "",
    "DTYPE": "",
    "ANL01FL": "Y",
    "ANL02FL": "",
    "ANL03FL": "",
    "AGE": 67,
    "AGEGR1": "65-80",
    "SEX": "M",
    "MMSETOT": 22,
    "MMSEGRP": "Mild (20-24)",
    "COMPLFL": "Y",
    "SAFFL": "Y",
    "ITTFL": "Y",
    "EFFFL": "Y"
  },
  {
    "STUDYID": "CDISCPILOT01",
    "USUBJID": "01-701-012",
    "TRTP": "Placebo",
    "TRTPN": 0,
    "PARAMCD": "ACTOT11",
    "PARAM": "ADAS-Cog (11) Total Score",
    "AVAL": 12,
    "BASE": 5,
    "CHG": 7,
    "ACAT1": "Marked Worsening",
    "ADT": "2013-08-24",
    "ADY": 169,
    "AVISIT": "WEEK 24",
    "AVISITN": 7,
    "ABLFL": "",
    "DTYPE": "",
    "ANL01FL": "Y",
    "ANL02FL": "Y",
    "ANL03FL": "Y",
    "AGE": 67,
    "AGEGR1": "65-80",
    "SEX": "M",
    "MMSETOT": 22,
    "MMSEGRP": "Mild (20-24)",
    "COMPLFL": "Y",
    "SAFFL": "Y",
    "ITTFL": "Y",
    "EFFFL": "Y"
  },
  {
    "STUDYID": "CDISCPILOT01",
    "USUBJID": "01-701-012",
    "TRTP": "Placebo",
    "TRTPN": 0,
    "PARAMCD": "CIBIC",
    "PARAM": "CIBIC+ Global Impression of Change",
    "AVAL": 4,
    "ACAT1": "No Change",
    "ADT": "2013-08-24",
    "ADY": 169,
    "AVISIT": "WEEK 24",
    "AVISITN": 7,
    "ABLFL": "",
    "DTYPE": "",
    "ANL01FL": "Y",
    "ANL02FL": "Y",
    "ANL03FL": "Y",
    "AGE": 67,
    "AGEGR1": "65-80",
    "SEX": "M",
    "MMSETOT": 22,
    "MMSEGRP": "Mild (20-24)",
    "COMPLFL": "Y",
    "SAFFL": "Y",
    "ITTFL": "Y",
    "EFFFL": "Y"
  },
  {
    "STUDYID": "CDISCPILOT01",
    "USUBJID": "01-701-013",
    "TRTP": "Xanomeline High Dose",
    "TRTPN": 2,
    "PARAMCD": "ACTOT11",
    "PARAM": "ADAS-Cog (11) Total Score",
    "AVAL": 4,
    "BASE": 4,
    "CHG": 0,
    "ACAT1": "No Change",
    "ADT": "2013-10-22",
    "ADY": 1,
    "AVISIT": "BASELINE",
    "AVISITN": 1,
    "ABLFL": "Y",
    "DTYPE": "",
    "ANL01FL": "Y",
    "ANL02FL": "",
    "ANL03FL": "",
    "AGE": 79,
    "AGEGR1": "65-80",
    "SEX": "F",
    "MMSETOT": 15,
    "MMSEGRP": "Moderate (15-19)",
    "COMPLFL": "N",
    "SAFFL": "Y",
    "ITTFL": "Y",
    "EFFFL": "Y"
  },
  {
    "STUDYID": "CDISCPILOT01",
    "USUBJID": "01-701-013",
    "TRTP": "Xanomeline High Dose",
    "TRTPN": 2,
    "PARAMCD": "ACTOT11",
    "PARAM": "ADAS-Cog (11) Total Score",
    "AVAL": 5,
    "BASE": 4,
    "CHG": 1,
    "ACAT1": "Worsening",
    "ADT": "2013-11-19",
    "ADY": 29,
    "AVISIT": "WEEK 4",
    "AVISITN": 3,
    "ABLFL": "",
    "DTYPE": "",
    "ANL01FL": "Y",
    "ANL02FL": "",
    "ANL03FL": "",
    "AGE": 79,
    "AGEGR1": "65-80",
    "SEX": "F",
    "MMSETOT": 15,
    "MMSEGRP": "Moderate (15-19)",
    "COMPLFL": "N",
    "SAFFL": "Y",
    "ITTFL": "Y",
    "EFFFL": "Y"
  },
  {
    "STUDYID": "CDISCPILOT01",
    "USUBJID": "01-701-013",
    "TRTP": "Xanomeline High Dose",
    "TRTPN": 2,
    "PARAMCD": "ACTOT11",
    "PARAM": "ADAS-Cog (11) Total Score",
    "AVAL": 6,
    "BASE": 4,
    "CHG": 2,
    "ACAT1": "Worsening",
    "ADT": "2013-12-17",
    "ADY": 57,
    "AVISIT": "WEEK 8",
    "AVISITN": 4,
    "ABLFL": "",
    "DTYPE": "",
    "ANL01FL": "Y",
    "ANL02FL": "Y",
    "ANL03FL": "",
    "AGE": 79,
    "AGEGR1": "65-80",
    "SEX": "F",
    "MMSETOT": 15,
    "MMSEGRP": "Moderate (15-19)",
    "COMPLFL": "N",
    "SAFFL": "Y",
    "ITTFL": "Y",
    "EFFFL": "Y"
  },
  {
    "STUDYID": "CDISCPILOT01",
    "USUBJID": "01-701-013",
    "TRTP": "Xanomeline High Dose",
    "TRTPN": 2,
    "PARAMCD": "CIBIC",
    "PARAM": "CIBIC+ Global Impression of Change",
    "AVAL": 4,
    "ACAT1": "No Change",
    "ADT": "2014-04-08",
    "ADY": 169,
    "AVISIT": "WEEK 24",
    "AVISITN": 7,
    "ABLFL": "",
    "DTYPE": "",
    "ANL01FL": "Y",
    "ANL02FL": "Y",
    "ANL03FL": "Y",
    "AGE": 79,
    "AGEGR1": "65-80",
    "SEX": "F",
    "MMSETOT": 15,
    "MMSEGRP": "Moderate (15-19)",
    "COMPLFL": "N",
    "SAFFL": "Y",
    "ITTFL": "Y",
    "EFFFL": "Y"
  },
  {
    "STUDYID": "CDISCPILOT01",
    "USUBJID": "01-701-014",
    "TRTP": "Xanomeline Low Dose",
    "TRTPN": 1,
    "PARAMCD": "ACTOT11",
    "PARAM": "ADAS-Cog (11) Total Score",
    "AVAL": 3,
    "BASE": 3,
    "CHG": 0,
    "ACAT1": "No Change",
    "ADT": "2013-12-08",
    "ADY": 1,
    "AVISIT": "BASELINE",
    "AVISITN": 1,
    "ABLFL": "Y",
    "DTYPE": "",
    "ANL01FL": "Y",
    "ANL02FL": "",
    "ANL03FL": "",
    "AGE": 79,
    "AGEGR1": "65-80",
    "SEX": "F",
    "MMSETOT": 16,
    "MMSEGRP": "Moderate (15-19)",
    "COMPLFL": "N",
    "SAFFL": "Y",
    "ITTFL": "Y",
    "EFFFL": "Y"
  },
  {
    "STUDYID": "CDISCPILOT01",
    "USUBJID": "01-701-014",
    "TRTP": "Xanomeline Low Dose",
    "TRTPN": 1,
    "PARAMCD": "ACTOT11",
    "PARAM": "ADAS-Cog (11) Total Score",
    "AVAL": 4,
    "BASE": 3,
    "CHG": 1,
    "ACAT1": "Worsening",
    "ADT": "2014-01-05",
    "ADY": 29,
    "AVISIT": "WEEK 4",
    "AVISITN": 3,
    "ABLFL": "",
    "DTYPE": "",
    "ANL01FL": "Y",
    "ANL02FL": "",
    "ANL03FL": "",
    "AGE": 79,
    "AGEGR1": "65-80",
    "SEX": "F",
    "MMSETOT": 16,
    "MMSEGRP": "Moderate (15-19)",
    "COMPLFL": "N",
    "SAFFL": "Y",
    "ITTFL": "Y",
    "EFFFL": "Y"
  },
  {
    "STUDYID": "CDISCPILOT01",
    "USUBJID": "01-701-014",
    "TRTP": "Xanomeline Low Dose",
    "TRTPN": 1,
    "PARAMCD": "ACTOT11",
    "PARAM": "ADAS-Cog (11) Total Score",
    "AVAL": 8,
    "BASE": 3,
    "CHG": 5,
    "ACAT1": "Marked Worsening",
    "ADT": "2014-02-02",
    "ADY": 57,
    "AVISIT": "WEEK 8",
    "AVISITN": 4,
    "ABLFL": "",
    "DTYPE": "",
    "ANL01FL": "Y",
    "ANL02FL": "",
    "ANL03FL": "",
    "AGE": 79,
    "AGEGR1": "65-80",
    "SEX": "F",
    "MMSETOT": 16,
    "MMSEGRP": "Moderate (15-19)",
    "COMPLFL": "N",
    "SAFFL": "Y",
    "ITTFL": "Y",
    "EFFFL": "Y"
  },
  {
    "STUDYID": "CDISCPILOT01",
    "USUBJID": "01-701-014",
    "TRTP": "Xanomeline Low Dose",
    "TRTPN": 1,
    "PARAMCD": "ACTOT11",
    "PARAM": "ADAS-Cog (11) Total Score",
    "AVAL": 7,
    "BASE": 3,
    "CHG": 4,
    "ACAT1": "Marked Worsening",
    "ADT": "2014-03-02",
    "ADY": 85,
    "AVISIT": "WEEK 12",
    "AVISITN": 5,
    "ABLFL": "",
    "DTYPE": "",
    "ANL01FL": "Y",
    "ANL02FL": "Y",
    "ANL03FL": "",
    "AGE": 79,
    "AGEGR1": "65-80",
    "SEX": "F",
    "MMSETOT": 16,
    "MMSEGRP": "Moderate (15-19)",
    "COMPLFL": "N",
    "SAFFL": "Y",
    "ITTFL": "Y",
    "EFFFL": "Y"
  },
  {
    "STUDYID": "CDISCPILOT01",
    "USUBJID": "01-701-014",
    "TRTP": "Xanomeline Low Dose",
    "TRTPN": 1,
    "PARAMCD": "CIBIC",
    "PARAM": "CIBIC+ Global Impression of Change",
    "AVAL": 4,
    "ACAT1": "No Change",
    "ADT": "2014-05-25",
    "ADY": 169,
    "AVISIT": "WEEK 24",
    "AVISITN": 7,
    "ABLFL": "",
    "DTYPE": "",
    "ANL01FL": "Y",
    "ANL02FL": "Y",
    "ANL03FL": "Y",
    "AGE": 79,
    "AGEGR1": "65-80",
    "SEX": "F",
    "MMSETOT": 16,
    "MMSEGRP": "Moderate (15-19)",
    "COMPLFL": "N",
    "SAFFL": "Y",
    "ITTFL": "Y",
    "EFFFL": "Y"
  },
  {
    "STUDYID": "CDISCPILOT01",
    "USUBJID": "01-701-015",
    "TRTP": "Placebo",
    "TRTPN": 0,
    "PARAMCD": "ACTOT11",
    "PARAM": "ADAS-Cog (11) Total Score",
    "AVAL": 35,
    "BASE": 35,
    "CHG": 0,
    "ACAT1": "No Change",
    "ADT": "2013-07-01",
    "ADY": 1,
    "AVISIT": "BASELINE",
    "AVISITN": 1,
    "ABLFL": "Y",
    "DTYPE": "",
    "ANL01FL": "Y",
    "ANL02FL": "",
    "ANL03FL": "",
    "AGE": 80,
    "AGEGR1": ">80",
    "SEX": "M",
    "MMSETOT": 22,
    "MMSEGRP": "Mild (20-24)",
    "COMPLFL": "Y",
    "SAFFL": "Y",
    "ITTFL": "Y",
    "EFFFL": "Y"
  },
  {
    "STUDYID": "CDISCPILOT01",
    "USUBJID": "01-701-015",
    "TRTP": "Placebo",
    "TRTPN": 0,
    "PARAMCD": "ACTOT11",
    "PARAM": "ADAS-Cog (11) Total Score",
    "AVAL": 34,
    "BASE": 35,
    "CHG": -1,
    "ACAT1": "Improvement",
    "ADT": "2013-07-29",
    "ADY": 29,
    "AVISIT": "WEEK 4",
    "AVISITN": 3,
    "ABLFL": "",
    "DTYPE": "",
    "ANL01FL": "Y",
    "ANL02FL": "",
    "ANL03FL": "",
    "AGE": 80,
    "AGEGR1": ">80",
    "SEX": "M",
    "MMSETOT": 22,
    "MMSEGRP": "Mild (20-24)",
    "COMPLFL": "Y",
    "SAFFL": "Y",
    "ITTFL": "Y",
    "EFFFL": "Y"
  },
  {
    "STUDYID": "CDISCPILOT01",
    "USUBJID": "01-701-015",
    "TRTP": "Placebo",
    "TRTPN": 0,
    "PARAMCD": "ACTOT11",
    "PARAM": "ADAS-Cog (11) Total Score",
    "AVAL": 36,
    "BASE": 35,
    "CHG": 1,
    "ACAT1": "Worsening",
    "ADT": "2013-08-26",
    "ADY": 57,
    "AVISIT": "WEEK 8",
    "AVISITN": 4,
    "ABLFL": "",
    "DTYPE": "",
    "ANL01FL": "Y",
    "ANL02FL": "",
    "ANL03FL": "",
    "AGE": 80,
    "AGEGR1": ">80",
    "SEX": "M",
    "MMSETOT": 22,
    "MMSEGRP": "Mild (20-24)",
    "COMPLFL": "Y",
    "SAFFL": "Y",
    "ITTFL": "Y",
    "EFFFL": "Y"
  },
  {
    "STUDYID": "CDISCPILOT01",
    "USUBJID": "01-701-015",
    "TRTP": "Placebo",
    "TRTPN": 0,
    "PARAMCD": "ACTOT11",
    "PARAM": "ADAS-Cog (11) Total Score",
    "AVAL": 35,
    "BASE": 35,
    "CHG": 0,
    "ACAT1": "No Change",
    "ADT": "2013-09-23",
    "ADY": 85,
    "AVISIT": "WEEK 12",
    "AVISITN": 5,
    "ABLFL": "",
    "DTYPE": "",
    "ANL01FL": "Y",
    "ANL02FL": "",
    "ANL03FL": "",
    "AGE": 80,
    "AGEGR1": ">80",
    "SEX": "M",
    "MMSETOT": 22,
    "MMSEGRP": "Mild (20-24)",
    "COMPLFL": "Y",
    "SAFFL": "Y",
    "ITTFL": "Y",
    "EFFFL": "Y"
  },
  {
    "STUDYID": "CDISCPILOT01",
    "USUBJID": "01-701-015",
    "TRTP": "Placebo",
    "TRTPN": 0,
    "PARAMCD": "ACTOT11",
    "PARAM": "ADAS-Cog (11) Total Score",
    "AVAL": 42,
    "BASE": 35,
    "CHG": 7,
    "ACAT1": "Marked Worsening",
    "ADT": "2013-12-16",
    "ADY": 169,
    "AVISIT": "WEEK 24",
    "AVISITN": 7,
    "ABLFL": "",
    "DTYPE": "",
    "ANL01FL": "Y",
    "ANL02FL": "Y",
    "ANL03FL": "Y",
    "AGE": 80,
    "AGEGR1": ">80",
    "SEX": "M",
    "MMSETOT": 22,
    "MMSEGRP": "Mild (20-24)",
    "COMPLFL": "Y",
    "SAFFL": "Y",
    "ITTFL": "Y",
    "EFFFL": "Y"
  },
  {
    "STUDYID": "CDISCPILOT01",
    "USUBJID": "01-701-015",
    "TRTP": "Placebo",
    "TRTPN": 0,
    "PARAMCD": "CIBIC",
    "PARAM": "CIBIC+ Global Impression of Change",
    "AVAL": 4,
    "ACAT1": "No Change",
    "ADT": "2013-12-16",
    "ADY": 169,
    "AVISIT": "WEEK 24",
    "AVISITN": 7,
    "ABLFL": "",
    "DTYPE": "",
    "ANL01FL": "Y",
    "ANL02FL": "Y",
    "ANL03FL": "Y",
    "AGE": 80,
    "AGEGR1": ">80",
    "SEX": "M",
    "MMSETOT": 22,
    "MMSEGRP": "Mild (20-24)",
    "COMPLFL": "Y",
    "SAFFL": "Y",
    "ITTFL": "Y",
    "EFFFL": "Y"
  },
  {
    "STUDYID": "CDISCPILOT01",
    "USUBJID": "01-701-016",
    "TRTP": "Xanomeline High Dose",
    "TRTPN": 2,
    "PARAMCD": "ACTOT11",
    "PARAM": "ADAS-Cog (11) Total Score",
    "AVAL": 17,
    "BASE": 17,
    "CHG": 0,
    "ACAT1": "No Change",
    "ADT": "2013-09-14",
    "ADY": 1,
    "AVISIT": "BASELINE",
    "AVISITN": 1,
    "ABLFL": "Y",
    "DTYPE": "",
    "ANL01FL": "Y",
    "ANL02FL": "",
    "ANL03FL": "",
    "AGE": 63,
    "AGEGR1": "<65",
    "SEX": "F",
    "MMSETOT": 14,
    "MMSEGRP": "Severe (0-14)",
    "COMPLFL": "Y",
    "SAFFL": "Y",
    "ITTFL": "Y",
    "EFFFL": "Y"
  },
  {
    "STUDYID": "CDISCPILOT01",
    "USUBJID": "01-701-016",
    "TRTP": "Xanomeline High Dose",
    "TRTPN": 2,
    "PARAMCD": "ACTOT11",
    "PARAM": "ADAS-Cog (11) Total Score",
    "AVAL": 16,
    "BASE": 17,
    "CHG": -1,
    "ACAT1": "Improvement",
    "ADT": "2013-10-12",
    "ADY": 29,
    "AVISIT": "WEEK 4",
    "AVISITN": 3,
    "ABLFL": "",
    "DTYPE": "",
    "ANL01FL": "Y",
    "ANL02FL": "",
    "ANL03FL": "",
    "AGE": 63,
    "AGEGR1": "<65",
    "SEX": "F",
    "MMSETOT": 14,
    "MMSEGRP": "Severe (0-14)",
    "COMPLFL": "Y",
    "SAFFL": "Y",
    "ITTFL": "Y",
    "EFFFL": "Y"
  },
  {
    "STUDYID": "CDISCPILOT01",
    "USUBJID": "01-701-016",
    "TRTP": "Xanomeline High Dose",
    "TRTPN": 2,
    "PARAMCD": "ACTOT11",
    "PARAM": "ADAS-Cog (11) Total Score",
    "AVAL": 18,
    "BASE": 17,
    "CHG": 1,
    "ACAT1": "Worsening",
    "ADT": "2013-11-09",
    "ADY": 57,
    "AVISIT": "WEEK 8",
    "AVISITN": 4,
    "ABLFL": "",
    "DTYPE": "",
    "ANL01FL": "Y",
    "ANL02FL": "",
    "ANL03FL": "",
    "AGE": 63,
    "AGEGR1": "<65",
    "SEX": "F",
    "MMSETOT": 14,
    "MMSEGRP": "Severe (0-14)",
    "COMPLFL": "Y",
    "SAFFL": "Y",
    "ITTFL": "Y",
    "EFFFL": "Y"
  },
  {
    "STUDYID": "CDISCPILOT01",
    "USUBJID": "01-701-016",
    "TRTP": "Xanomeline High Dose",
    "TRTPN": 2,
    "PARAMCD": "ACTOT11",
    "PARAM": "ADAS-Cog (11) Total Score",
    "AVAL": 18,
    "BASE": 17,
    "CHG": 1,
    "ACAT1": "Worsening",
    "ADT": "2013-12-07",
    "ADY": 85,
    "AVISIT": "WEEK 12",
    "AVISITN": 5,
    "ABLFL": "",
    "DTYPE": "",
    "ANL01FL": "Y",
    "ANL02FL": "",
    "ANL03FL": "",
    "AGE": 63,
    "AGEGR1": "<65",
    "SEX": "F",
    "MMSETOT": 14,
    "MMSEGRP": "Severe (0-14)",
    "COMPLFL": "Y",
    "SAFFL": "Y",
    "ITTFL": "Y",
    "EFFFL": "Y"
  },
  {
    "STUDYID": "CDISCPILOT01",
    "USUBJID": "01-701-016",
    "TRTP": "Xanomeline High Dose",
    "TRTPN": 2,
    "PARAMCD": "ACTOT11",
    "PARAM": "ADAS-Cog (11) Total Score",
    "AVAL": 25,
    "BASE": 17,
    "CHG": 8,
    "ACAT1": "Marked Worsening",
    "ADT": "2014-03-01",
    "ADY": 169,
    "AVISIT": "WEEK 24",
    "AVISITN": 7,
    "ABLFL": "",
    "DTYPE": "",
    "ANL01FL": "Y",
    "ANL02FL": "Y",
    "ANL03FL": "Y",
    "AGE": 63,
    "AGEGR1": "<65",
    "SEX": "F",
    "MMSETOT": 14,
    "MMSEGRP": "Severe (0-14)",
    "COMPLFL": "Y",
    "SAFFL": "Y",
    "ITTFL": "Y",
    "EFFFL": "Y"
  },
  {
    "STUDYID": "CDISCPILOT01",
    "USUBJID": "01-701-016",
    "TRTP": "Xanomeline High Dose",
    "TRTPN": 2,
    "PARAMCD": "CIBIC",
    "PARAM": "CIBIC+ Global Impression of Change",
    "AVAL": 5,
    "ACAT1": "Worsened",
    "ADT": "2014-03-01",
    "ADY": 169,
    "AVISIT": "WEEK 24",
    "AVISITN": 7,
    "ABLFL": "",
    "DTYPE": "",
    "ANL01FL": "Y",
    "ANL02FL": "Y",
    "ANL03FL": "Y",
    "AGE": 63,
    "AGEGR1": "<65",
    "SEX": "F",
    "MMSETOT": 14,
    "MMSEGRP": "Severe (0-14)",
    "COMPLFL": "Y",
    "SAFFL": "Y",
    "ITTFL": "Y",
    "EFFFL": "Y"
  },
  {
    "STUDYID": "CDISCPILOT01",
    "USUBJID": "01-701-017",
    "TRTP": "Placebo",
    "TRTPN": 0,
    "PARAMCD": "ACTOT11",
    "PARAM": "ADAS-Cog (11) Total Score",
    "AVAL": 3,
    "BASE": 3,
    "CHG": 0,
    "ACAT1": "No Change",
    "ADT": "2013-05-29",
    "ADY": 1,
    "AVISIT": "BASELINE",
    "AVISITN": 1,
    "ABLFL": "Y",
    "DTYPE": "",
    "ANL01FL": "Y",
    "ANL02FL": "",
    "ANL03FL": "",
    "AGE": 71,
    "AGEGR1": "65-80",
    "SEX": "F",
    "MMSETOT": 16,
    "MMSEGRP": "Moderate (15-19)",
    "COMPLFL": "Y",
    "SAFFL": "Y",
    "ITTFL": "Y",
    "EFFFL": "Y"
  },
  {
    "STUDYID": "CDISCPILOT01",
    "USUBJID": "01-701-017",
    "TRTP": "Placebo",
    "TRTPN": 0,
    "PARAMCD": "ACTOT11",
    "PARAM": "ADAS-Cog (11) Total Score",
    "AVAL": 5,
    "BASE": 3,
    "CHG": 2,
    "ACAT1": "Worsening",
    "ADT": "2013-06-26",
    "ADY": 29,
    "AVISIT": "WEEK 4",
    "AVISITN": 3,
    "ABLFL": "",
    "DTYPE": "",
    "ANL01FL": "Y",
    "ANL02FL": "",
    "ANL03FL": "",
    "AGE": 71,
    "AGEGR1": "65-80",
    "SEX": "F",
    "MMSETOT": 16,
    "MMSEGRP": "Moderate (15-19)",
    "COMPLFL": "Y",
    "SAFFL": "Y",
    "ITTFL": "Y",
    "EFFFL": "Y"
  },
  {
    "STUDYID": "CDISCPILOT01",
    "USUBJID": "01-701-017",
    "TRTP": "Placebo",
    "TRTPN": 0,
    "PARAMCD": "ACTOT11",
    "PARAM": "ADAS-Cog (11) Total Score",
    "AVAL": 7,
    "BASE": 3,
    "CHG": 4,
    "ACAT1": "Marked Worsening",
    "ADT": "2013-07-24",
    "ADY": 57,
    "AVISIT": "WEEK 8",
    "AVISITN": 4,
    "ABLFL": "",
    "DTYPE": "",
    "ANL01FL": "Y",
    "ANL02FL": "",
    "ANL03FL": "",
    "AGE": 71,
    "AGEGR1": "65-80",
    "SEX": "F",
    "MMSETOT": 16,
    "MMSEGRP": "Moderate (15-19)",
    "COMPLFL": "Y",
    "SAFFL": "Y",
    "ITTFL": "Y",
    "EFFFL": "Y"
  },
  {
    "STUDYID": "CDISCPILOT01",
    "USUBJID": "01-701-017",
    "TRTP": "Placebo",
    "TRTPN": 0,
    "PARAMCD": "ACTOT11",
    "PARAM": "ADAS-Cog (11) Total Score",
    "AVAL": 3,
    "BASE": 3,
    "CHG": 0,
    "ACAT1": "No Change",
    "ADT": "2013-08-21",
    "ADY": 85,
    "AVISIT": "WEEK 12",
    "AVISITN": 5,
    "ABLFL": "",
    "DTYPE": "",
    "ANL01FL": "Y",
    "ANL02FL": "",
    "ANL03FL": "",
    "AGE": 71,
    "AGEGR1": "65-80",
    "SEX": "F",
    "MMSETOT": 16,
    "MMSEGRP": "Moderate (15-19)",
    "COMPLFL": "Y",
    "SAFFL": "Y",
    "ITTFL": "Y",
    "EFFFL": "Y"
  },
  {
    "STUDYID": "CDISCPILOT01",
    "USUBJID": "01-701-017",
    "TRTP": "Placebo",
    "TRTPN": 0,
    "PARAMCD": "ACTOT11",
    "PARAM": "ADAS-Cog (11) Total Score",
    "AVAL": 3,
    "BASE": 3,
    "CHG": 0,
    "ACAT1": "No Change",
    "ADT": "2013-11-13",
    "ADY": 169,
    "AVISIT": "WEEK 24",
    "AVISITN": 7,
    "ABLFL": "",
    "DTYPE": "",
    "ANL01FL": "Y",
    "ANL02FL": "Y",
    "ANL03FL": "Y",
    "AGE": 71,
    "AGEGR1": "65-80",
    "SEX": "F",
    "MMSETOT": 16,
    "MMSEGRP": "Moderate (15-19)",
    "COMPLFL": "Y",
    "SAFFL": "Y",
    "ITTFL": "Y",
    "EFFFL": "Y"
  },
  {
    "STUDYID": "CDISCPILOT01",
    "USUBJID": "01-701-017",
    "TRTP": "Placebo",
    "TRTPN": 0,
    "PARAMCD": "CIBIC",
    "PARAM": "CIBIC+ Global Impression of Change",
    "AVAL": 2,
    "ACAT1": "Improved",
    "ADT": "2013-11-13",
    "ADY": 169,
    "AVISIT": "WEEK 24",
    "AVISITN": 7,
    "ABLFL": "",
    "DTYPE": "",
    "ANL01FL": "Y",
    "ANL02FL": "Y",
    "ANL03FL": "Y",
    "AGE": 71,
    "AGEGR1": "65-80",
    "SEX": "F",
    "MMSETOT": 16,
    "MMSEGRP": "Moderate (15-19)",
    "COMPLFL": "Y",
    "SAFFL": "Y",
    "ITTFL": "Y",
    "EFFFL": "Y"
  },
  {
    "STUDYID": "CDISCPILOT01",
    "USUBJID": "01-701-018",
    "TRTP": "Placebo",
    "TRTPN": 0,
    "PARAMCD": "ACTOT11",
    "PARAM": "ADAS-Cog (11) Total Score",
    "AVAL": 13,
    "BASE": 13,
    "CHG": 0,
    "ACAT1": "No Change",
    "ADT": "2013-04-14",
    "ADY": 1,
    "AVISIT": "BASELINE",
    "AVISITN": 1,
    "ABLFL": "Y",
    "DTYPE": "",
    "ANL01FL": "Y",
    "ANL02FL": "",
    "ANL03FL": "",
    "AGE": 69,
    "AGEGR1": "65-80",
    "SEX": "F",
    "MMSETOT": 14,
    "MMSEGRP": "Severe (0-14)",
    "COMPLFL": "Y",
    "SAFFL": "Y",
    "ITTFL": "Y",
    "EFFFL": "Y"
  },
  {
    "STUDYID": "CDISCPILOT01",
    "USUBJID": "01-701-018",
    "TRTP": "Placebo",
    "TRTPN": 0,
    "PARAMCD": "ACTOT11",
    "PARAM": "ADAS-Cog (11) Total Score",
    "AVAL": 11,
    "BASE": 13,
    "CHG": -2,
    "ACAT1": "Improvement",
    "ADT": "2013-05-12",
    "ADY": 29,
    "AVISIT": "WEEK 4",
    "AVISITN": 3,
    "ABLFL": "",
    "DTYPE": "",
    "ANL01FL": "Y",
    "ANL02FL": "",
    "ANL03FL": "",
    "AGE": 69,
    "AGEGR1": "65-80",
    "SEX": "F",
    "MMSETOT": 14,
    "MMSEGRP": "Severe (0-14)",
    "COMPLFL": "Y",
    "SAFFL": "Y",
    "ITTFL": "Y",
    "EFFFL": "Y"
  },
  {
    "STUDYID": "CDISCPILOT01",
    "USUBJID": "01-701-018",
    "TRTP": "Placebo",
    "TRTPN": 0,
    "PARAMCD": "ACTOT11",
    "PARAM": "ADAS-Cog (11) Total Score",
    "AVAL": 10,
    "BASE": 13,
    "CHG": -3,
    "ACAT1": "Improvement",
    "ADT": "2013-06-09",
    "ADY": 57,
    "AVISIT": "WEEK 8",
    "AVISITN": 4,
    "ABLFL": "",
    "DTYPE": "",
    "ANL01FL": "Y",
    "ANL02FL": "",
    "ANL03FL": "",
    "AGE": 69,
    "AGEGR1": "65-80",
    "SEX": "F",
    "MMSETOT": 14,
    "MMSEGRP": "Severe (0-14)",
    "COMPLFL": "Y",
    "SAFFL": "Y",
    "ITTFL": "Y",
    "EFFFL": "Y"
  },
  {
    "STUDYID": "CDISCPILOT01",
    "USUBJID": "01-701-018",
    "TRTP": "Placebo",
    "TRTPN": 0,
    "PARAMCD": "ACTOT11",
    "PARAM": "ADAS-Cog (11) Total Score",
    "AVAL": 22,
    "BASE": 13,
    "CHG": 9,
    "ACAT1": "Marked Worsening",
    "ADT": "2013-07-07",
    "ADY": 85,
    "AVISIT": "WEEK 12",
    "AVISITN": 5,
    "ABLFL": "",
    "DTYPE": "",
    "ANL01FL": "Y",
    "ANL02FL": "",
    "ANL03FL": "",
    "AGE": 69,
    "AGEGR1": "65-80",
    "SEX": "F",
    "MMSETOT": 14,
    "MMSEGRP": "Severe (0-14)",
    "COMPLFL": "Y",
    "SAFFL": "Y",
    "ITTFL": "Y",
    "EFFFL": "Y"
  },
  {
    "STUDYID": "CDISCPILOT01",
    "USUBJID": "01-701-018",
    "TRTP": "Placebo",
    "TRTPN": 0,
    "PARAMCD": "ACTOT11",
    "PARAM": "ADAS-Cog (11) Total Score",
    "AVAL": 21,
    "BASE": 13,
    "CHG": 8,
    "ACAT1": "Marked Worsening",
    "ADT": "2013-09-29",
    "ADY": 169,
    "AVISIT": "WEEK 24",
    "AVISITN": 7,
    "ABLFL": "",
    "DTYPE": "",
    "ANL01FL": "Y",
    "ANL02FL": "Y",
    "ANL03FL": "Y",
    "AGE": 69,
    "AGEGR1": "65-80",
    "SEX": "F",
    "MMSETOT": 14,
    "MMSEGRP": "Severe (0-14)",
    "COMPLFL": "Y",
    "SAFFL": "Y",
    "ITTFL": "Y",
    "EFFFL": "Y"
  },
  {
    "STUDYID": "CDISCPILOT01",
    "USUBJID": "01-701-018",
    "TRTP": "Placebo",
    "TRTPN": 0,
    "PARAMCD": "CIBIC",
    "PARAM": "CIBIC+ Global Impression of Change",
    "AVAL": 5,
    "ACAT1": "Worsened",
    "ADT": "2013-09-29",
    "ADY": 169,
    "AVISIT": "WEEK 24",
    "AVISITN": 7,
    "ABLFL": "",
    "DTYPE": "",
    "ANL01FL": "Y",
    "ANL02FL": "Y",
    "ANL03FL": "Y",
    "AGE": 69,
    "AGEGR1": "65-80",
    "SEX": "F",
    "MMSETOT": 14,
    "MMSEGRP": "Severe (0-14)",
    "COMPLFL": "Y",
    "SAFFL": "Y",
    "ITTFL": "Y",
    "EFFFL": "Y"
  },
  {
    "STUDYID": "CDISCPILOT01",
    "USUBJID": "01-701-019",
    "TRTP": "Xanomeline High Dose",
    "TRTPN": 2,
    "PARAMCD": "ACTOT11",
    "PARAM": "ADAS-Cog (11) Total Score",
    "AVAL": 30,
    "BASE": 30,
    "CHG": 0,
    "ACAT1": "No Change",
    "ADT": "2013-04-14",
    "ADY": 1,
    "AVISIT": "BASELINE",
    "AVISITN": 1,
    "ABLFL": "Y",
    "DTYPE": "",
    "ANL01FL": "Y",
    "ANL02FL": "Y",
    "ANL03FL": "",
    "AGE": 84,
    "AGEGR1": ">80",
    "SEX": "F",
    "MMSETOT": 23,
    "MMSEGRP": "Mild (20-24)",
    "COMPLFL": "N",
    "SAFFL": "Y",
    "ITTFL": "Y",
    "EFFFL": "Y"
  },
  {
    "STUDYID": "CDISCPILOT01",
    "USUBJID": "01-701-019",
    "TRTP": "Xanomeline High Dose",
    "TRTPN": 2,
    "PARAMCD": "CIBIC",
    "PARAM": "CIBIC+ Global Impression of Change",
    "AVAL": 5,
    "ACAT1": "Worsened",
    "ADT": "2013-09-29",
    "ADY": 169,
    "AVISIT": "WEEK 24",
    "AVISITN": 7,
    "ABLFL": "",
    "DTYPE": "",
    "ANL01FL": "Y",
    "ANL02FL": "Y",
    "ANL03FL": "Y",
    "AGE": 84,
    "AGEGR1": ">80",
    "SEX": "F",
    "MMSETOT": 23,
    "MMSEGRP": "Mild (20-24)",
    "COMPLFL": "N",
    "SAFFL": "Y",
    "ITTFL": "Y",
    "EFFFL": "Y"
  },
  {
    "STUDYID": "CDISCPILOT01",
    "USUBJID": "01-701-020",
    "TRTP": "Xanomeline Low Dose",
    "TRTPN": 1,
    "PARAMCD": "ACTOT11",
    "PARAM": "ADAS-Cog (11) Total Score",
    "AVAL": 29,
    "BASE": 29,
    "CHG": 0,
    "ACAT1": "No Change",
    "ADT": "2013-04-10",
    "ADY": 1,
    "AVISIT": "BASELINE",
    "AVISITN": 1,
    "ABLFL": "Y",
    "DTYPE": "",
    "ANL01FL": "Y",
    "ANL02FL": "",
    "ANL03FL": "",
    "AGE": 73,
    "AGEGR1": "65-80",
    "SEX": "F",
    "MMSETOT": 15,
    "MMSEGRP": "Moderate (15-19)",
    "COMPLFL": "Y",
    "SAFFL": "Y",
    "ITTFL": "Y",
    "EFFFL": "Y"
  },
  {
    "STUDYID": "CDISCPILOT01",
    "USUBJID": "01-701-020",
    "TRTP": "Xanomeline Low Dose",
    "TRTPN": 1,
    "PARAMCD": "ACTOT11",
    "PARAM": "ADAS-Cog (11) Total Score",
    "AVAL": 30,
    "BASE": 29,
    "CHG": 1,
    "ACAT1": "Worsening",
    "ADT": "2013-05-08",
    "ADY": 29,
    "AVISIT": "WEEK 4",
    "AVISITN": 3,
    "ABLFL": "",
    "DTYPE": "",
    "ANL01FL": "Y",
    "ANL02FL": "",
    "ANL03FL": "",
    "AGE": 73,
    "AGEGR1": "65-80",
    "SEX": "F",
    "MMSETOT": 15,
    "MMSEGRP": "Moderate (15-19)",
    "COMPLFL": "Y",
    "SAFFL": "Y",
    "ITTFL": "Y",
    "EFFFL": "Y"
  },
  {
    "STUDYID": "CDISCPILOT01",
    "USUBJID": "01-701-020",
    "TRTP": "Xanomeline Low Dose",
    "TRTPN": 1,
    "PARAMCD": "ACTOT11",
    "PARAM": "ADAS-Cog (11) Total Score",
    "AVAL": 24,
    "BASE": 29,
    "CHG": -5,
    "ACAT1": "Marked Improvement",
    "ADT": "2013-06-05",
    "ADY": 57,
    "AVISIT": "WEEK 8",
    "AVISITN": 4,
    "ABLFL": "",
    "DTYPE": "",
    "ANL01FL": "Y",
    "ANL02FL": "",
    "ANL03FL": "",
    "AGE": 73,
    "AGEGR1": "65-80",
    "SEX": "F",
    "MMSETOT": 15,
    "MMSEGRP": "Moderate (15-19)",
    "COMPLFL": "Y",
    "SAFFL": "Y",
    "ITTFL": "Y",
    "EFFFL": "Y"
  },
  {
    "STUDYID": "CDISCPILOT01",
    "USUBJID": "01-701-020",
    "TRTP": "Xanomeline Low Dose",
    "TRTPN": 1,
    "PARAMCD": "ACTOT11",
    "PARAM": "ADAS-Cog (11) Total Score",
    "AVAL": 31,
    "BASE": 29,
    "CHG": 2,
    "ACAT1": "Worsening",
    "ADT": "2013-07-03",
    "ADY": 85,
    "AVISIT": "WEEK 12",
    "AVISITN": 5,
    "ABLFL": "",
    "DTYPE": "",
    "ANL01FL": "Y",
    "ANL02FL": "",
    "ANL03FL": "",
    "AGE": 73,
    "AGEGR1": "65-80",
    "SEX": "F",
    "MMSETOT": 15,
    "MMSEGRP": "Moderate (15-19)",
    "COMPLFL": "Y",
    "SAFFL": "Y",
    "ITTFL": "Y",
    "EFFFL": "Y"
  },
  {
    "STUDYID": "CDISCPILOT01",
    "USUBJID": "01-701-020",
    "TRTP": "Xanomeline Low Dose",
    "TRTPN": 1,
    "PARAMCD": "ACTOT11",
    "PARAM": "ADAS-Cog (11) Total Score",
    "AVAL": 36,
    "BASE": 29,
    "CHG": 7,
    "ACAT1": "Marked Worsening",
    "ADT": "2013-09-25",
    "ADY": 169,
    "AVISIT": "WEEK 24",
    "AVISITN": 7,
    "ABLFL": "",
    "DTYPE": "",
    "ANL01FL": "Y",
    "ANL02FL": "Y",
    "ANL03FL": "Y",
    "AGE": 73,
    "AGEGR1": "65-80",
    "SEX": "F",
    "MMSETOT": 15,
    "MMSEGRP": "Moderate (15-19)",
    "COMPLFL": "Y",
    "SAFFL": "Y",
    "ITTFL": "Y",
    "EFFFL": "Y"
  },
  {
    "STUDYID": "CDISCPILOT01",
    "USUBJID": "01-701-020",
    "TRTP": "Xanomeline Low Dose",
    "TRTPN": 1,
    "PARAMCD": "CIBIC",
    "PARAM": "CIBIC+ Global Impression of Change",
    "AVAL": 4,
    "ACAT1": "No Change",
    "ADT": "2013-09-25",
    "ADY": 169,
    "AVISIT": "WEEK 24",
    "AVISITN": 7,
    "ABLFL": "",
    "DTYPE": "",
    "ANL01FL": "Y",
    "ANL02FL": "Y",
    "ANL03FL": "Y",
    "AGE": 73,
    "AGEGR1": "65-80",
    "SEX": "F",
    "MMSETOT": 15,
    "MMSEGRP": "Moderate (15-19)",
    "COMPLFL": "Y",
    "SAFFL": "Y",
    "ITTFL": "Y",
    "EFFFL": "Y"
  },
  {
    "STUDYID": "CDISCPILOT01",
    "USUBJID": "01-701-021",
    "TRTP": "Placebo",
    "TRTPN": 0,
    "PARAMCD": "ACTOT11",
    "PARAM": "ADAS-Cog (11) Total Score",
    "AVAL": 20,
    "BASE": 20,
    "CHG": 0,
    "ACAT1": "No Change",
    "ADT": "2013-04-13",
    "ADY": 1,
    "AVISIT": "BASELINE",
    "AVISITN": 1,
    "ABLFL": "Y",
    "DTYPE": "",
    "ANL01FL": "Y",
    "ANL02FL": "",
    "ANL03FL": "",
    "AGE": 62,
    "AGEGR1": "<65",
    "SEX": "M",
    "MMSETOT": 18,
    "MMSEGRP": "Moderate (15-19)",
    "COMPLFL": "Y",
    "SAFFL": "Y",
    "ITTFL": "Y",
    "EFFFL": "Y"
  },
  {
    "STUDYID": "CDISCPILOT01",
    "USUBJID": "01-701-021",
    "TRTP": "Placebo",
    "TRTPN": 0,
    "PARAMCD": "ACTOT11",
    "PARAM": "ADAS-Cog (11) Total Score",
    "AVAL": 16,
    "BASE": 20,
    "CHG": -4,
    "ACAT1": "Marked Improvement",
    "ADT": "2013-05-11",
    "ADY": 29,
    "AVISIT": "WEEK 4",
    "AVISITN": 3,
    "ABLFL": "",
    "DTYPE": "",
    "ANL01FL": "Y",
    "ANL02FL": "",
    "ANL03FL": "",
    "AGE": 62,
    "AGEGR1": "<65",
    "SEX": "M",
    "MMSETOT": 18,
    "MMSEGRP": "Moderate (15-19)",
    "COMPLFL": "Y",
    "SAFFL": "Y",
    "ITTFL": "Y",
    "EFFFL": "Y"
  },
  {
    "STUDYID": "CDISCPILOT01",
    "USUBJID": "01-701-021",
    "TRTP": "Placebo",
    "TRTPN": 0,
    "PARAMCD": "ACTOT11",
    "PARAM": "ADAS-Cog (11) Total Score",
    "AVAL": 24,
    "BASE": 20,
    "CHG": 4,
    "ACAT1": "Marked Worsening",
    "ADT": "2013-06-08",
    "ADY": 57,
    "AVISIT": "WEEK 8",
    "AVISITN": 4,
    "ABLFL": "",
    "DTYPE": "",
    "ANL01FL": "Y",
    "ANL02FL": "",
    "ANL03FL": "",
    "AGE": 62,
    "AGEGR1": "<65",
    "SEX": "M",
    "MMSETOT": 18,
    "MMSEGRP": "Moderate (15-19)",
    "COMPLFL": "Y",
    "SAFFL": "Y",
    "ITTFL": "Y",
    "EFFFL": "Y"
  },
  {
    "STUDYID": "CDISCPILOT01",
    "USUBJID": "01-701-021",
    "TRTP": "Placebo",
    "TRTPN": 0,
    "PARAMCD": "ACTOT11",
    "PARAM": "ADAS-Cog (11) Total Score",
    "AVAL": 23,
    "BASE": 20,
    "CHG": 3,
    "ACAT1": "Worsening",
    "ADT": "2013-07-06",
    "ADY": 85,
    "AVISIT": "WEEK 12",
    "AVISITN": 5,
    "ABLFL": "",
    "DTYPE": "",
    "ANL01FL": "Y",
    "ANL02FL": "",
    "ANL03FL": "",
    "AGE": 62,
    "AGEGR1": "<65",
    "SEX": "M",
    "MMSETOT": 18,
    "MMSEGRP": "Moderate (15-19)",
    "COMPLFL": "Y",
    "SAFFL": "Y",
    "ITTFL": "Y",
    "EFFFL": "Y"
  },
  {
    "STUDYID": "CDISCPILOT01",
    "USUBJID": "01-701-021",
    "TRTP": "Placebo",
    "TRTPN": 0,
    "PARAMCD": "ACTOT11",
    "PARAM": "ADAS-Cog (11) Total Score",
    "AVAL": 22,
    "BASE": 20,
    "CHG": 2,
    "ACAT1": "Worsening",
    "ADT": "2013-09-28",
    "ADY": 169,
    "AVISIT": "WEEK 24",
    "AVISITN": 7,
    "ABLFL": "",
    "DTYPE": "",
    "ANL01FL": "Y",
    "ANL02FL": "Y",
    "ANL03FL": "Y",
    "AGE": 62,
    "AGEGR1": "<65",
    "SEX": "M",
    "MMSETOT": 18,
    "MMSEGRP": "Moderate (15-19)",
    "COMPLFL": "Y",
    "SAFFL": "Y",
    "ITTFL": "Y",
    "EFFFL": "Y"
  },
  {
    "STUDYID": "CDISCPILOT01",
    "USUBJID": "01-701-021",
    "TRTP": "Placebo",
    "TRTPN": 0,
    "PARAMCD": "CIBIC",
    "PARAM": "CIBIC+ Global Impression of Change",
    "AVAL": 4,
    "ACAT1": "No Change",
    "ADT": "2013-09-28",
    "ADY": 169,
    "AVISIT": "WEEK 24",
    "AVISITN": 7,
    "ABLFL": "",
    "DTYPE": "",
    "ANL01FL": "Y",
    "ANL02FL": "Y",
    "ANL03FL": "Y",
    "AGE": 62,
    "AGEGR1": "<65",
    "SEX": "M",
    "MMSETOT": 18,
    "MMSEGRP": "Moderate (15-19)",
    "COMPLFL": "Y",
    "SAFFL": "Y",
    "ITTFL": "Y",
    "EFFFL": "Y"
  },
  {
    "STUDYID": "CDISCPILOT01",
    "USUBJID": "01-701-022",
    "TRTP": "Xanomeline High Dose",
    "TRTPN": 2,
    "PARAMCD": "ACTOT11",
    "PARAM": "ADAS-Cog (11) Total Score",
    "AVAL": 14,
    "BASE": 14,
    "CHG": 0,
    "ACAT1": "No Change",
    "ADT": "2013-09-30",
    "ADY": 1,
    "AVISIT": "BASELINE",
    "AVISITN": 1,
    "ABLFL": "Y",
    "DTYPE": "",
    "ANL01FL": "Y",
    "ANL02FL": "",
    "ANL03FL": "",
    "AGE": 82,
    "AGEGR1": ">80",
    "SEX": "F",
    "MMSETOT": 19,
    "MMSEGRP": "Moderate (15-19)",
    "COMPLFL": "Y",
    "SAFFL": "Y",
    "ITTFL": "Y",
    "EFFFL": "Y"
  },
  {
    "STUDYID": "CDISCPILOT01",
    "USUBJID": "01-701-022",
    "TRTP": "Xanomeline High Dose",
    "TRTPN": 2,
    "PARAMCD": "ACTOT11",
    "PARAM": "ADAS-Cog (11) Total Score",
    "AVAL": 13,
    "BASE": 14,
    "CHG": -1,
    "ACAT1": "Improvement",
    "ADT": "2013-10-28",
    "ADY": 29,
    "AVISIT": "WEEK 4",
    "AVISITN": 3,
    "ABLFL": "",
    "DTYPE": "",
    "ANL01FL": "Y",
    "ANL02FL": "",
    "ANL03FL": "",
    "AGE": 82,
    "AGEGR1": ">80",
    "SEX": "F",
    "MMSETOT": 19,
    "MMSEGRP": "Moderate (15-19)",
    "COMPLFL": "Y",
    "SAFFL": "Y",
    "ITTFL": "Y",
    "EFFFL": "Y"
  },
  {
    "STUDYID": "CDISCPILOT01",
    "USUBJID": "01-701-022",
    "TRTP": "Xanomeline High Dose",
    "TRTPN": 2,
    "PARAMCD": "ACTOT11",
    "PARAM": "ADAS-Cog (11) Total Score",
    "AVAL": 15,
    "BASE": 14,
    "CHG": 1,
    "ACAT1": "Worsening",
    "ADT": "2013-11-25",
    "ADY": 57,
    "AVISIT": "WEEK 8",
    "AVISITN": 4,
    "ABLFL": "",
    "DTYPE": "",
    "ANL01FL": "Y",
    "ANL02FL": "",
    "ANL03FL": "",
    "AGE": 82,
    "AGEGR1": ">80",
    "SEX": "F",
    "MMSETOT": 19,
    "MMSEGRP": "Moderate (15-19)",
    "COMPLFL": "Y",
    "SAFFL": "Y",
    "ITTFL": "Y",
    "EFFFL": "Y"
  },
  {
    "STUDYID": "CDISCPILOT01",
    "USUBJID": "01-701-022",
    "TRTP": "Xanomeline High Dose",
    "TRTPN": 2,
    "PARAMCD": "ACTOT11",
    "PARAM": "ADAS-Cog (11) Total Score",
    "AVAL": 12,
    "BASE": 14,
    "CHG": -2,
    "ACAT1": "Improvement",
    "ADT": "2013-12-23",
    "ADY": 85,
    "AVISIT": "WEEK 12",
    "AVISITN": 5,
    "ABLFL": "",
    "DTYPE": "",
    "ANL01FL": "Y",
    "ANL02FL": "",
    "ANL03FL": "",
    "AGE": 82,
    "AGEGR1": ">80",
    "SEX": "F",
    "MMSETOT": 19,
    "MMSEGRP": "Moderate (15-19)",
    "COMPLFL": "Y",
    "SAFFL": "Y",
    "ITTFL": "Y",
    "EFFFL": "Y"
  },
  {
    "STUDYID": "CDISCPILOT01",
    "USUBJID": "01-701-022",
    "TRTP": "Xanomeline High Dose",
    "TRTPN": 2,
    "PARAMCD": "ACTOT11",
    "PARAM": "ADAS-Cog (11) Total Score",
    "AVAL": 17,
    "BASE": 14,
    "CHG": 3,
    "ACAT1": "Worsening",
    "ADT": "2014-03-17",
    "ADY": 169,
    "AVISIT": "WEEK 24",
    "AVISITN": 7,
    "ABLFL": "",
    "DTYPE": "",
    "ANL01FL": "Y",
    "ANL02FL": "Y",
    "ANL03FL": "Y",
    "AGE": 82,
    "AGEGR1": ">80",
    "SEX": "F",
    "MMSETOT": 19,
    "MMSEGRP": "Moderate (15-19)",
    "COMPLFL": "Y",
    "SAFFL": "Y",
    "ITTFL": "Y",
    "EFFFL": "Y"
  },
  {
    "STUDYID": "CDISCPILOT01",
    "USUBJID": "01-701-022",
    "TRTP": "Xanomeline High Dose",
    "TRTPN": 2,
    "PARAMCD": "CIBIC",
    "PARAM": "CIBIC+ Global Impression of Change",
    "AVAL": 3,
    "ACAT1": "Improved",
    "ADT": "2014-03-17",
    "ADY": 169,
    "AVISIT": "WEEK 24",
    "AVISITN": 7,
    "ABLFL": "",
    "DTYPE": "",
    "ANL01FL": "Y",
    "ANL02FL": "Y",
    "ANL03FL": "Y",
    "AGE": 82,
    "AGEGR1": ">80",
    "SEX": "F",
    "MMSETOT": 19,
    "MMSEGRP": "Moderate (15-19)",
    "COMPLFL": "Y",
    "SAFFL": "Y",
    "ITTFL": "Y",
    "EFFFL": "Y"
  },
  {
    "STUDYID": "CDISCPILOT01",
    "USUBJID": "01-701-023",
    "TRTP": "Xanomeline High Dose",
    "TRTPN": 2,
    "PARAMCD": "ACTOT11",
    "PARAM": "ADAS-Cog (11) Total Score",
    "AVAL": 34,
    "BASE": 34,
    "CHG": 0,
    "ACAT1": "No Change",
    "ADT": "2013-07-26",
    "ADY": 1,
    "AVISIT": "BASELINE",
    "AVISITN": 1,
    "ABLFL": "Y",
    "DTYPE": "",
    "ANL01FL": "Y",
    "ANL02FL": "",
    "ANL03FL": "",
    "AGE": 73,
    "AGEGR1": "65-80",
    "SEX": "M",
    "MMSETOT": 23,
    "MMSEGRP": "Mild (20-24)",
    "COMPLFL": "Y",
    "SAFFL": "Y",
    "ITTFL": "Y",
    "EFFFL": "Y"
  },
  {
    "STUDYID": "CDISCPILOT01",
    "USUBJID": "01-701-023",
    "TRTP": "Xanomeline High Dose",
    "TRTPN": 2,
    "PARAMCD": "ACTOT11",
    "PARAM": "ADAS-Cog (11) Total Score",
    "AVAL": 34,
    "BASE": 34,
    "CHG": 0,
    "ACAT1": "No Change",
    "ADT": "2013-08-23",
    "ADY": 29,
    "AVISIT": "WEEK 4",
    "AVISITN": 3,
    "ABLFL": "",
    "DTYPE": "",
    "ANL01FL": "Y",
    "ANL02FL": "",
    "ANL03FL": "",
    "AGE": 73,
    "AGEGR1": "65-80",
    "SEX": "M",
    "MMSETOT": 23,
    "MMSEGRP": "Mild (20-24)",
    "COMPLFL": "Y",
    "SAFFL": "Y",
    "ITTFL": "Y",
    "EFFFL": "Y"
  },
  {
    "STUDYID": "CDISCPILOT01",
    "USUBJID": "01-701-023",
    "TRTP": "Xanomeline High Dose",
    "TRTPN": 2,
    "PARAMCD": "ACTOT11",
    "PARAM": "ADAS-Cog (11) Total Score",
    "AVAL": 34,
    "BASE": 34,
    "CHG": 0,
    "ACAT1": "No Change",
    "ADT": "2013-09-20",
    "ADY": 57,
    "AVISIT": "WEEK 8",
    "AVISITN": 4,
    "ABLFL": "",
    "DTYPE": "",
    "ANL01FL": "Y",
    "ANL02FL": "",
    "ANL03FL": "",
    "AGE": 73,
    "AGEGR1": "65-80",
    "SEX": "M",
    "MMSETOT": 23,
    "MMSEGRP": "Mild (20-24)",
    "COMPLFL": "Y",
    "SAFFL": "Y",
    "ITTFL": "Y",
    "EFFFL": "Y"
  },
  {
    "STUDYID": "CDISCPILOT01",
    "USUBJID": "01-701-023",
    "TRTP": "Xanomeline High Dose",
    "TRTPN": 2,
    "PARAMCD": "ACTOT11",
    "PARAM": "ADAS-Cog (11) Total Score",
    "AVAL": 32,
    "BASE": 34,
    "CHG": -2,
    "ACAT1": "Improvement",
    "ADT": "2013-10-18",
    "ADY": 85,
    "AVISIT": "WEEK 12",
    "AVISITN": 5,
    "ABLFL": "",
    "DTYPE": "",
    "ANL01FL": "Y",
    "ANL02FL": "",
    "ANL03FL": "",
    "AGE": 73,
    "AGEGR1": "65-80",
    "SEX": "M",
    "MMSETOT": 23,
    "MMSEGRP": "Mild (20-24)",
    "COMPLFL": "Y",
    "SAFFL": "Y",
    "ITTFL": "Y",
    "EFFFL": "Y"
  },
  {
    "STUDYID": "CDISCPILOT01",
    "USUBJID": "01-701-023",
    "TRTP": "Xanomeline High Dose",
    "TRTPN": 2,
    "PARAMCD": "ACTOT11",
    "PARAM": "ADAS-Cog (11) Total Score",
    "AVAL": 34,
    "BASE": 34,
    "CHG": 0,
    "ACAT1": "No Change",
    "ADT": "2014-01-10",
    "ADY": 169,
    "AVISIT": "WEEK 24",
    "AVISITN": 7,
    "ABLFL": "",
    "DTYPE": "",
    "ANL01FL": "Y",
    "ANL02FL": "Y",
    "ANL03FL": "Y",
    "AGE": 73,
    "AGEGR1": "65-80",
    "SEX": "M",
    "MMSETOT": 23,
    "MMSEGRP": "Mild (20-24)",
    "COMPLFL": "Y",
    "SAFFL": "Y",
    "ITTFL": "Y",
    "EFFFL": "Y"
  },
  {
    "STUDYID": "CDISCPILOT01",
    "USUBJID": "01-701-023",
    "TRTP": "Xanomeline High Dose",
    "TRTPN": 2,
    "PARAMCD": "CIBIC",
    "PARAM": "CIBIC+ Global Impression of Change",
    "AVAL": 5,
    "ACAT1": "Worsened",
    "ADT": "2014-01-10",
    "ADY": 169,
    "AVISIT": "WEEK 24",
    "AVISITN": 7,
    "ABLFL": "",
    "DTYPE": "",
    "ANL01FL": "Y",
    "ANL02FL": "Y",
    "ANL03FL": "Y",
    "AGE": 73,
    "AGEGR1": "65-80",
    "SEX": "M",
    "MMSETOT": 23,
    "MMSEGRP": "Mild (20-24)",
    "COMPLFL": "Y",
    "SAFFL": "Y",
    "ITTFL": "Y",
    "EFFFL": "Y"
  },
  {
    "STUDYID": "CDISCPILOT01",
    "USUBJID": "01-701-024",
    "TRTP": "Placebo",
    "TRTPN": 0,
    "PARAMCD": "ACTOT11",
    "PARAM": "ADAS-Cog (11) Total Score",
    "AVAL": 10,
    "BASE": 10,
    "CHG": 0,
    "ACAT1": "No Change",
    "ADT": "2013-12-20",
    "ADY": 1,
    "AVISIT": "BASELINE",
    "AVISITN": 1,
    "ABLFL": "Y",
    "DTYPE": "",
    "ANL01FL": "Y",
    "ANL02FL": "",
    "ANL03FL": "",
    "AGE": 83,
    "AGEGR1": ">80",
    "SEX": "M",
    "MMSETOT": 15,
    "MMSEGRP": "Moderate (15-19)",
    "COMPLFL": "Y",
    "SAFFL": "Y",
    "ITTFL": "Y",
    "EFFFL": "Y"
  },
  {
    "STUDYID": "CDISCPILOT01",
    "USUBJID": "01-701-024",
    "TRTP": "Placebo",
    "TRTPN": 0,
    "PARAMCD": "ACTOT11",
    "PARAM": "ADAS-Cog (11) Total Score",
    "AVAL": 13,
    "BASE": 10,
    "CHG": 3,
    "ACAT1": "Worsening",
    "ADT": "2014-01-17",
    "ADY": 29,
    "AVISIT": "WEEK 4",
    "AVISITN": 3,
    "ABLFL": "",
    "DTYPE": "",
    "ANL01FL": "Y",
    "ANL02FL": "",
    "ANL03FL": "",
    "AGE": 83,
    "AGEGR1": ">80",
    "SEX": "M",
    "MMSETOT": 15,
    "MMSEGRP": "Moderate (15-19)",
    "COMPLFL": "Y",
    "SAFFL": "Y",
    "ITTFL": "Y",
    "EFFFL": "Y"
  },
  {
    "STUDYID": "CDISCPILOT01",
    "USUBJID": "01-701-024",
    "TRTP": "Placebo",
    "TRTPN": 0,
    "PARAMCD": "ACTOT11",
    "PARAM": "ADAS-Cog (11) Total Score",
    "AVAL": 15,
    "BASE": 10,
    "CHG": 5,
    "ACAT1": "Marked Worsening",
    "ADT": "2014-02-14",
    "ADY": 57,
    "AVISIT": "WEEK 8",
    "AVISITN": 4,
    "ABLFL": "",
    "DTYPE": "",
    "ANL01FL": "Y",
    "ANL02FL": "",
    "ANL03FL": "",
    "AGE": 83,
    "AGEGR1": ">80",
    "SEX": "M",
    "MMSETOT": 15,
    "MMSEGRP": "Moderate (15-19)",
    "COMPLFL": "Y",
    "SAFFL": "Y",
    "ITTFL": "Y",
    "EFFFL": "Y"
  },
  {
    "STUDYID": "CDISCPILOT01",
    "USUBJID": "01-701-024",
    "TRTP": "Placebo",
    "TRTPN": 0,
    "PARAMCD": "ACTOT11",
    "PARAM": "ADAS-Cog (11) Total Score",
    "AVAL": 3,
    "BASE": 10,
    "CHG": -7,
    "ACAT1": "Marked Improvement",
    "ADT": "2014-03-14",
    "ADY": 85,
    "AVISIT": "WEEK 12",
    "AVISITN": 5,
    "ABLFL": "",
    "DTYPE": "",
    "ANL01FL": "Y",
    "ANL02FL": "",
    "ANL03FL": "",
    "AGE": 83,
    "AGEGR1": ">80",
    "SEX": "M",
    "MMSETOT": 15,
    "MMSEGRP": "Moderate (15-19)",
    "COMPLFL": "Y",
    "SAFFL": "Y",
    "ITTFL": "Y",
    "EFFFL": "Y"
  },
  {
    "STUDYID": "CDISCPILOT01",
    "USUBJID": "01-701-024",
    "TRTP": "Placebo",
    "TRTPN": 0,
    "PARAMCD": "ACTOT11",
    "PARAM": "ADAS-Cog (11) Total Score",
    "AVAL": 3,
    "BASE": 10,
    "CHG": -7,
    "ACAT1": "Marked Improvement",
    "ADT": "2014-06-06",
    "ADY": 169,
    "AVISIT": "WEEK 24",
    "AVISITN": 7,
    "ABLFL": "",
    "DTYPE": "",
    "ANL01FL": "Y",
    "ANL02FL": "Y",
    "ANL03FL": "Y",
    "AGE": 83,
    "AGEGR1": ">80",
    "SEX": "M",
    "MMSETOT": 15,
    "MMSEGRP": "Moderate (15-19)",
    "COMPLFL": "Y",
    "SAFFL": "Y",
    "ITTFL": "Y",
    "EFFFL": "Y"
  },
  {
    "STUDYID": "CDISCPILOT01",
    "USUBJID": "01-701-024",
    "TRTP": "Placebo",
    "TRTPN": 0,
    "PARAMCD": "CIBIC",
    "PARAM": "CIBIC+ Global Impression of Change",
    "AVAL": 5,
    "ACAT1": "Worsened",
    "ADT": "2014-06-06",
    "ADY": 169,
    "AVISIT": "WEEK 24",
    "AVISITN": 7,
    "ABLFL": "",
    "DTYPE": "",
    "ANL01FL": "Y",
    "ANL02FL": "Y",
    "ANL03FL": "Y",
    "AGE": 83,
    "AGEGR1": ">80",
    "SEX": "M",
    "MMSETOT": 15,
    "MMSEGRP": "Moderate (15-19)",
    "COMPLFL": "Y",
    "SAFFL": "Y",
    "ITTFL": "Y",
    "EFFFL": "Y"
  },
  {
    "STUDYID": "CDISCPILOT01",
    "USUBJID": "01-701-025",
    "TRTP": "Placebo",
    "TRTPN": 0,
    "PARAMCD": "ACTOT11",
    "PARAM": "ADAS-Cog (11) Total Score",
    "AVAL": 3,
    "BASE": 3,
    "CHG": 0,
    "ACAT1": "No Change",
    "ADT": "2013-11-23",
    "ADY": 1,
    "AVISIT": "BASELINE",
    "AVISITN": 1,
    "ABLFL": "Y",
    "DTYPE": "",
    "ANL01FL": "Y",
    "ANL02FL": "",
    "ANL03FL": "",
    "AGE": 58,
    "AGEGR1": "<65",
    "SEX": "F",
    "MMSETOT": 24,
    "MMSEGRP": "Mild (20-24)",
    "COMPLFL": "Y",
    "SAFFL": "Y",
    "ITTFL": "Y",
    "EFFFL": "Y"
  },
  {
    "STUDYID": "CDISCPILOT01",
    "USUBJID": "01-701-025",
    "TRTP": "Placebo",
    "TRTPN": 0,
    "PARAMCD": "ACTOT11",
    "PARAM": "ADAS-Cog (11) Total Score",
    "AVAL": 3,
    "BASE": 3,
    "CHG": 0,
    "ACAT1": "No Change",
    "ADT": "2013-12-21",
    "ADY": 29,
    "AVISIT": "WEEK 4",
    "AVISITN": 3,
    "ABLFL": "",
    "DTYPE": "",
    "ANL01FL": "Y",
    "ANL02FL": "",
    "ANL03FL": "",
    "AGE": 58,
    "AGEGR1": "<65",
    "SEX": "F",
    "MMSETOT": 24,
    "MMSEGRP": "Mild (20-24)",
    "COMPLFL": "Y",
    "SAFFL": "Y",
    "ITTFL": "Y",
    "EFFFL": "Y"
  },
  {
    "STUDYID": "CDISCPILOT01",
    "USUBJID": "01-701-025",
    "TRTP": "Placebo",
    "TRTPN": 0,
    "PARAMCD": "ACTOT11",
    "PARAM": "ADAS-Cog (11) Total Score",
    "AVAL": 9,
    "BASE": 3,
    "CHG": 6,
    "ACAT1": "Marked Worsening",
    "ADT": "2014-01-18",
    "ADY": 57,
    "AVISIT": "WEEK 8",
    "AVISITN": 4,
    "ABLFL": "",
    "DTYPE": "",
    "ANL01FL": "Y",
    "ANL02FL": "",
    "ANL03FL": "",
    "AGE": 58,
    "AGEGR1": "<65",
    "SEX": "F",
    "MMSETOT": 24,
    "MMSEGRP": "Mild (20-24)",
    "COMPLFL": "Y",
    "SAFFL": "Y",
    "ITTFL": "Y",
    "EFFFL": "Y"
  },
  {
    "STUDYID": "CDISCPILOT01",
    "USUBJID": "01-701-025",
    "TRTP": "Placebo",
    "TRTPN": 0,
    "PARAMCD": "ACTOT11",
    "PARAM": "ADAS-Cog (11) Total Score",
    "AVAL": 6,
    "BASE": 3,
    "CHG": 3,
    "ACAT1": "Worsening",
    "ADT": "2014-02-15",
    "ADY": 85,
    "AVISIT": "WEEK 12",
    "AVISITN": 5,
    "ABLFL": "",
    "DTYPE": "",
    "ANL01FL": "Y",
    "ANL02FL": "",
    "ANL03FL": "",
    "AGE": 58,
    "AGEGR1": "<65",
    "SEX": "F",
    "MMSETOT": 24,
    "MMSEGRP": "Mild (20-24)",
    "COMPLFL": "Y",
    "SAFFL": "Y",
    "ITTFL": "Y",
    "EFFFL": "Y"
  },
  {
    "STUDYID": "CDISCPILOT01",
    "USUBJID": "01-701-025",
    "TRTP": "Placebo",
    "TRTPN": 0,
    "PARAMCD": "ACTOT11",
    "PARAM": "ADAS-Cog (11) Total Score",
    "AVAL": 11,
    "BASE": 3,
    "CHG": 8,
    "ACAT1": "Marked Worsening",
    "ADT": "2014-05-10",
    "ADY": 169,
    "AVISIT": "WEEK 24",
    "AVISITN": 7,
    "ABLFL": "",
    "DTYPE": "",
    "ANL01FL": "Y",
    "ANL02FL": "Y",
    "ANL03FL": "Y",
    "AGE": 58,
    "AGEGR1": "<65",
    "SEX": "F",
    "MMSETOT": 24,
    "MMSEGRP": "Mild (20-24)",
    "COMPLFL": "Y",
    "SAFFL": "Y",
    "ITTFL": "Y",
    "EFFFL": "Y"
  },
  {
    "STUDYID": "CDISCPILOT01",
    "USUBJID": "01-701-025",
    "TRTP": "Placebo",
    "TRTPN": 0,
    "PARAMCD": "CIBIC",
    "PARAM": "CIBIC+ Global Impression of Change",
    "AVAL": 4,
    "ACAT1": "No Change",
    "ADT": "2014-05-10",
    "ADY": 169,
    "AVISIT": "WEEK 24",
    "AVISITN": 7,
    "ABLFL": "",
    "DTYPE": "",
    "ANL01FL": "Y",
    "ANL02FL": "Y",
    "ANL03FL": "Y",
    "AGE": 58,
    "AGEGR1": "<65",
    "SEX": "F",
    "MMSETOT": 24,
    "MMSEGRP": "Mild (20-24)",
    "COMPLFL": "Y",
    "SAFFL": "Y",
    "ITTFL": "Y",
    "EFFFL": "Y"
  },
  {
    "STUDYID": "CDISCPILOT01",
    "USUBJID": "01-701-026",
    "TRTP": "Xanomeline Low Dose",
    "TRTPN": 1,
    "PARAMCD": "ACTOT11",
    "PARAM": "ADAS-Cog (11) Total Score",
    "AVAL": 26,
    "BASE": 26,
    "CHG": 0,
    "ACAT1": "No Change",
    "ADT": "2013-03-06",
    "ADY": 1,
    "AVISIT": "BASELINE",
    "AVISITN": 1,
    "ABLFL": "Y",
    "DTYPE": "",
    "ANL01FL": "Y",
    "ANL02FL": "",
    "ANL03FL": "",
    "AGE": 84,
    "AGEGR1": ">80",
    "SEX": "F",
    "MMSETOT": 10,
    "MMSEGRP": "Severe (0-14)",
    "COMPLFL": "Y",
    "SAFFL": "Y",
    "ITTFL": "Y",
    "EFFFL": "Y"
  },
  {
    "STUDYID": "CDISCPILOT01",
    "USUBJID": "01-701-026",
    "TRTP": "Xanomeline Low Dose",
    "TRTPN": 1,
    "PARAMCD": "ACTOT11",
    "PARAM": "ADAS-Cog (11) Total Score",
    "AVAL": 24,
    "BASE": 26,
    "CHG": -2,
    "ACAT1": "Improvement",
    "ADT": "2013-04-03",
    "ADY": 29,
    "AVISIT": "WEEK 4",
    "AVISITN": 3,
    "ABLFL": "",
    "DTYPE": "",
    "ANL01FL": "Y",
    "ANL02FL": "",
    "ANL03FL": "",
    "AGE": 84,
    "AGEGR1": ">80",
    "SEX": "F",
    "MMSETOT": 10,
    "MMSEGRP": "Severe (0-14)",
    "COMPLFL": "Y",
    "SAFFL": "Y",
    "ITTFL": "Y",
    "EFFFL": "Y"
  },
  {
    "STUDYID": "CDISCPILOT01",
    "USUBJID": "01-701-026",
    "TRTP": "Xanomeline Low Dose",
    "TRTPN": 1,
    "PARAMCD": "ACTOT11",
    "PARAM": "ADAS-Cog (11) Total Score",
    "AVAL": 31,
    "BASE": 26,
    "CHG": 5,
    "ACAT1": "Marked Worsening",
    "ADT": "2013-05-01",
    "ADY": 57,
    "AVISIT": "WEEK 8",
    "AVISITN": 4,
    "ABLFL": "",
    "DTYPE": "",
    "ANL01FL": "Y",
    "ANL02FL": "",
    "ANL03FL": "",
    "AGE": 84,
    "AGEGR1": ">80",
    "SEX": "F",
    "MMSETOT": 10,
    "MMSEGRP": "Severe (0-14)",
    "COMPLFL": "Y",
    "SAFFL": "Y",
    "ITTFL": "Y",
    "EFFFL": "Y"
  },
  {
    "STUDYID": "CDISCPILOT01",
    "USUBJID": "01-701-026",
    "TRTP": "Xanomeline Low Dose",
    "TRTPN": 1,
    "PARAMCD": "ACTOT11",
    "PARAM": "ADAS-Cog (11) Total Score",
    "AVAL": 30,
    "BASE": 26,
    "CHG": 4,
    "ACAT1": "Marked Worsening",
    "ADT": "2013-05-29",
    "ADY": 85,
    "AVISIT": "WEEK 12",
    "AVISITN": 5,
    "ABLFL": "",
    "DTYPE": "",
    "ANL01FL": "Y",
    "ANL02FL": "",
    "ANL03FL": "",
    "AGE": 84,
    "AGEGR1": ">80",
    "SEX": "F",
    "MMSETOT": 10,
    "MMSEGRP": "Severe (0-14)",
    "COMPLFL": "Y",
    "SAFFL": "Y",
    "ITTFL": "Y",
    "EFFFL": "Y"
  },
  {
    "STUDYID": "CDISCPILOT01",
    "USUBJID": "01-701-026",
    "TRTP": "Xanomeline Low Dose",
    "TRTPN": 1,
    "PARAMCD": "ACTOT11",
    "PARAM": "ADAS-Cog (11) Total Score",
    "AVAL": 33,
    "BASE": 26,
    "CHG": 7,
    "ACAT1": "Marked Worsening",
    "ADT": "2013-08-21",
    "ADY": 169,
    "AVISIT": "WEEK 24",
    "AVISITN": 7,
    "ABLFL": "",
    "DTYPE": "",
    "ANL01FL": "Y",
    "ANL02FL": "Y",
    "ANL03FL": "Y",
    "AGE": 84,
    "AGEGR1": ">80",
    "SEX": "F",
    "MMSETOT": 10,
    "MMSEGRP": "Severe (0-14)",
    "COMPLFL": "Y",
    "SAFFL": "Y",
    "ITTFL": "Y",
    "EFFFL": "Y"
  },
  {
    "STUDYID": "CDISCPILOT01",
    "USUBJID": "01-701-026",
    "TRTP": "Xanomeline Low Dose",
    "TRTPN": 1,
    "PARAMCD": "CIBIC",
    "PARAM": "CIBIC+ Global Impression of Change",
    "AVAL": 3,
    "ACAT1": "Improved",
    "ADT": "2013-08-21",
    "ADY": 169,
    "AVISIT": "WEEK 24",
    "AVISITN": 7,
    "ABLFL": "",
    "DTYPE": "",
    "ANL01FL": "Y",
    "ANL02FL": "Y",
    "ANL03FL": "Y",
    "AGE": 84,
    "AGEGR1": ">80",
    "SEX": "F",
    "MMSETOT": 10,
    "MMSEGRP": "Severe (0-14)",
    "COMPLFL": "Y",
    "SAFFL": "Y",
    "ITTFL": "Y",
    "EFFFL": "Y"
  },
  {
    "STUDYID": "CDISCPILOT01",
    "USUBJID": "01-701-027",
    "TRTP": "Xanomeline High Dose",
    "TRTPN": 2,
    "PARAMCD": "ACTOT11",
    "PARAM": "ADAS-Cog (11) Total Score",
    "AVAL": 12,
    "BASE": 12,
    "CHG": 0,
    "ACAT1": "No Change",
    "ADT": "2013-11-28",
    "ADY": 1,
    "AVISIT": "BASELINE",
    "AVISITN": 1,
    "ABLFL": "Y",
    "DTYPE": "",
    "ANL01FL": "Y",
    "ANL02FL": "",
    "ANL03FL": "",
    "AGE": 83,
    "AGEGR1": ">80",
    "SEX": "M",
    "MMSETOT": 14,
    "MMSEGRP": "Severe (0-14)",
    "COMPLFL": "N",
    "SAFFL": "Y",
    "ITTFL": "Y",
    "EFFFL": "Y"
  },
  {
    "STUDYID": "CDISCPILOT01",
    "USUBJID": "01-701-027",
    "TRTP": "Xanomeline High Dose",
    "TRTPN": 2,
    "PARAMCD": "ACTOT11",
    "PARAM": "ADAS-Cog (11) Total Score",
    "AVAL": 12,
    "BASE": 12,
    "CHG": 0,
    "ACAT1": "No Change",
    "ADT": "2013-12-26",
    "ADY": 29,
    "AVISIT": "WEEK 4",
    "AVISITN": 3,
    "ABLFL": "",
    "DTYPE": "",
    "ANL01FL": "Y",
    "ANL02FL": "",
    "ANL03FL": "",
    "AGE": 83,
    "AGEGR1": ">80",
    "SEX": "M",
    "MMSETOT": 14,
    "MMSEGRP": "Severe (0-14)",
    "COMPLFL": "N",
    "SAFFL": "Y",
    "ITTFL": "Y",
    "EFFFL": "Y"
  },
  {
    "STUDYID": "CDISCPILOT01",
    "USUBJID": "01-701-027",
    "TRTP": "Xanomeline High Dose",
    "TRTPN": 2,
    "PARAMCD": "ACTOT11",
    "PARAM": "ADAS-Cog (11) Total Score",
    "AVAL": 15,
    "BASE": 12,
    "CHG": 3,
    "ACAT1": "Worsening",
    "ADT": "2014-01-23",
    "ADY": 57,
    "AVISIT": "WEEK 8",
    "AVISITN": 4,
    "ABLFL": "",
    "DTYPE": "",
    "ANL01FL": "Y",
    "ANL02FL": "Y",
    "ANL03FL": "",
    "AGE": 83,
    "AGEGR1": ">80",
    "SEX": "M",
    "MMSETOT": 14,
    "MMSEGRP": "Severe (0-14)",
    "COMPLFL": "N",
    "SAFFL": "Y",
    "ITTFL": "Y",
    "EFFFL": "Y"
  },
  {
    "STUDYID": "CDISCPILOT01",
    "USUBJID": "01-701-027",
    "TRTP": "Xanomeline High Dose",
    "TRTPN": 2,
    "PARAMCD": "CIBIC",
    "PARAM": "CIBIC+ Global Impression of Change",
    "AVAL": 5,
    "ACAT1": "Worsened",
    "ADT": "2014-05-15",
    "ADY": 169,
    "AVISIT": "WEEK 24",
    "AVISITN": 7,
    "ABLFL": "",
    "DTYPE": "",
    "ANL01FL": "Y",
    "ANL02FL": "Y",
    "ANL03FL": "Y",
    "AGE": 83,
    "AGEGR1": ">80",
    "SEX": "M",
    "MMSETOT": 14,
    "MMSEGRP": "Severe (0-14)",
    "COMPLFL": "N",
    "SAFFL": "Y",
    "ITTFL": "Y",
    "EFFFL": "Y"
  },
  {
    "STUDYID": "CDISCPILOT01",
    "USUBJID": "01-701-028",
    "TRTP": "Xanomeline High Dose",
    "TRTPN": 2,
    "PARAMCD": "ACTOT11",
    "PARAM": "ADAS-Cog (11) Total Score",
    "AVAL": 40,
    "BASE": 40,
    "CHG": 0,
    "ACAT1": "No Change",
    "ADT": "2013-07-27",
    "ADY": 1,
    "AVISIT": "BASELINE",
    "AVISITN": 1,
    "ABLFL": "Y",
    "DTYPE": "",
    "ANL01FL": "Y",
    "ANL02FL": "",
    "ANL03FL": "",
    "AGE": 68,
    "AGEGR1": "65-80",
    "SEX": "F",
    "MMSETOT": 24,
    "MMSEGRP": "Mild (20-24)",
    "COMPLFL": "Y",
    "SAFFL": "Y",
    "ITTFL": "Y",
    "EFFFL": "Y"
  },
  {
    "STUDYID": "CDISCPILOT01",
    "USUBJID": "01-701-028",
    "TRTP": "Xanomeline High Dose",
    "TRTPN": 2,
    "PARAMCD": "ACTOT11",
    "PARAM": "ADAS-Cog (11) Total Score",
    "AVAL": 40,
    "BASE": 40,
    "CHG": 0,
    "ACAT1": "No Change",
    "ADT": "2013-08-24",
    "ADY": 29,
    "AVISIT": "WEEK 4",
    "AVISITN": 3,
    "ABLFL": "",
    "DTYPE": "",
    "ANL01FL": "Y",
    "ANL02FL": "",
    "ANL03FL": "",
    "AGE": 68,
    "AGEGR1": "65-80",
    "SEX": "F",
    "MMSETOT": 24,
    "MMSEGRP": "Mild (20-24)",
    "COMPLFL": "Y",
    "SAFFL": "Y",
    "ITTFL": "Y",
    "EFFFL": "Y"
  },
  {
    "STUDYID": "CDISCPILOT01",
    "USUBJID": "01-701-028",
    "TRTP": "Xanomeline High Dose",
    "TRTPN": 2,
    "PARAMCD": "ACTOT11",
    "PARAM": "ADAS-Cog (11) Total Score",
    "AVAL": 38,
    "BASE": 40,
    "CHG": -2,
    "ACAT1": "Improvement",
    "ADT": "2013-09-21",
    "ADY": 57,
    "AVISIT": "WEEK 8",
    "AVISITN": 4,
    "ABLFL": "",
    "DTYPE": "",
    "ANL01FL": "Y",
    "ANL02FL": "",
    "ANL03FL": "",
    "AGE": 68,
    "AGEGR1": "65-80",
    "SEX": "F",
    "MMSETOT": 24,
    "MMSEGRP": "Mild (20-24)",
    "COMPLFL": "Y",
    "SAFFL": "Y",
    "ITTFL": "Y",
    "EFFFL": "Y"
  },
  {
    "STUDYID": "CDISCPILOT01",
    "USUBJID": "01-701-028",
    "TRTP": "Xanomeline High Dose",
    "TRTPN": 2,
    "PARAMCD": "ACTOT11",
    "PARAM": "ADAS-Cog (11) Total Score",
    "AVAL": 39,
    "BASE": 40,
    "CHG": -1,
    "ACAT1": "Improvement",
    "ADT": "2013-10-19",
    "ADY": 85,
    "AVISIT": "WEEK 12",
    "AVISITN": 5,
    "ABLFL": "",
    "DTYPE": "",
    "ANL01FL": "Y",
    "ANL02FL": "",
    "ANL03FL": "",
    "AGE": 68,
    "AGEGR1": "65-80",
    "SEX": "F",
    "MMSETOT": 24,
    "MMSEGRP": "Mild (20-24)",
    "COMPLFL": "Y",
    "SAFFL": "Y",
    "ITTFL": "Y",
    "EFFFL": "Y"
  },
  {
    "STUDYID": "CDISCPILOT01",
    "USUBJID": "01-701-028",
    "TRTP": "Xanomeline High Dose",
    "TRTPN": 2,
    "PARAMCD": "ACTOT11",
    "PARAM": "ADAS-Cog (11) Total Score",
    "AVAL": 45,
    "BASE": 40,
    "CHG": 5,
    "ACAT1": "Marked Worsening",
    "ADT": "2014-01-11",
    "ADY": 169,
    "AVISIT": "WEEK 24",
    "AVISITN": 7,
    "ABLFL": "",
    "DTYPE": "",
    "ANL01FL": "Y",
    "ANL02FL": "Y",
    "ANL03FL": "Y",
    "AGE": 68,
    "AGEGR1": "65-80",
    "SEX": "F",
    "MMSETOT": 24,
    "MMSEGRP": "Mild (20-24)",
    "COMPLFL": "Y",
    "SAFFL": "Y",
    "ITTFL": "Y",
    "EFFFL": "Y"
  },
  {
    "STUDYID": "CDISCPILOT01",
    "USUBJID": "01-701-028",
    "TRTP": "Xanomeline High Dose",
    "TRTPN": 2,
    "PARAMCD": "CIBIC",
    "PARAM": "CIBIC+ Global Impression of Change",
    "AVAL": 5,
    "ACAT1": "Worsened",
    "ADT": "2014-01-11",
    "ADY": 169,
    "AVISIT": "WEEK 24",
    "AVISITN": 7,
    "ABLFL": "",
    "DTYPE": "",
    "ANL01FL": "Y",
    "ANL02FL": "Y",
    "ANL03FL": "Y",
    "AGE": 68,
    "AGEGR1": "65-80",
    "SEX": "F",
    "MMSETOT": 24,
    "MMSEGRP": "Mild (20-24)",
    "COMPLFL": "Y",
    "SAFFL": "Y",
    "ITTFL": "Y",
    "EFFFL": "Y"
  },
  {
    "STUDYID": "CDISCPILOT01",
    "USUBJID": "01-701-029",
    "TRTP": "Xanomeline High Dose",
    "TRTPN": 2,
    "PARAMCD": "ACTOT11",
    "PARAM": "ADAS-Cog (11) Total Score",
    "AVAL": 16,
    "BASE": 16,
    "CHG": 0,
    "ACAT1": "No Change",
    "ADT": "2013-10-29",
    "ADY": 1,
    "AVISIT": "BASELINE",
    "AVISITN": 1,
    "ABLFL": "Y",
    "DTYPE": "",
    "ANL01FL": "Y",
    "ANL02FL": "",
    "ANL03FL": "",
    "AGE": 74,
    "AGEGR1": "65-80",
    "SEX": "F",
    "MMSETOT": 19,
    "MMSEGRP": "Moderate (15-19)",
    "COMPLFL": "N",
    "SAFFL": "Y",
    "ITTFL": "Y",
    "EFFFL": "Y"
  },
  {
    "STUDYID": "CDISCPILOT01",
    "USUBJID": "01-701-029",
    "TRTP": "Xanomeline High Dose",
    "TRTPN": 2,
    "PARAMCD": "ACTOT11",
    "PARAM": "ADAS-Cog (11) Total Score",
    "AVAL": 16,
    "BASE": 16,
    "CHG": 0,
    "ACAT1": "No Change",
    "ADT": "2013-11-26",
    "ADY": 29,
    "AVISIT": "WEEK 4",
    "AVISITN": 3,
    "ABLFL": "",
    "DTYPE": "",
    "ANL01FL": "Y",
    "ANL02FL": "Y",
    "ANL03FL": "",
    "AGE": 74,
    "AGEGR1": "65-80",
    "SEX": "F",
    "MMSETOT": 19,
    "MMSEGRP": "Moderate (15-19)",
    "COMPLFL": "N",
    "SAFFL": "Y",
    "ITTFL": "Y",
    "EFFFL": "Y"
  },
  {
    "STUDYID": "CDISCPILOT01",
    "USUBJID": "01-701-029",
    "TRTP": "Xanomeline High Dose",
    "TRTPN": 2,
    "PARAMCD": "CIBIC",
    "PARAM": "CIBIC+ Global Impression of Change",
    "AVAL": 5,
    "ACAT1": "Worsened",
    "ADT": "2014-04-15",
    "ADY": 169,
    "AVISIT": "WEEK 24",
    "AVISITN": 7,
    "ABLFL": "",
    "DTYPE": "",
    "ANL01FL": "Y",
    "ANL02FL": "Y",
    "ANL03FL": "Y",
    "AGE": 74,
    "AGEGR1": "65-80",
    "SEX": "F",
    "MMSETOT": 19,
    "MMSEGRP": "Moderate (15-19)",
    "COMPLFL": "N",
    "SAFFL": "Y",
    "ITTFL": "Y",
    "EFFFL": "Y"
  },
  {
    "STUDYID": "CDISCPILOT01",
    "USUBJID": "01-701-030",
    "TRTP": "Xanomeline Low Dose",
    "TRTPN": 1,
    "PARAMCD": "ACTOT11",
    "PARAM": "ADAS-Cog (11) Total Score",
    "AVAL": 9,
    "BASE": 9,
    "CHG": 0,
    "ACAT1": "No Change",
    "ADT": "2013-06-30",
    "ADY": 1,
    "AVISIT": "BASELINE",
    "AVISITN": 1,
    "ABLFL": "Y",
    "DTYPE": "",
    "ANL01FL": "Y",
    "ANL02FL": "",
    "ANL03FL": "",
    "AGE": 72,
    "AGEGR1": "65-80",
    "SEX": "F",
    "MMSETOT": 14,
    "MMSEGRP": "Severe (0-14)",
    "COMPLFL": "Y",
    "SAFFL": "Y",
    "ITTFL": "Y",
    "EFFFL": "Y"
  },
  {
    "STUDYID": "CDISCPILOT01",
    "USUBJID": "01-701-030",
    "TRTP": "Xanomeline Low Dose",
    "TRTPN": 1,
    "PARAMCD": "ACTOT11",
    "PARAM": "ADAS-Cog (11) Total Score",
    "AVAL": 9,
    "BASE": 9,
    "CHG": 0,
    "ACAT1": "No Change",
    "ADT": "2013-07-28",
    "ADY": 29,
    "AVISIT": "WEEK 4",
    "AVISITN": 3,
    "ABLFL": "",
    "DTYPE": "",
    "ANL01FL": "Y",
    "ANL02FL": "",
    "ANL03FL": "",
    "AGE": 72,
    "AGEGR1": "65-80",
    "SEX": "F",
    "MMSETOT": 14,
    "MMSEGRP": "Severe (0-14)",
    "COMPLFL": "Y",
    "SAFFL": "Y",
    "ITTFL": "Y",
    "EFFFL": "Y"
  },
  {
    "STUDYID": "CDISCPILOT01",
    "USUBJID": "01-701-030",
    "TRTP": "Xanomeline Low Dose",
    "TRTPN": 1,
    "PARAMCD": "ACTOT11",
    "PARAM": "ADAS-Cog (11) Total Score",
    "AVAL": 7,
    "BASE": 9,
    "CHG": -2,
    "ACAT1": "Improvement",
    "ADT": "2013-08-25",
    "ADY": 57,
    "AVISIT": "WEEK 8",
    "AVISITN": 4,
    "ABLFL": "",
    "DTYPE": "",
    "ANL01FL": "Y",
    "ANL02FL": "",
    "ANL03FL": "",
    "AGE": 72,
    "AGEGR1": "65-80",
    "SEX": "F",
    "MMSETOT": 14,
    "MMSEGRP": "Severe (0-14)",
    "COMPLFL": "Y",
    "SAFFL": "Y",
    "ITTFL": "Y",
    "EFFFL": "Y"
  },
  {
    "STUDYID": "CDISCPILOT01",
    "USUBJID": "01-701-030",
    "TRTP": "Xanomeline Low Dose",
    "TRTPN": 1,
    "PARAMCD": "ACTOT11",
    "PARAM": "ADAS-Cog (11) Total Score",
    "AVAL": 6,
    "BASE": 9,
    "CHG": -3,
    "ACAT1": "Improvement",
    "ADT": "2013-09-22",
    "ADY": 85,
    "AVISIT": "WEEK 12",
    "AVISITN": 5,
    "ABLFL": "",
    "DTYPE": "",
    "ANL01FL": "Y",
    "ANL02FL": "",
    "ANL03FL": "",
    "AGE": 72,
    "AGEGR1": "65-80",
    "SEX": "F",
    "MMSETOT": 14,
    "MMSEGRP": "Severe (0-14)",
    "COMPLFL": "Y",
    "SAFFL": "Y",
    "ITTFL": "Y",
    "EFFFL": "Y"
  },
  {
    "STUDYID": "CDISCPILOT01",
    "USUBJID": "01-701-030",
    "TRTP": "Xanomeline Low Dose",
    "TRTPN": 1,
    "PARAMCD": "ACTOT11",
    "PARAM": "ADAS-Cog (11) Total Score",
    "AVAL": 12,
    "BASE": 9,
    "CHG": 3,
    "ACAT1": "Worsening",
    "ADT": "2013-12-15",
    "ADY": 169,
    "AVISIT": "WEEK 24",
    "AVISITN": 7,
    "ABLFL": "",
    "DTYPE": "",
    "ANL01FL": "Y",
    "ANL02FL": "Y",
    "ANL03FL": "Y",
    "AGE": 72,
    "AGEGR1": "65-80",
    "SEX": "F",
    "MMSETOT": 14,
    "MMSEGRP": "Severe (0-14)",
    "COMPLFL": "Y",
    "SAFFL": "Y",
    "ITTFL": "Y",
    "EFFFL": "Y"
  },
  {
    "STUDYID": "CDISCPILOT01",
    "USUBJID": "01-701-030",
    "TRTP": "Xanomeline Low Dose",
    "TRTPN": 1,
    "PARAMCD": "CIBIC",
    "PARAM": "CIBIC+ Global Impression of Change",
    "AVAL": 4,
    "ACAT1": "No Change",
    "ADT": "2013-12-15",
    "ADY": 169,
    "AVISIT": "WEEK 24",
    "AVISITN": 7,
    "ABLFL": "",
    "DTYPE": "",
    "ANL01FL": "Y",
    "ANL02FL": "Y",
    "ANL03FL": "Y",
    "AGE": 72,
    "AGEGR1": "65-80",
    "SEX": "F",
    "MMSETOT": 14,
    "MMSEGRP": "Severe (0-14)",
    "COMPLFL": "Y",
    "SAFFL": "Y",
    "ITTFL": "Y",
    "EFFFL": "Y"
  },
  {
    "STUDYID": "CDISCPILOT01",
    "USUBJID": "01-701-031",
    "TRTP": "Xanomeline High Dose",
    "TRTPN": 2,
    "PARAMCD": "ACTOT11",
    "PARAM": "ADAS-Cog (11) Total Score",
    "AVAL": 23,
    "BASE": 23,
    "CHG": 0,
    "ACAT1": "No Change",
    "ADT": "2013-09-16",
    "ADY": 1,
    "AVISIT": "BASELINE",
    "AVISITN": 1,
    "ABLFL": "Y",
    "DTYPE": "",
    "ANL01FL": "Y",
    "ANL02FL": "Y",
    "ANL03FL": "",
    "AGE": 79,
    "AGEGR1": "65-80",
    "SEX": "F",
    "MMSETOT": 23,
    "MMSEGRP": "Mild (20-24)",
    "COMPLFL": "N",
    "SAFFL": "Y",
    "ITTFL": "Y",
    "EFFFL": "Y"
  },
  {
    "STUDYID": "CDISCPILOT01",
    "USUBJID": "01-701-031",
    "TRTP": "Xanomeline High Dose",
    "TRTPN": 2,
    "PARAMCD": "CIBIC",
    "PARAM": "CIBIC+ Global Impression of Change",
    "AVAL": 5,
    "ACAT1": "Worsened",
    "ADT": "2014-03-03",
    "ADY": 169,
    "AVISIT": "WEEK 24",
    "AVISITN": 7,
    "ABLFL": "",
    "DTYPE": "",
    "ANL01FL": "Y",
    "ANL02FL": "Y",
    "ANL03FL": "Y",
    "AGE": 79,
    "AGEGR1": "65-80",
    "SEX": "F",
    "MMSETOT": 23,
    "MMSEGRP": "Mild (20-24)",
    "COMPLFL": "N",
    "SAFFL": "Y",
    "ITTFL": "Y",
    "EFFFL": "Y"
  },
  {
    "STUDYID": "CDISCPILOT01",
    "USUBJID": "01-701-032",
    "TRTP": "Xanomeline High Dose",
    "TRTPN": 2,
    "PARAMCD": "ACTOT11",
    "PARAM": "ADAS-Cog (11) Total Score",
    "AVAL": 13,
    "BASE": 13,
    "CHG": 0,
    "ACAT1": "No Change",
    "ADT": "2013-03-15",
    "ADY": 1,
    "AVISIT": "BASELINE",
    "AVISITN": 1,
    "ABLFL": "Y",
    "DTYPE": "",
    "ANL01FL": "Y",
    "ANL02FL": "Y",
    "ANL03FL": "",
    "AGE": 74,
    "AGEGR1": "65-80",
    "SEX": "M",
    "MMSETOT": 19,
    "MMSEGRP": "Moderate (15-19)",
    "COMPLFL": "N",
    "SAFFL": "Y",
    "ITTFL": "Y",
    "EFFFL": "Y"
  },
  {
    "STUDYID": "CDISCPILOT01",
    "USUBJID": "01-701-032",
    "TRTP": "Xanomeline High Dose",
    "TRTPN": 2,
    "PARAMCD": "CIBIC",
    "PARAM": "CIBIC+ Global Impression of Change",
    "AVAL": 4,
    "ACAT1": "No Change",
    "ADT": "2013-08-30",
    "ADY": 169,
    "AVISIT": "WEEK 24",
    "AVISITN": 7,
    "ABLFL": "",
    "DTYPE": "",
    "ANL01FL": "Y",
    "ANL02FL": "Y",
    "ANL03FL": "Y",
    "AGE": 74,
    "AGEGR1": "65-80",
    "SEX": "M",
    "MMSETOT": 19,
    "MMSEGRP": "Moderate (15-19)",
    "COMPLFL": "N",
    "SAFFL": "Y",
    "ITTFL": "Y",
    "EFFFL": "Y"
  },
  {
    "STUDYID": "CDISCPILOT01",
    "USUBJID": "01-701-033",
    "TRTP": "Xanomeline Low Dose",
    "TRTPN": 1,
    "PARAMCD": "ACTOT11",
    "PARAM": "ADAS-Cog (11) Total Score",
    "AVAL": 27,
    "BASE": 27,
    "CHG": 0,
    "ACAT1": "No Change",
    "ADT": "2013-11-06",
    "ADY": 1,
    "AVISIT": "BASELINE",
    "AVISITN": 1,
    "ABLFL": "Y",
    "DTYPE": "",
    "ANL01FL": "Y",
    "ANL02FL": "",
    "ANL03FL": "",
    "AGE": 60,
    "AGEGR1": "<65",
    "SEX": "F",
    "MMSETOT": 10,
    "MMSEGRP": "Severe (0-14)",
    "COMPLFL": "Y",
    "SAFFL": "Y",
    "ITTFL": "Y",
    "EFFFL": "Y"
  },
  {
    "STUDYID": "CDISCPILOT01",
    "USUBJID": "01-701-033",
    "TRTP": "Xanomeline Low Dose",
    "TRTPN": 1,
    "PARAMCD": "ACTOT11",
    "PARAM": "ADAS-Cog (11) Total Score",
    "AVAL": 25,
    "BASE": 27,
    "CHG": -2,
    "ACAT1": "Improvement",
    "ADT": "2013-12-04",
    "ADY": 29,
    "AVISIT": "WEEK 4",
    "AVISITN": 3,
    "ABLFL": "",
    "DTYPE": "",
    "ANL01FL": "Y",
    "ANL02FL": "",
    "ANL03FL": "",
    "AGE": 60,
    "AGEGR1": "<65",
    "SEX": "F",
    "MMSETOT": 10,
    "MMSEGRP": "Severe (0-14)",
    "COMPLFL": "Y",
    "SAFFL": "Y",
    "ITTFL": "Y",
    "EFFFL": "Y"
  },
  {
    "STUDYID": "CDISCPILOT01",
    "USUBJID": "01-701-033",
    "TRTP": "Xanomeline Low Dose",
    "TRTPN": 1,
    "PARAMCD": "ACTOT11",
    "PARAM": "ADAS-Cog (11) Total Score",
    "AVAL": 28,
    "BASE": 27,
    "CHG": 1,
    "ACAT1": "Worsening",
    "ADT": "2014-01-01",
    "ADY": 57,
    "AVISIT": "WEEK 8",
    "AVISITN": 4,
    "ABLFL": "",
    "DTYPE": "",
    "ANL01FL": "Y",
    "ANL02FL": "",
    "ANL03FL": "",
    "AGE": 60,
    "AGEGR1": "<65",
    "SEX": "F",
    "MMSETOT": 10,
    "MMSEGRP": "Severe (0-14)",
    "COMPLFL": "Y",
    "SAFFL": "Y",
    "ITTFL": "Y",
    "EFFFL": "Y"
  },
  {
    "STUDYID": "CDISCPILOT01",
    "USUBJID": "01-701-033",
    "TRTP": "Xanomeline Low Dose",
    "TRTPN": 1,
    "PARAMCD": "ACTOT11",
    "PARAM": "ADAS-Cog (11) Total Score",
    "AVAL": 26,
    "BASE": 27,
    "CHG": -1,
    "ACAT1": "Improvement",
    "ADT": "2014-01-29",
    "ADY": 85,
    "AVISIT": "WEEK 12",
    "AVISITN": 5,
    "ABLFL": "",
    "DTYPE": "",
    "ANL01FL": "Y",
    "ANL02FL": "",
    "ANL03FL": "",
    "AGE": 60,
    "AGEGR1": "<65",
    "SEX": "F",
    "MMSETOT": 10,
    "MMSEGRP": "Severe (0-14)",
    "COMPLFL": "Y",
    "SAFFL": "Y",
    "ITTFL": "Y",
    "EFFFL": "Y"
  },
  {
    "STUDYID": "CDISCPILOT01",
    "USUBJID": "01-701-033",
    "TRTP": "Xanomeline Low Dose",
    "TRTPN": 1,
    "PARAMCD": "ACTOT11",
    "PARAM": "ADAS-Cog (11) Total Score",
    "AVAL": 38,
    "BASE": 27,
    "CHG": 11,
    "ACAT1": "Marked Worsening",
    "ADT": "2014-04-23",
    "ADY": 169,
    "AVISIT": "WEEK 24",
    "AVISITN": 7,
    "ABLFL": "",
    "DTYPE": "",
    "ANL01FL": "Y",
    "ANL02FL": "Y",
    "ANL03FL": "Y",
    "AGE": 60,
    "AGEGR1": "<65",
    "SEX": "F",
    "MMSETOT": 10,
    "MMSEGRP": "Severe (0-14)",
    "COMPLFL": "Y",
    "SAFFL": "Y",
    "ITTFL": "Y",
    "EFFFL": "Y"
  },
  {
    "STUDYID": "CDISCPILOT01",
    "USUBJID": "01-701-033",
    "TRTP": "Xanomeline Low Dose",
    "TRTPN": 1,
    "PARAMCD": "CIBIC",
    "PARAM": "CIBIC+ Global Impression of Change",
    "AVAL": 3,
    "ACAT1": "Improved",
    "ADT": "2014-04-23",
    "ADY": 169,
    "AVISIT": "WEEK 24",
    "AVISITN": 7,
    "ABLFL": "",
    "DTYPE": "",
    "ANL01FL": "Y",
    "ANL02FL": "Y",
    "ANL03FL": "Y",
    "AGE": 60,
    "AGEGR1": "<65",
    "SEX": "F",
    "MMSETOT": 10,
    "MMSEGRP": "Severe (0-14)",
    "COMPLFL": "Y",
    "SAFFL": "Y",
    "ITTFL": "Y",
    "EFFFL": "Y"
  },
  {
    "STUDYID": "CDISCPILOT01",
    "USUBJID": "01-701-034",
    "TRTP": "Xanomeline Low Dose",
    "TRTPN": 1,
    "PARAMCD": "ACTOT11",
    "PARAM": "ADAS-Cog (11) Total Score",
    "AVAL": 29,
    "BASE": 29,
    "CHG": 0,
    "ACAT1": "No Change",
    "ADT": "2013-08-15",
    "ADY": 1,
    "AVISIT": "BASELINE",
    "AVISITN": 1,
    "ABLFL": "Y",
    "DTYPE": "",
    "ANL01FL": "Y",
    "ANL02FL": "",
    "ANL03FL": "",
    "AGE": 83,
    "AGEGR1": ">80",
    "SEX": "F",
    "MMSETOT": 15,
    "MMSEGRP": "Moderate (15-19)",
    "COMPLFL": "Y",
    "SAFFL": "Y",
    "ITTFL": "Y",
    "EFFFL": "Y"
  },
  {
    "STUDYID": "CDISCPILOT01",
    "USUBJID": "01-701-034",
    "TRTP": "Xanomeline Low Dose",
    "TRTPN": 1,
    "PARAMCD": "ACTOT11",
    "PARAM": "ADAS-Cog (11) Total Score",
    "AVAL": 27,
    "BASE": 29,
    "CHG": -2,
    "ACAT1": "Improvement",
    "ADT": "2013-09-12",
    "ADY": 29,
    "AVISIT": "WEEK 4",
    "AVISITN": 3,
    "ABLFL": "",
    "DTYPE": "",
    "ANL01FL": "Y",
    "ANL02FL": "",
    "ANL03FL": "",
    "AGE": 83,
    "AGEGR1": ">80",
    "SEX": "F",
    "MMSETOT": 15,
    "MMSEGRP": "Moderate (15-19)",
    "COMPLFL": "Y",
    "SAFFL": "Y",
    "ITTFL": "Y",
    "EFFFL": "Y"
  },
  {
    "STUDYID": "CDISCPILOT01",
    "USUBJID": "01-701-034",
    "TRTP": "Xanomeline Low Dose",
    "TRTPN": 1,
    "PARAMCD": "ACTOT11",
    "PARAM": "ADAS-Cog (11) Total Score",
    "AVAL": 30,
    "BASE": 29,
    "CHG": 1,
    "ACAT1": "Worsening",
    "ADT": "2013-10-10",
    "ADY": 57,
    "AVISIT": "WEEK 8",
    "AVISITN": 4,
    "ABLFL": "",
    "DTYPE": "",
    "ANL01FL": "Y",
    "ANL02FL": "",
    "ANL03FL": "",
    "AGE": 83,
    "AGEGR1": ">80",
    "SEX": "F",
    "MMSETOT": 15,
    "MMSEGRP": "Moderate (15-19)",
    "COMPLFL": "Y",
    "SAFFL": "Y",
    "ITTFL": "Y",
    "EFFFL": "Y"
  },
  {
    "STUDYID": "CDISCPILOT01",
    "USUBJID": "01-701-034",
    "TRTP": "Xanomeline Low Dose",
    "TRTPN": 1,
    "PARAMCD": "ACTOT11",
    "PARAM": "ADAS-Cog (11) Total Score",
    "AVAL": 27,
    "BASE": 29,
    "CHG": -2,
    "ACAT1": "Improvement",
    "ADT": "2013-11-07",
    "ADY": 85,
    "AVISIT": "WEEK 12",
    "AVISITN": 5,
    "ABLFL": "",
    "DTYPE": "",
    "ANL01FL": "Y",
    "ANL02FL": "",
    "ANL03FL": "",
    "AGE": 83,
    "AGEGR1": ">80",
    "SEX": "F",
    "MMSETOT": 15,
    "MMSEGRP": "Moderate (15-19)",
    "COMPLFL": "Y",
    "SAFFL": "Y",
    "ITTFL": "Y",
    "EFFFL": "Y"
  },
  {
    "STUDYID": "CDISCPILOT01",
    "USUBJID": "01-701-034",
    "TRTP": "Xanomeline Low Dose",
    "TRTPN": 1,
    "PARAMCD": "ACTOT11",
    "PARAM": "ADAS-Cog (11) Total Score",
    "AVAL": 27,
    "BASE": 29,
    "CHG": -2,
    "ACAT1": "Improvement",
    "ADT": "2014-01-30",
    "ADY": 169,
    "AVISIT": "WEEK 24",
    "AVISITN": 7,
    "ABLFL": "",
    "DTYPE": "",
    "ANL01FL": "Y",
    "ANL02FL": "Y",
    "ANL03FL": "Y",
    "AGE": 83,
    "AGEGR1": ">80",
    "SEX": "F",
    "MMSETOT": 15,
    "MMSEGRP": "Moderate (15-19)",
    "COMPLFL": "Y",
    "SAFFL": "Y",
    "ITTFL": "Y",
    "EFFFL": "Y"
  },
  {
    "STUDYID": "CDISCPILOT01",
    "USUBJID": "01-701-034",
    "TRTP": "Xanomeline Low Dose",
    "TRTPN": 1,
    "PARAMCD": "CIBIC",
    "PARAM": "CIBIC+ Global Impression of Change",
    "AVAL": 3,
    "ACAT1": "Improved",
    "ADT": "2014-01-30",
    "ADY": 169,
    "AVISIT": "WEEK 24",
    "AVISITN": 7,
    "ABLFL": "",
    "DTYPE": "",
    "ANL01FL": "Y",
    "ANL02FL": "Y",
    "ANL03FL": "Y",
    "AGE": 83,
    "AGEGR1": ">80",
    "SEX": "F",
    "MMSETOT": 15,
    "MMSEGRP": "Moderate (15-19)",
    "COMPLFL": "Y",
    "SAFFL": "Y",
    "ITTFL": "Y",
    "EFFFL": "Y"
  },
  {
    "STUDYID": "CDISCPILOT01",
    "USUBJID": "01-701-035",
    "TRTP": "Xanomeline High Dose",
    "TRTPN": 2,
    "PARAMCD": "ACTOT11",
    "PARAM": "ADAS-Cog (11) Total Score",
    "AVAL": 3,
    "BASE": 3,
    "CHG": 0,
    "ACAT1": "No Change",
    "ADT": "2013-04-25",
    "ADY": 1,
    "AVISIT": "BASELINE",
    "AVISITN": 1,
    "ABLFL": "Y",
    "DTYPE": "",
    "ANL01FL": "Y",
    "ANL02FL": "",
    "ANL03FL": "",
    "AGE": 79,
    "AGEGR1": "65-80",
    "SEX": "F",
    "MMSETOT": 12,
    "MMSEGRP": "Severe (0-14)",
    "COMPLFL": "Y",
    "SAFFL": "Y",
    "ITTFL": "Y",
    "EFFFL": "Y"
  },
  {
    "STUDYID": "CDISCPILOT01",
    "USUBJID": "01-701-035",
    "TRTP": "Xanomeline High Dose",
    "TRTPN": 2,
    "PARAMCD": "ACTOT11",
    "PARAM": "ADAS-Cog (11) Total Score",
    "AVAL": 3,
    "BASE": 3,
    "CHG": 0,
    "ACAT1": "No Change",
    "ADT": "2013-05-23",
    "ADY": 29,
    "AVISIT": "WEEK 4",
    "AVISITN": 3,
    "ABLFL": "",
    "DTYPE": "",
    "ANL01FL": "Y",
    "ANL02FL": "",
    "ANL03FL": "",
    "AGE": 79,
    "AGEGR1": "65-80",
    "SEX": "F",
    "MMSETOT": 12,
    "MMSEGRP": "Severe (0-14)",
    "COMPLFL": "Y",
    "SAFFL": "Y",
    "ITTFL": "Y",
    "EFFFL": "Y"
  },
  {
    "STUDYID": "CDISCPILOT01",
    "USUBJID": "01-701-035",
    "TRTP": "Xanomeline High Dose",
    "TRTPN": 2,
    "PARAMCD": "ACTOT11",
    "PARAM": "ADAS-Cog (11) Total Score",
    "AVAL": 4,
    "BASE": 3,
    "CHG": 1,
    "ACAT1": "Worsening",
    "ADT": "2013-06-20",
    "ADY": 57,
    "AVISIT": "WEEK 8",
    "AVISITN": 4,
    "ABLFL": "",
    "DTYPE": "",
    "ANL01FL": "Y",
    "ANL02FL": "",
    "ANL03FL": "",
    "AGE": 79,
    "AGEGR1": "65-80",
    "SEX": "F",
    "MMSETOT": 12,
    "MMSEGRP": "Severe (0-14)",
    "COMPLFL": "Y",
    "SAFFL": "Y",
    "ITTFL": "Y",
    "EFFFL": "Y"
  },
  {
    "STUDYID": "CDISCPILOT01",
    "USUBJID": "01-701-035",
    "TRTP": "Xanomeline High Dose",
    "TRTPN": 2,
    "PARAMCD": "ACTOT11",
    "PARAM": "ADAS-Cog (11) Total Score",
    "AVAL": 7,
    "BASE": 3,
    "CHG": 4,
    "ACAT1": "Marked Worsening",
    "ADT": "2013-07-18",
    "ADY": 85,
    "AVISIT": "WEEK 12",
    "AVISITN": 5,
    "ABLFL": "",
    "DTYPE": "",
    "ANL01FL": "Y",
    "ANL02FL": "",
    "ANL03FL": "",
    "AGE": 79,
    "AGEGR1": "65-80",
    "SEX": "F",
    "MMSETOT": 12,
    "MMSEGRP": "Severe (0-14)",
    "COMPLFL": "Y",
    "SAFFL": "Y",
    "ITTFL": "Y",
    "EFFFL": "Y"
  },
  {
    "STUDYID": "CDISCPILOT01",
    "USUBJID": "01-701-035",
    "TRTP": "Xanomeline High Dose",
    "TRTPN": 2,
    "PARAMCD": "ACTOT11",
    "PARAM": "ADAS-Cog (11) Total Score",
    "AVAL": 9,
    "BASE": 3,
    "CHG": 6,
    "ACAT1": "Marked Worsening",
    "ADT": "2013-10-10",
    "ADY": 169,
    "AVISIT": "WEEK 24",
    "AVISITN": 7,
    "ABLFL": "",
    "DTYPE": "",
    "ANL01FL": "Y",
    "ANL02FL": "Y",
    "ANL03FL": "Y",
    "AGE": 79,
    "AGEGR1": "65-80",
    "SEX": "F",
    "MMSETOT": 12,
    "MMSEGRP": "Severe (0-14)",
    "COMPLFL": "Y",
    "SAFFL": "Y",
    "ITTFL": "Y",
    "EFFFL": "Y"
  },
  {
    "STUDYID": "CDISCPILOT01",
    "USUBJID": "01-701-035",
    "TRTP": "Xanomeline High Dose",
    "TRTPN": 2,
    "PARAMCD": "CIBIC",
    "PARAM": "CIBIC+ Global Impression of Change",
    "AVAL": 3,
    "ACAT1": "Improved",
    "ADT": "2013-10-10",
    "ADY": 169,
    "AVISIT": "WEEK 24",
    "AVISITN": 7,
    "ABLFL": "",
    "DTYPE": "",
    "ANL01FL": "Y",
    "ANL02FL": "Y",
    "ANL03FL": "Y",
    "AGE": 79,
    "AGEGR1": "65-80",
    "SEX": "F",
    "MMSETOT": 12,
    "MMSEGRP": "Severe (0-14)",
    "COMPLFL": "Y",
    "SAFFL": "Y",
    "ITTFL": "Y",
    "EFFFL": "Y"
  },
  {
    "STUDYID": "CDISCPILOT01",
    "USUBJID": "01-701-036",
    "TRTP": "Xanomeline Low Dose",
    "TRTPN": 1,
    "PARAMCD": "ACTOT11",
    "PARAM": "ADAS-Cog (11) Total Score",
    "AVAL": 29,
    "BASE": 29,
    "CHG": 0,
    "ACAT1": "No Change",
    "ADT": "2013-08-16",
    "ADY": 1,
    "AVISIT": "BASELINE",
    "AVISITN": 1,
    "ABLFL": "Y",
    "DTYPE": "",
    "ANL01FL": "Y",
    "ANL02FL": "",
    "ANL03FL": "",
    "AGE": 76,
    "AGEGR1": "65-80",
    "SEX": "F",
    "MMSETOT": 21,
    "MMSEGRP": "Mild (20-24)",
    "COMPLFL": "N",
    "SAFFL": "Y",
    "ITTFL": "Y",
    "EFFFL": "Y"
  },
  {
    "STUDYID": "CDISCPILOT01",
    "USUBJID": "01-701-036",
    "TRTP": "Xanomeline Low Dose",
    "TRTPN": 1,
    "PARAMCD": "ACTOT11",
    "PARAM": "ADAS-Cog (11) Total Score",
    "AVAL": 30,
    "BASE": 29,
    "CHG": 1,
    "ACAT1": "Worsening",
    "ADT": "2013-09-13",
    "ADY": 29,
    "AVISIT": "WEEK 4",
    "AVISITN": 3,
    "ABLFL": "",
    "DTYPE": "",
    "ANL01FL": "Y",
    "ANL02FL": "Y",
    "ANL03FL": "",
    "AGE": 76,
    "AGEGR1": "65-80",
    "SEX": "F",
    "MMSETOT": 21,
    "MMSEGRP": "Mild (20-24)",
    "COMPLFL": "N",
    "SAFFL": "Y",
    "ITTFL": "Y",
    "EFFFL": "Y"
  },
  {
    "STUDYID": "CDISCPILOT01",
    "USUBJID": "01-701-036",
    "TRTP": "Xanomeline Low Dose",
    "TRTPN": 1,
    "PARAMCD": "CIBIC",
    "PARAM": "CIBIC+ Global Impression of Change",
    "AVAL": 4,
    "ACAT1": "No Change",
    "ADT": "2014-01-31",
    "ADY": 169,
    "AVISIT": "WEEK 24",
    "AVISITN": 7,
    "ABLFL": "",
    "DTYPE": "",
    "ANL01FL": "Y",
    "ANL02FL": "Y",
    "ANL03FL": "Y",
    "AGE": 76,
    "AGEGR1": "65-80",
    "SEX": "F",
    "MMSETOT": 21,
    "MMSEGRP": "Mild (20-24)",
    "COMPLFL": "N",
    "SAFFL": "Y",
    "ITTFL": "Y",
    "EFFFL": "Y"
  },
  {
    "STUDYID": "CDISCPILOT01",
    "USUBJID": "01-701-037",
    "TRTP": "Xanomeline Low Dose",
    "TRTPN": 1,
    "PARAMCD": "ACTOT11",
    "PARAM": "ADAS-Cog (11) Total Score",
    "AVAL": 27,
    "BASE": 27,
    "CHG": 0,
    "ACAT1": "No Change",
    "ADT": "2013-01-05",
    "ADY": 1,
    "AVISIT": "BASELINE",
    "AVISITN": 1,
    "ABLFL": "Y",
    "DTYPE": "",
    "ANL01FL": "Y",
    "ANL02FL": "",
    "ANL03FL": "",
    "AGE": 70,
    "AGEGR1": "65-80",
    "SEX": "M",
    "MMSETOT": 24,
    "MMSEGRP": "Mild (20-24)",
    "COMPLFL": "Y",
    "SAFFL": "Y",
    "ITTFL": "Y",
    "EFFFL": "Y"
  },
  {
    "STUDYID": "CDISCPILOT01",
    "USUBJID": "01-701-037",
    "TRTP": "Xanomeline Low Dose",
    "TRTPN": 1,
    "PARAMCD": "ACTOT11",
    "PARAM": "ADAS-Cog (11) Total Score",
    "AVAL": 27,
    "BASE": 27,
    "CHG": 0,
    "ACAT1": "No Change",
    "ADT": "2013-02-02",
    "ADY": 29,
    "AVISIT": "WEEK 4",
    "AVISITN": 3,
    "ABLFL": "",
    "DTYPE": "",
    "ANL01FL": "Y",
    "ANL02FL": "",
    "ANL03FL": "",
    "AGE": 70,
    "AGEGR1": "65-80",
    "SEX": "M",
    "MMSETOT": 24,
    "MMSEGRP": "Mild (20-24)",
    "COMPLFL": "Y",
    "SAFFL": "Y",
    "ITTFL": "Y",
    "EFFFL": "Y"
  },
  {
    "STUDYID": "CDISCPILOT01",
    "USUBJID": "01-701-037",
    "TRTP": "Xanomeline Low Dose",
    "TRTPN": 1,
    "PARAMCD": "ACTOT11",
    "PARAM": "ADAS-Cog (11) Total Score",
    "AVAL": 26,
    "BASE": 27,
    "CHG": -1,
    "ACAT1": "Improvement",
    "ADT": "2013-03-02",
    "ADY": 57,
    "AVISIT": "WEEK 8",
    "AVISITN": 4,
    "ABLFL": "",
    "DTYPE": "",
    "ANL01FL": "Y",
    "ANL02FL": "",
    "ANL03FL": "",
    "AGE": 70,
    "AGEGR1": "65-80",
    "SEX": "M",
    "MMSETOT": 24,
    "MMSEGRP": "Mild (20-24)",
    "COMPLFL": "Y",
    "SAFFL": "Y",
    "ITTFL": "Y",
    "EFFFL": "Y"
  },
  {
    "STUDYID": "CDISCPILOT01",
    "USUBJID": "01-701-037",
    "TRTP": "Xanomeline Low Dose",
    "TRTPN": 1,
    "PARAMCD": "ACTOT11",
    "PARAM": "ADAS-Cog (11) Total Score",
    "AVAL": 32,
    "BASE": 27,
    "CHG": 5,
    "ACAT1": "Marked Worsening",
    "ADT": "2013-03-30",
    "ADY": 85,
    "AVISIT": "WEEK 12",
    "AVISITN": 5,
    "ABLFL": "",
    "DTYPE": "",
    "ANL01FL": "Y",
    "ANL02FL": "",
    "ANL03FL": "",
    "AGE": 70,
    "AGEGR1": "65-80",
    "SEX": "M",
    "MMSETOT": 24,
    "MMSEGRP": "Mild (20-24)",
    "COMPLFL": "Y",
    "SAFFL": "Y",
    "ITTFL": "Y",
    "EFFFL": "Y"
  },
  {
    "STUDYID": "CDISCPILOT01",
    "USUBJID": "01-701-037",
    "TRTP": "Xanomeline Low Dose",
    "TRTPN": 1,
    "PARAMCD": "ACTOT11",
    "PARAM": "ADAS-Cog (11) Total Score",
    "AVAL": 35,
    "BASE": 27,
    "CHG": 8,
    "ACAT1": "Marked Worsening",
    "ADT": "2013-06-22",
    "ADY": 169,
    "AVISIT": "WEEK 24",
    "AVISITN": 7,
    "ABLFL": "",
    "DTYPE": "",
    "ANL01FL": "Y",
    "ANL02FL": "Y",
    "ANL03FL": "Y",
    "AGE": 70,
    "AGEGR1": "65-80",
    "SEX": "M",
    "MMSETOT": 24,
    "MMSEGRP": "Mild (20-24)",
    "COMPLFL": "Y",
    "SAFFL": "Y",
    "ITTFL": "Y",
    "EFFFL": "Y"
  },
  {
    "STUDYID": "CDISCPILOT01",
    "USUBJID": "01-701-037",
    "TRTP": "Xanomeline Low Dose",
    "TRTPN": 1,
    "PARAMCD": "CIBIC",
    "PARAM": "CIBIC+ Global Impression of Change",
    "AVAL": 4,
    "ACAT1": "No Change",
    "ADT": "2013-06-22",
    "ADY": 169,
    "AVISIT": "WEEK 24",
    "AVISITN": 7,
    "ABLFL": "",
    "DTYPE": "",
    "ANL01FL": "Y",
    "ANL02FL": "Y",
    "ANL03FL": "Y",
    "AGE": 70,
    "AGEGR1": "65-80",
    "SEX": "M",
    "MMSETOT": 24,
    "MMSEGRP": "Mild (20-24)",
    "COMPLFL": "Y",
    "SAFFL": "Y",
    "ITTFL": "Y",
    "EFFFL": "Y"
  },
  {
    "STUDYID": "CDISCPILOT01",
    "USUBJID": "01-701-038",
    "TRTP": "Xanomeline High Dose",
    "TRTPN": 2,
    "PARAMCD": "ACTOT11",
    "PARAM": "ADAS-Cog (11) Total Score",
    "AVAL": 18,
    "BASE": 18,
    "CHG": 0,
    "ACAT1": "No Change",
    "ADT": "2013-06-14",
    "ADY": 1,
    "AVISIT": "BASELINE",
    "AVISITN": 1,
    "ABLFL": "Y",
    "DTYPE": "",
    "ANL01FL": "Y",
    "ANL02FL": "",
    "ANL03FL": "",
    "AGE": 68,
    "AGEGR1": "65-80",
    "SEX": "M",
    "MMSETOT": 20,
    "MMSEGRP": "Mild (20-24)",
    "COMPLFL": "N",
    "SAFFL": "Y",
    "ITTFL": "Y",
    "EFFFL": "Y"
  },
  {
    "STUDYID": "CDISCPILOT01",
    "USUBJID": "01-701-038",
    "TRTP": "Xanomeline High Dose",
    "TRTPN": 2,
    "PARAMCD": "ACTOT11",
    "PARAM": "ADAS-Cog (11) Total Score",
    "AVAL": 17,
    "BASE": 18,
    "CHG": -1,
    "ACAT1": "Improvement",
    "ADT": "2013-07-12",
    "ADY": 29,
    "AVISIT": "WEEK 4",
    "AVISITN": 3,
    "ABLFL": "",
    "DTYPE": "",
    "ANL01FL": "Y",
    "ANL02FL": "Y",
    "ANL03FL": "",
    "AGE": 68,
    "AGEGR1": "65-80",
    "SEX": "M",
    "MMSETOT": 20,
    "MMSEGRP": "Mild (20-24)",
    "COMPLFL": "N",
    "SAFFL": "Y",
    "ITTFL": "Y",
    "EFFFL": "Y"
  },
  {
    "STUDYID": "CDISCPILOT01",
    "USUBJID": "01-701-038",
    "TRTP": "Xanomeline High Dose",
    "TRTPN": 2,
    "PARAMCD": "CIBIC",
    "PARAM": "CIBIC+ Global Impression of Change",
    "AVAL": 3,
    "ACAT1": "Improved",
    "ADT": "2013-11-29",
    "ADY": 169,
    "AVISIT": "WEEK 24",
    "AVISITN": 7,
    "ABLFL": "",
    "DTYPE": "",
    "ANL01FL": "Y",
    "ANL02FL": "Y",
    "ANL03FL": "Y",
    "AGE": 68,
    "AGEGR1": "65-80",
    "SEX": "M",
    "MMSETOT": 20,
    "MMSEGRP": "Mild (20-24)",
    "COMPLFL": "N",
    "SAFFL": "Y",
    "ITTFL": "Y",
    "EFFFL": "Y"
  },
  {
    "STUDYID": "CDISCPILOT01",
    "USUBJID": "01-701-039",
    "TRTP": "Xanomeline High Dose",
    "TRTPN": 2,
    "PARAMCD": "ACTOT11",
    "PARAM": "ADAS-Cog (11) Total Score",
    "AVAL": 31,
    "BASE": 31,
    "CHG": 0,
    "ACAT1": "No Change",
    "ADT": "2013-04-27",
    "ADY": 1,
    "AVISIT": "BASELINE",
    "AVISITN": 1,
    "ABLFL": "Y",
    "DTYPE": "",
    "ANL01FL": "Y",
    "ANL02FL": "Y",
    "ANL03FL": "",
    "AGE": 75,
    "AGEGR1": "65-80",
    "SEX": "M",
    "MMSETOT": 14,
    "MMSEGRP": "Severe (0-14)",
    "COMPLFL": "N",
    "SAFFL": "Y",
    "ITTFL": "Y",
    "EFFFL": "Y"
  },
  {
    "STUDYID": "CDISCPILOT01",
    "USUBJID": "01-701-039",
    "TRTP": "Xanomeline High Dose",
    "TRTPN": 2,
    "PARAMCD": "CIBIC",
    "PARAM": "CIBIC+ Global Impression of Change",
    "AVAL": 4,
    "ACAT1": "No Change",
    "ADT": "2013-10-12",
    "ADY": 169,
    "AVISIT": "WEEK 24",
    "AVISITN": 7,
    "ABLFL": "",
    "DTYPE": "",
    "ANL01FL": "Y",
    "ANL02FL": "Y",
    "ANL03FL": "Y",
    "AGE": 75,
    "AGEGR1": "65-80",
    "SEX": "M",
    "MMSETOT": 14,
    "MMSEGRP": "Severe (0-14)",
    "COMPLFL": "N",
    "SAFFL": "Y",
    "ITTFL": "Y",
    "EFFFL": "Y"
  },
  {
    "STUDYID": "CDISCPILOT01",
    "USUBJID": "01-701-040",
    "TRTP": "Xanomeline Low Dose",
    "TRTPN": 1,
    "PARAMCD": "ACTOT11",
    "PARAM": "ADAS-Cog (11) Total Score",
    "AVAL": 48,
    "BASE": 48,
    "CHG": 0,
    "ACAT1": "No Change",
    "ADT": "2013-10-03",
    "ADY": 1,
    "AVISIT": "BASELINE",
    "AVISITN": 1,
    "ABLFL": "Y",
    "DTYPE": "",
    "ANL01FL": "Y",
    "ANL02FL": "Y",
    "ANL03FL": "",
    "AGE": 82,
    "AGEGR1": ">80",
    "SEX": "F",
    "MMSETOT": 17,
    "MMSEGRP": "Moderate (15-19)",
    "COMPLFL": "N",
    "SAFFL": "Y",
    "ITTFL": "Y",
    "EFFFL": "Y"
  },
  {
    "STUDYID": "CDISCPILOT01",
    "USUBJID": "01-701-040",
    "TRTP": "Xanomeline Low Dose",
    "TRTPN": 1,
    "PARAMCD": "CIBIC",
    "PARAM": "CIBIC+ Global Impression of Change",
    "AVAL": 5,
    "ACAT1": "Worsened",
    "ADT": "2014-03-20",
    "ADY": 169,
    "AVISIT": "WEEK 24",
    "AVISITN": 7,
    "ABLFL": "",
    "DTYPE": "",
    "ANL01FL": "Y",
    "ANL02FL": "Y",
    "ANL03FL": "Y",
    "AGE": 82,
    "AGEGR1": ">80",
    "SEX": "F",
    "MMSETOT": 17,
    "MMSEGRP": "Moderate (15-19)",
    "COMPLFL": "N",
    "SAFFL": "Y",
    "ITTFL": "Y",
    "EFFFL": "Y"
  },
  {
    "STUDYID": "CDISCPILOT01",
    "USUBJID": "01-701-041",
    "TRTP": "Xanomeline High Dose",
    "TRTPN": 2,
    "PARAMCD": "ACTOT11",
    "PARAM": "ADAS-Cog (11) Total Score",
    "AVAL": 27,
    "BASE": 27,
    "CHG": 0,
    "ACAT1": "No Change",
    "ADT": "2013-11-06",
    "ADY": 1,
    "AVISIT": "BASELINE",
    "AVISITN": 1,
    "ABLFL": "Y",
    "DTYPE": "",
    "ANL01FL": "Y",
    "ANL02FL": "",
    "ANL03FL": "",
    "AGE": 64,
    "AGEGR1": "<65",
    "SEX": "M",
    "MMSETOT": 14,
    "MMSEGRP": "Severe (0-14)",
    "COMPLFL": "N",
    "SAFFL": "Y",
    "ITTFL": "Y",
    "EFFFL": "Y"
  },
  {
    "STUDYID": "CDISCPILOT01",
    "USUBJID": "01-701-041",
    "TRTP": "Xanomeline High Dose",
    "TRTPN": 2,
    "PARAMCD": "ACTOT11",
    "PARAM": "ADAS-Cog (11) Total Score",
    "AVAL": 26,
    "BASE": 27,
    "CHG": -1,
    "ACAT1": "Improvement",
    "ADT": "2013-12-04",
    "ADY": 29,
    "AVISIT": "WEEK 4",
    "AVISITN": 3,
    "ABLFL": "",
    "DTYPE": "",
    "ANL01FL": "Y",
    "ANL02FL": "",
    "ANL03FL": "",
    "AGE": 64,
    "AGEGR1": "<65",
    "SEX": "M",
    "MMSETOT": 14,
    "MMSEGRP": "Severe (0-14)",
    "COMPLFL": "N",
    "SAFFL": "Y",
    "ITTFL": "Y",
    "EFFFL": "Y"
  },
  {
    "STUDYID": "CDISCPILOT01",
    "USUBJID": "01-701-041",
    "TRTP": "Xanomeline High Dose",
    "TRTPN": 2,
    "PARAMCD": "ACTOT11",
    "PARAM": "ADAS-Cog (11) Total Score",
    "AVAL": 26,
    "BASE": 27,
    "CHG": -1,
    "ACAT1": "Improvement",
    "ADT": "2014-01-01",
    "ADY": 57,
    "AVISIT": "WEEK 8",
    "AVISITN": 4,
    "ABLFL": "",
    "DTYPE": "",
    "ANL01FL": "Y",
    "ANL02FL": "",
    "ANL03FL": "",
    "AGE": 64,
    "AGEGR1": "<65",
    "SEX": "M",
    "MMSETOT": 14,
    "MMSEGRP": "Severe (0-14)",
    "COMPLFL": "N",
    "SAFFL": "Y",
    "ITTFL": "Y",
    "EFFFL": "Y"
  },
  {
    "STUDYID": "CDISCPILOT01",
    "USUBJID": "01-701-041",
    "TRTP": "Xanomeline High Dose",
    "TRTPN": 2,
    "PARAMCD": "ACTOT11",
    "PARAM": "ADAS-Cog (11) Total Score",
    "AVAL": 27,
    "BASE": 27,
    "CHG": 0,
    "ACAT1": "No Change",
    "ADT": "2014-01-29",
    "ADY": 85,
    "AVISIT": "WEEK 12",
    "AVISITN": 5,
    "ABLFL": "",
    "DTYPE": "",
    "ANL01FL": "Y",
    "ANL02FL": "Y",
    "ANL03FL": "",
    "AGE": 64,
    "AGEGR1": "<65",
    "SEX": "M",
    "MMSETOT": 14,
    "MMSEGRP": "Severe (0-14)",
    "COMPLFL": "N",
    "SAFFL": "Y",
    "ITTFL": "Y",
    "EFFFL": "Y"
  },
  {
    "STUDYID": "CDISCPILOT01",
    "USUBJID": "01-701-041",
    "TRTP": "Xanomeline High Dose",
    "TRTPN": 2,
    "PARAMCD": "CIBIC",
    "PARAM": "CIBIC+ Global Impression of Change",
    "AVAL": 5,
    "ACAT1": "Worsened",
    "ADT": "2014-04-23",
    "ADY": 169,
    "AVISIT": "WEEK 24",
    "AVISITN": 7,
    "ABLFL": "",
    "DTYPE": "",
    "ANL01FL": "Y",
    "ANL02FL": "Y",
    "ANL03FL": "Y",
    "AGE": 64,
    "AGEGR1": "<65",
    "SEX": "M",
    "MMSETOT": 14,
    "MMSEGRP": "Severe (0-14)",
    "COMPLFL": "N",
    "SAFFL": "Y",
    "ITTFL": "Y",
    "EFFFL": "Y"
  },
  {
    "STUDYID": "CDISCPILOT01",
    "USUBJID": "01-701-042",
    "TRTP": "Placebo",
    "TRTPN": 0,
    "PARAMCD": "ACTOT11",
    "PARAM": "ADAS-Cog (11) Total Score",
    "AVAL": 36,
    "BASE": 36,
    "CHG": 0,
    "ACAT1": "No Change",
    "ADT": "2013-09-03",
    "ADY": 1,
    "AVISIT": "BASELINE",
    "AVISITN": 1,
    "ABLFL": "Y",
    "DTYPE": "",
    "ANL01FL": "Y",
    "ANL02FL": "",
    "ANL03FL": "",
    "AGE": 72,
    "AGEGR1": "65-80",
    "SEX": "M",
    "MMSETOT": 13,
    "MMSEGRP": "Severe (0-14)",
    "COMPLFL": "Y",
    "SAFFL": "Y",
    "ITTFL": "Y",
    "EFFFL": "Y"
  },
  {
    "STUDYID": "CDISCPILOT01",
    "USUBJID": "01-701-042",
    "TRTP": "Placebo",
    "TRTPN": 0,
    "PARAMCD": "ACTOT11",
    "PARAM": "ADAS-Cog (11) Total Score",
    "AVAL": 34,
    "BASE": 36,
    "CHG": -2,
    "ACAT1": "Improvement",
    "ADT": "2013-10-01",
    "ADY": 29,
    "AVISIT": "WEEK 4",
    "AVISITN": 3,
    "ABLFL": "",
    "DTYPE": "",
    "ANL01FL": "Y",
    "ANL02FL": "",
    "ANL03FL": "",
    "AGE": 72,
    "AGEGR1": "65-80",
    "SEX": "M",
    "MMSETOT": 13,
    "MMSEGRP": "Severe (0-14)",
    "COMPLFL": "Y",
    "SAFFL": "Y",
    "ITTFL": "Y",
    "EFFFL": "Y"
  },
  {
    "STUDYID": "CDISCPILOT01",
    "USUBJID": "01-701-042",
    "TRTP": "Placebo",
    "TRTPN": 0,
    "PARAMCD": "ACTOT11",
    "PARAM": "ADAS-Cog (11) Total Score",
    "AVAL": 39,
    "BASE": 36,
    "CHG": 3,
    "ACAT1": "Worsening",
    "ADT": "2013-10-29",
    "ADY": 57,
    "AVISIT": "WEEK 8",
    "AVISITN": 4,
    "ABLFL": "",
    "DTYPE": "",
    "ANL01FL": "Y",
    "ANL02FL": "",
    "ANL03FL": "",
    "AGE": 72,
    "AGEGR1": "65-80",
    "SEX": "M",
    "MMSETOT": 13,
    "MMSEGRP": "Severe (0-14)",
    "COMPLFL": "Y",
    "SAFFL": "Y",
    "ITTFL": "Y",
    "EFFFL": "Y"
  },
  {
    "STUDYID": "CDISCPILOT01",
    "USUBJID": "01-701-042",
    "TRTP": "Placebo",
    "TRTPN": 0,
    "PARAMCD": "ACTOT11",
    "PARAM": "ADAS-Cog (11) Total Score",
    "AVAL": 36,
    "BASE": 36,
    "CHG": 0,
    "ACAT1": "No Change",
    "ADT": "2013-11-26",
    "ADY": 85,
    "AVISIT": "WEEK 12",
    "AVISITN": 5,
    "ABLFL": "",
    "DTYPE": "",
    "ANL01FL": "Y",
    "ANL02FL": "",
    "ANL03FL": "",
    "AGE": 72,
    "AGEGR1": "65-80",
    "SEX": "M",
    "MMSETOT": 13,
    "MMSEGRP": "Severe (0-14)",
    "COMPLFL": "Y",
    "SAFFL": "Y",
    "ITTFL": "Y",
    "EFFFL": "Y"
  },
  {
    "STUDYID": "CDISCPILOT01",
    "USUBJID": "01-701-042",
    "TRTP": "Placebo",
    "TRTPN": 0,
    "PARAMCD": "ACTOT11",
    "PARAM": "ADAS-Cog (11) Total Score",
    "AVAL": 36,
    "BASE": 36,
    "CHG": 0,
    "ACAT1": "No Change",
    "ADT": "2014-02-18",
    "ADY": 169,
    "AVISIT": "WEEK 24",
    "AVISITN": 7,
    "ABLFL": "",
    "DTYPE": "",
    "ANL01FL": "Y",
    "ANL02FL": "Y",
    "ANL03FL": "Y",
    "AGE": 72,
    "AGEGR1": "65-80",
    "SEX": "M",
    "MMSETOT": 13,
    "MMSEGRP": "Severe (0-14)",
    "COMPLFL": "Y",
    "SAFFL": "Y",
    "ITTFL": "Y",
    "EFFFL": "Y"
  },
  {
    "STUDYID": "CDISCPILOT01",
    "USUBJID": "01-701-042",
    "TRTP": "Placebo",
    "TRTPN": 0,
    "PARAMCD": "CIBIC",
    "PARAM": "CIBIC+ Global Impression of Change",
    "AVAL": 4,
    "ACAT1": "No Change",
    "ADT": "2014-02-18",
    "ADY": 169,
    "AVISIT": "WEEK 24",
    "AVISITN": 7,
    "ABLFL": "",
    "DTYPE": "",
    "ANL01FL": "Y",
    "ANL02FL": "Y",
    "ANL03FL": "Y",
    "AGE": 72,
    "AGEGR1": "65-80",
    "SEX": "M",
    "MMSETOT": 13,
    "MMSEGRP": "Severe (0-14)",
    "COMPLFL": "Y",
    "SAFFL": "Y",
    "ITTFL": "Y",
    "EFFFL": "Y"
  },
  {
    "STUDYID": "CDISCPILOT01",
    "USUBJID": "01-701-043",
    "TRTP": "Xanomeline High Dose",
    "TRTPN": 2,
    "PARAMCD": "ACTOT11",
    "PARAM": "ADAS-Cog (11) Total Score",
    "AVAL": 31,
    "BASE": 31,
    "CHG": 0,
    "ACAT1": "No Change",
    "ADT": "2013-06-15",
    "ADY": 1,
    "AVISIT": "BASELINE",
    "AVISITN": 1,
    "ABLFL": "Y",
    "DTYPE": "",
    "ANL01FL": "Y",
    "ANL02FL": "Y",
    "ANL03FL": "",
    "AGE": 80,
    "AGEGR1": ">80",
    "SEX": "F",
    "MMSETOT": 17,
    "MMSEGRP": "Moderate (15-19)",
    "COMPLFL": "N",
    "SAFFL": "Y",
    "ITTFL": "Y",
    "EFFFL": "Y"
  },
  {
    "STUDYID": "CDISCPILOT01",
    "USUBJID": "01-701-043",
    "TRTP": "Xanomeline High Dose",
    "TRTPN": 2,
    "PARAMCD": "CIBIC",
    "PARAM": "CIBIC+ Global Impression of Change",
    "AVAL": 4,
    "ACAT1": "No Change",
    "ADT": "2013-11-30",
    "ADY": 169,
    "AVISIT": "WEEK 24",
    "AVISITN": 7,
    "ABLFL": "",
    "DTYPE": "",
    "ANL01FL": "Y",
    "ANL02FL": "Y",
    "ANL03FL": "Y",
    "AGE": 80,
    "AGEGR1": ">80",
    "SEX": "F",
    "MMSETOT": 17,
    "MMSEGRP": "Moderate (15-19)",
    "COMPLFL": "N",
    "SAFFL": "Y",
    "ITTFL": "Y",
    "EFFFL": "Y"
  },
  {
    "STUDYID": "CDISCPILOT01",
    "USUBJID": "01-703-001",
    "TRTP": "Placebo",
    "TRTPN": 0,
    "PARAMCD": "ACTOT11",
    "PARAM": "ADAS-Cog (11) Total Score",
    "AVAL": 51,
    "BASE": 51,
    "CHG": 0,
    "ACAT1": "No Change",
    "ADT": "2013-01-12",
    "ADY": 1,
    "AVISIT": "BASELINE",
    "AVISITN": 1,
    "ABLFL": "Y",
    "DTYPE": "",
    "ANL01FL": "Y",
    "ANL02FL": "",
    "ANL03FL": "",
    "AGE": 70,
    "AGEGR1": "65-80",
    "SEX": "M",
    "MMSETOT": 21,
    "MMSEGRP": "Mild (20-24)",
    "COMPLFL": "Y",
    "SAFFL": "Y",
    "ITTFL": "Y",
    "EFFFL": "Y"
  },
  {
    "STUDYID": "CDISCPILOT01",
    "USUBJID": "01-703-001",
    "TRTP": "Placebo",
    "TRTPN": 0,
    "PARAMCD": "ACTOT11",
    "PARAM": "ADAS-Cog (11) Total Score",
    "AVAL": 52,
    "BASE": 51,
    "CHG": 1,
    "ACAT1": "Worsening",
    "ADT": "2013-02-09",
    "ADY": 29,
    "AVISIT": "WEEK 4",
    "AVISITN": 3,
    "ABLFL": "",
    "DTYPE": "",
    "ANL01FL": "Y",
    "ANL02FL": "",
    "ANL03FL": "",
    "AGE": 70,
    "AGEGR1": "65-80",
    "SEX": "M",
    "MMSETOT": 21,
    "MMSEGRP": "Mild (20-24)",
    "COMPLFL": "Y",
    "SAFFL": "Y",
    "ITTFL": "Y",
    "EFFFL": "Y"
  },
  {
    "STUDYID": "CDISCPILOT01",
    "USUBJID": "01-703-001",
    "TRTP": "Placebo",
    "TRTPN": 0,
    "PARAMCD": "ACTOT11",
    "PARAM": "ADAS-Cog (11) Total Score",
    "AVAL": 49,
    "BASE": 51,
    "CHG": -2,
    "ACAT1": "Improvement",
    "ADT": "2013-03-09",
    "ADY": 57,
    "AVISIT": "WEEK 8",
    "AVISITN": 4,
    "ABLFL": "",
    "DTYPE": "",
    "ANL01FL": "Y",
    "ANL02FL": "",
    "ANL03FL": "",
    "AGE": 70,
    "AGEGR1": "65-80",
    "SEX": "M",
    "MMSETOT": 21,
    "MMSEGRP": "Mild (20-24)",
    "COMPLFL": "Y",
    "SAFFL": "Y",
    "ITTFL": "Y",
    "EFFFL": "Y"
  },
  {
    "STUDYID": "CDISCPILOT01",
    "USUBJID": "01-703-001",
    "TRTP": "Placebo",
    "TRTPN": 0,
    "PARAMCD": "ACTOT11",
    "PARAM": "ADAS-Cog (11) Total Score",
    "AVAL": 53,
    "BASE": 51,
    "CHG": 2,
    "ACAT1": "Worsening",
    "ADT": "2013-04-06",
    "ADY": 85,
    "AVISIT": "WEEK 12",
    "AVISITN": 5,
    "ABLFL": "",
    "DTYPE": "",
    "ANL01FL": "Y",
    "ANL02FL": "",
    "ANL03FL": "",
    "AGE": 70,
    "AGEGR1": "65-80",
    "SEX": "M",
    "MMSETOT": 21,
    "MMSEGRP": "Mild (20-24)",
    "COMPLFL": "Y",
    "SAFFL": "Y",
    "ITTFL": "Y",
    "EFFFL": "Y"
  },
  {
    "STUDYID": "CDISCPILOT01",
    "USUBJID": "01-703-001",
    "TRTP": "Placebo",
    "TRTPN": 0,
    "PARAMCD": "ACTOT11",
    "PARAM": "ADAS-Cog (11) Total Score",
    "AVAL": 53,
    "BASE": 51,
    "CHG": 2,
    "ACAT1": "Worsening",
    "ADT": "2013-06-29",
    "ADY": 169,
    "AVISIT": "WEEK 24",
    "AVISITN": 7,
    "ABLFL": "",
    "DTYPE": "",
    "ANL01FL": "Y",
    "ANL02FL": "Y",
    "ANL03FL": "Y",
    "AGE": 70,
    "AGEGR1": "65-80",
    "SEX": "M",
    "MMSETOT": 21,
    "MMSEGRP": "Mild (20-24)",
    "COMPLFL": "Y",
    "SAFFL": "Y",
    "ITTFL": "Y",
    "EFFFL": "Y"
  },
  {
    "STUDYID": "CDISCPILOT01",
    "USUBJID": "01-703-001",
    "TRTP": "Placebo",
    "TRTPN": 0,
    "PARAMCD": "CIBIC",
    "PARAM": "CIBIC+ Global Impression of Change",
    "AVAL": 5,
    "ACAT1": "Worsened",
    "ADT": "2013-06-29",
    "ADY": 169,
    "AVISIT": "WEEK 24",
    "AVISITN": 7,
    "ABLFL": "",
    "DTYPE": "",
    "ANL01FL": "Y",
    "ANL02FL": "Y",
    "ANL03FL": "Y",
    "AGE": 70,
    "AGEGR1": "65-80",
    "SEX": "M",
    "MMSETOT": 21,
    "MMSEGRP": "Mild (20-24)",
    "COMPLFL": "Y",
    "SAFFL": "Y",
    "ITTFL": "Y",
    "EFFFL": "Y"
  },
  {
    "STUDYID": "CDISCPILOT01",
    "USUBJID": "01-703-002",
    "TRTP": "Xanomeline High Dose",
    "TRTPN": 2,
    "PARAMCD": "ACTOT11",
    "PARAM": "ADAS-Cog (11) Total Score",
    "AVAL": 32,
    "BASE": 32,
    "CHG": 0,
    "ACAT1": "No Change",
    "ADT": "2013-02-03",
    "ADY": 1,
    "AVISIT": "BASELINE",
    "AVISITN": 1,
    "ABLFL": "Y",
    "DTYPE": "",
    "ANL01FL": "Y",
    "ANL02FL": "",
    "ANL03FL": "",
    "AGE": 72,
    "AGEGR1": "65-80",
    "SEX": "F",
    "MMSETOT": 20,
    "MMSEGRP": "Mild (20-24)",
    "COMPLFL": "N",
    "SAFFL": "Y",
    "ITTFL": "Y",
    "EFFFL": "Y"
  },
  {
    "STUDYID": "CDISCPILOT01",
    "USUBJID": "01-703-002",
    "TRTP": "Xanomeline High Dose",
    "TRTPN": 2,
    "PARAMCD": "ACTOT11",
    "PARAM": "ADAS-Cog (11) Total Score",
    "AVAL": 31,
    "BASE": 32,
    "CHG": -1,
    "ACAT1": "Improvement",
    "ADT": "2013-03-03",
    "ADY": 29,
    "AVISIT": "WEEK 4",
    "AVISITN": 3,
    "ABLFL": "",
    "DTYPE": "",
    "ANL01FL": "Y",
    "ANL02FL": "",
    "ANL03FL": "",
    "AGE": 72,
    "AGEGR1": "65-80",
    "SEX": "F",
    "MMSETOT": 20,
    "MMSEGRP": "Mild (20-24)",
    "COMPLFL": "N",
    "SAFFL": "Y",
    "ITTFL": "Y",
    "EFFFL": "Y"
  },
  {
    "STUDYID": "CDISCPILOT01",
    "USUBJID": "01-703-002",
    "TRTP": "Xanomeline High Dose",
    "TRTPN": 2,
    "PARAMCD": "ACTOT11",
    "PARAM": "ADAS-Cog (11) Total Score",
    "AVAL": 33,
    "BASE": 32,
    "CHG": 1,
    "ACAT1": "Worsening",
    "ADT": "2013-03-31",
    "ADY": 57,
    "AVISIT": "WEEK 8",
    "AVISITN": 4,
    "ABLFL": "",
    "DTYPE": "",
    "ANL01FL": "Y",
    "ANL02FL": "",
    "ANL03FL": "",
    "AGE": 72,
    "AGEGR1": "65-80",
    "SEX": "F",
    "MMSETOT": 20,
    "MMSEGRP": "Mild (20-24)",
    "COMPLFL": "N",
    "SAFFL": "Y",
    "ITTFL": "Y",
    "EFFFL": "Y"
  },
  {
    "STUDYID": "CDISCPILOT01",
    "USUBJID": "01-703-002",
    "TRTP": "Xanomeline High Dose",
    "TRTPN": 2,
    "PARAMCD": "ACTOT11",
    "PARAM": "ADAS-Cog (11) Total Score",
    "AVAL": 38,
    "BASE": 32,
    "CHG": 6,
    "ACAT1": "Marked Worsening",
    "ADT": "2013-04-28",
    "ADY": 85,
    "AVISIT": "WEEK 12",
    "AVISITN": 5,
    "ABLFL": "",
    "DTYPE": "",
    "ANL01FL": "Y",
    "ANL02FL": "Y",
    "ANL03FL": "",
    "AGE": 72,
    "AGEGR1": "65-80",
    "SEX": "F",
    "MMSETOT": 20,
    "MMSEGRP": "Mild (20-24)",
    "COMPLFL": "N",
    "SAFFL": "Y",
    "ITTFL": "Y",
    "EFFFL": "Y"
  },
  {
    "STUDYID": "CDISCPILOT01",
    "USUBJID": "01-703-002",
    "TRTP": "Xanomeline High Dose",
    "TRTPN": 2,
    "PARAMCD": "CIBIC",
    "PARAM": "CIBIC+ Global Impression of Change",
    "AVAL": 4,
    "ACAT1": "No Change",
    "ADT": "2013-07-21",
    "ADY": 169,
    "AVISIT": "WEEK 24",
    "AVISITN": 7,
    "ABLFL": "",
    "DTYPE": "",
    "ANL01FL": "Y",
    "ANL02FL": "Y",
    "ANL03FL": "Y",
    "AGE": 72,
    "AGEGR1": "65-80",
    "SEX": "F",
    "MMSETOT": 20,
    "MMSEGRP": "Mild (20-24)",
    "COMPLFL": "N",
    "SAFFL": "Y",
    "ITTFL": "Y",
    "EFFFL": "Y"
  },
  {
    "STUDYID": "CDISCPILOT01",
    "USUBJID": "01-703-003",
    "TRTP": "Xanomeline High Dose",
    "TRTPN": 2,
    "PARAMCD": "ACTOT11",
    "PARAM": "ADAS-Cog (11) Total Score",
    "AVAL": 28,
    "BASE": 28,
    "CHG": 0,
    "ACAT1": "No Change",
    "ADT": "2013-08-12",
    "ADY": 1,
    "AVISIT": "BASELINE",
    "AVISITN": 1,
    "ABLFL": "Y",
    "DTYPE": "",
    "ANL01FL": "Y",
    "ANL02FL": "",
    "ANL03FL": "",
    "AGE": 78,
    "AGEGR1": "65-80",
    "SEX": "F",
    "MMSETOT": 24,
    "MMSEGRP": "Mild (20-24)",
    "COMPLFL": "Y",
    "SAFFL": "Y",
    "ITTFL": "Y",
    "EFFFL": "Y"
  },
  {
    "STUDYID": "CDISCPILOT01",
    "USUBJID": "01-703-003",
    "TRTP": "Xanomeline High Dose",
    "TRTPN": 2,
    "PARAMCD": "ACTOT11",
    "PARAM": "ADAS-Cog (11) Total Score",
    "AVAL": 27,
    "BASE": 28,
    "CHG": -1,
    "ACAT1": "Improvement",
    "ADT": "2013-09-09",
    "ADY": 29,
    "AVISIT": "WEEK 4",
    "AVISITN": 3,
    "ABLFL": "",
    "DTYPE": "",
    "ANL01FL": "Y",
    "ANL02FL": "",
    "ANL03FL": "",
    "AGE": 78,
    "AGEGR1": "65-80",
    "SEX": "F",
    "MMSETOT": 24,
    "MMSEGRP": "Mild (20-24)",
    "COMPLFL": "Y",
    "SAFFL": "Y",
    "ITTFL": "Y",
    "EFFFL": "Y"
  },
  {
    "STUDYID": "CDISCPILOT01",
    "USUBJID": "01-703-003",
    "TRTP": "Xanomeline High Dose",
    "TRTPN": 2,
    "PARAMCD": "ACTOT11",
    "PARAM": "ADAS-Cog (11) Total Score",
    "AVAL": 31,
    "BASE": 28,
    "CHG": 3,
    "ACAT1": "Worsening",
    "ADT": "2013-10-07",
    "ADY": 57,
    "AVISIT": "WEEK 8",
    "AVISITN": 4,
    "ABLFL": "",
    "DTYPE": "",
    "ANL01FL": "Y",
    "ANL02FL": "",
    "ANL03FL": "",
    "AGE": 78,
    "AGEGR1": "65-80",
    "SEX": "F",
    "MMSETOT": 24,
    "MMSEGRP": "Mild (20-24)",
    "COMPLFL": "Y",
    "SAFFL": "Y",
    "ITTFL": "Y",
    "EFFFL": "Y"
  },
  {
    "STUDYID": "CDISCPILOT01",
    "USUBJID": "01-703-003",
    "TRTP": "Xanomeline High Dose",
    "TRTPN": 2,
    "PARAMCD": "ACTOT11",
    "PARAM": "ADAS-Cog (11) Total Score",
    "AVAL": 23,
    "BASE": 28,
    "CHG": -5,
    "ACAT1": "Marked Improvement",
    "ADT": "2013-11-04",
    "ADY": 85,
    "AVISIT": "WEEK 12",
    "AVISITN": 5,
    "ABLFL": "",
    "DTYPE": "",
    "ANL01FL": "Y",
    "ANL02FL": "",
    "ANL03FL": "",
    "AGE": 78,
    "AGEGR1": "65-80",
    "SEX": "F",
    "MMSETOT": 24,
    "MMSEGRP": "Mild (20-24)",
    "COMPLFL": "Y",
    "SAFFL": "Y",
    "ITTFL": "Y",
    "EFFFL": "Y"
  },
  {
    "STUDYID": "CDISCPILOT01",
    "USUBJID": "01-703-003",
    "TRTP": "Xanomeline High Dose",
    "TRTPN": 2,
    "PARAMCD": "ACTOT11",
    "PARAM": "ADAS-Cog (11) Total Score",
    "AVAL": 36,
    "BASE": 28,
    "CHG": 8,
    "ACAT1": "Marked Worsening",
    "ADT": "2014-01-27",
    "ADY": 169,
    "AVISIT": "WEEK 24",
    "AVISITN": 7,
    "ABLFL": "",
    "DTYPE": "",
    "ANL01FL": "Y",
    "ANL02FL": "Y",
    "ANL03FL": "Y",
    "AGE": 78,
    "AGEGR1": "65-80",
    "SEX": "F",
    "MMSETOT": 24,
    "MMSEGRP": "Mild (20-24)",
    "COMPLFL": "Y",
    "SAFFL": "Y",
    "ITTFL": "Y",
    "EFFFL": "Y"
  },
  {
    "STUDYID": "CDISCPILOT01",
    "USUBJID": "01-703-003",
    "TRTP": "Xanomeline High Dose",
    "TRTPN": 2,
    "PARAMCD": "CIBIC",
    "PARAM": "CIBIC+ Global Impression of Change",
    "AVAL": 4,
    "ACAT1": "No Change",
    "ADT": "2014-01-27",
    "ADY": 169,
    "AVISIT": "WEEK 24",
    "AVISITN": 7,
    "ABLFL": "",
    "DTYPE": "",
    "ANL01FL": "Y",
    "ANL02FL": "Y",
    "ANL03FL": "Y",
    "AGE": 78,
    "AGEGR1": "65-80",
    "SEX": "F",
    "MMSETOT": 24,
    "MMSEGRP": "Mild (20-24)",
    "COMPLFL": "Y",
    "SAFFL": "Y",
    "ITTFL": "Y",
    "EFFFL": "Y"
  },
  {
    "STUDYID": "CDISCPILOT01",
    "USUBJID": "01-703-004",
    "TRTP": "Placebo",
    "TRTPN": 0,
    "PARAMCD": "ACTOT11",
    "PARAM": "ADAS-Cog (11) Total Score",
    "AVAL": 28,
    "BASE": 28,
    "CHG": 0,
    "ACAT1": "No Change",
    "ADT": "2013-07-30",
    "ADY": 1,
    "AVISIT": "BASELINE",
    "AVISITN": 1,
    "ABLFL": "Y",
    "DTYPE": "",
    "ANL01FL": "Y",
    "ANL02FL": "",
    "ANL03FL": "",
    "AGE": 75,
    "AGEGR1": "65-80",
    "SEX": "F",
    "MMSETOT": 15,
    "MMSEGRP": "Moderate (15-19)",
    "COMPLFL": "N",
    "SAFFL": "Y",
    "ITTFL": "Y",
    "EFFFL": "Y"
  },
  {
    "STUDYID": "CDISCPILOT01",
    "USUBJID": "01-703-004",
    "TRTP": "Placebo",
    "TRTPN": 0,
    "PARAMCD": "ACTOT11",
    "PARAM": "ADAS-Cog (11) Total Score",
    "AVAL": 30,
    "BASE": 28,
    "CHG": 2,
    "ACAT1": "Worsening",
    "ADT": "2013-08-27",
    "ADY": 29,
    "AVISIT": "WEEK 4",
    "AVISITN": 3,
    "ABLFL": "",
    "DTYPE": "",
    "ANL01FL": "Y",
    "ANL02FL": "",
    "ANL03FL": "",
    "AGE": 75,
    "AGEGR1": "65-80",
    "SEX": "F",
    "MMSETOT": 15,
    "MMSEGRP": "Moderate (15-19)",
    "COMPLFL": "N",
    "SAFFL": "Y",
    "ITTFL": "Y",
    "EFFFL": "Y"
  },
  {
    "STUDYID": "CDISCPILOT01",
    "USUBJID": "01-703-004",
    "TRTP": "Placebo",
    "TRTPN": 0,
    "PARAMCD": "ACTOT11",
    "PARAM": "ADAS-Cog (11) Total Score",
    "AVAL": 25,
    "BASE": 28,
    "CHG": -3,
    "ACAT1": "Improvement",
    "ADT": "2013-09-24",
    "ADY": 57,
    "AVISIT": "WEEK 8",
    "AVISITN": 4,
    "ABLFL": "",
    "DTYPE": "",
    "ANL01FL": "Y",
    "ANL02FL": "",
    "ANL03FL": "",
    "AGE": 75,
    "AGEGR1": "65-80",
    "SEX": "F",
    "MMSETOT": 15,
    "MMSEGRP": "Moderate (15-19)",
    "COMPLFL": "N",
    "SAFFL": "Y",
    "ITTFL": "Y",
    "EFFFL": "Y"
  },
  {
    "STUDYID": "CDISCPILOT01",
    "USUBJID": "01-703-004",
    "TRTP": "Placebo",
    "TRTPN": 0,
    "PARAMCD": "ACTOT11",
    "PARAM": "ADAS-Cog (11) Total Score",
    "AVAL": 36,
    "BASE": 28,
    "CHG": 8,
    "ACAT1": "Marked Worsening",
    "ADT": "2013-10-22",
    "ADY": 85,
    "AVISIT": "WEEK 12",
    "AVISITN": 5,
    "ABLFL": "",
    "DTYPE": "",
    "ANL01FL": "Y",
    "ANL02FL": "Y",
    "ANL03FL": "",
    "AGE": 75,
    "AGEGR1": "65-80",
    "SEX": "F",
    "MMSETOT": 15,
    "MMSEGRP": "Moderate (15-19)",
    "COMPLFL": "N",
    "SAFFL": "Y",
    "ITTFL": "Y",
    "EFFFL": "Y"
  },
  {
    "STUDYID": "CDISCPILOT01",
    "USUBJID": "01-703-004",
    "TRTP": "Placebo",
    "TRTPN": 0,
    "PARAMCD": "CIBIC",
    "PARAM": "CIBIC+ Global Impression of Change",
    "AVAL": 5,
    "ACAT1": "Worsened",
    "ADT": "2014-01-14",
    "ADY": 169,
    "AVISIT": "WEEK 24",
    "AVISITN": 7,
    "ABLFL": "",
    "DTYPE": "",
    "ANL01FL": "Y",
    "ANL02FL": "Y",
    "ANL03FL": "Y",
    "AGE": 75,
    "AGEGR1": "65-80",
    "SEX": "F",
    "MMSETOT": 15,
    "MMSEGRP": "Moderate (15-19)",
    "COMPLFL": "N",
    "SAFFL": "Y",
    "ITTFL": "Y",
    "EFFFL": "Y"
  },
  {
    "STUDYID": "CDISCPILOT01",
    "USUBJID": "01-703-005",
    "TRTP": "Xanomeline Low Dose",
    "TRTPN": 1,
    "PARAMCD": "ACTOT11",
    "PARAM": "ADAS-Cog (11) Total Score",
    "AVAL": 26,
    "BASE": 26,
    "CHG": 0,
    "ACAT1": "No Change",
    "ADT": "2013-03-05",
    "ADY": 1,
    "AVISIT": "BASELINE",
    "AVISITN": 1,
    "ABLFL": "Y",
    "DTYPE": "",
    "ANL01FL": "Y",
    "ANL02FL": "",
    "ANL03FL": "",
    "AGE": 66,
    "AGEGR1": "65-80",
    "SEX": "M",
    "MMSETOT": 21,
    "MMSEGRP": "Mild (20-24)",
    "COMPLFL": "N",
    "SAFFL": "Y",
    "ITTFL": "Y",
    "EFFFL": "Y"
  },
  {
    "STUDYID": "CDISCPILOT01",
    "USUBJID": "01-703-005",
    "TRTP": "Xanomeline Low Dose",
    "TRTPN": 1,
    "PARAMCD": "ACTOT11",
    "PARAM": "ADAS-Cog (11) Total Score",
    "AVAL": 24,
    "BASE": 26,
    "CHG": -2,
    "ACAT1": "Improvement",
    "ADT": "2013-04-02",
    "ADY": 29,
    "AVISIT": "WEEK 4",
    "AVISITN": 3,
    "ABLFL": "",
    "DTYPE": "",
    "ANL01FL": "Y",
    "ANL02FL": "Y",
    "ANL03FL": "",
    "AGE": 66,
    "AGEGR1": "65-80",
    "SEX": "M",
    "MMSETOT": 21,
    "MMSEGRP": "Mild (20-24)",
    "COMPLFL": "N",
    "SAFFL": "Y",
    "ITTFL": "Y",
    "EFFFL": "Y"
  },
  {
    "STUDYID": "CDISCPILOT01",
    "USUBJID": "01-703-005",
    "TRTP": "Xanomeline Low Dose",
    "TRTPN": 1,
    "PARAMCD": "CIBIC",
    "PARAM": "CIBIC+ Global Impression of Change",
    "AVAL": 6,
    "ACAT1": "Worsened",
    "ADT": "2013-08-20",
    "ADY": 169,
    "AVISIT": "WEEK 24",
    "AVISITN": 7,
    "ABLFL": "",
    "DTYPE": "",
    "ANL01FL": "Y",
    "ANL02FL": "Y",
    "ANL03FL": "Y",
    "AGE": 66,
    "AGEGR1": "65-80",
    "SEX": "M",
    "MMSETOT": 21,
    "MMSEGRP": "Mild (20-24)",
    "COMPLFL": "N",
    "SAFFL": "Y",
    "ITTFL": "Y",
    "EFFFL": "Y"
  },
  {
    "STUDYID": "CDISCPILOT01",
    "USUBJID": "01-703-006",
    "TRTP": "Placebo",
    "TRTPN": 0,
    "PARAMCD": "ACTOT11",
    "PARAM": "ADAS-Cog (11) Total Score",
    "AVAL": 17,
    "BASE": 17,
    "CHG": 0,
    "ACAT1": "No Change",
    "ADT": "2013-07-24",
    "ADY": 1,
    "AVISIT": "BASELINE",
    "AVISITN": 1,
    "ABLFL": "Y",
    "DTYPE": "",
    "ANL01FL": "Y",
    "ANL02FL": "",
    "ANL03FL": "",
    "AGE": 85,
    "AGEGR1": ">80",
    "SEX": "F",
    "MMSETOT": 15,
    "MMSEGRP": "Moderate (15-19)",
    "COMPLFL": "N",
    "SAFFL": "Y",
    "ITTFL": "Y",
    "EFFFL": "Y"
  },
  {
    "STUDYID": "CDISCPILOT01",
    "USUBJID": "01-703-006",
    "TRTP": "Placebo",
    "TRTPN": 0,
    "PARAMCD": "ACTOT11",
    "PARAM": "ADAS-Cog (11) Total Score",
    "AVAL": 17,
    "BASE": 17,
    "CHG": 0,
    "ACAT1": "No Change",
    "ADT": "2013-08-21",
    "ADY": 29,
    "AVISIT": "WEEK 4",
    "AVISITN": 3,
    "ABLFL": "",
    "DTYPE": "",
    "ANL01FL": "Y",
    "ANL02FL": "Y",
    "ANL03FL": "",
    "AGE": 85,
    "AGEGR1": ">80",
    "SEX": "F",
    "MMSETOT": 15,
    "MMSEGRP": "Moderate (15-19)",
    "COMPLFL": "N",
    "SAFFL": "Y",
    "ITTFL": "Y",
    "EFFFL": "Y"
  },
  {
    "STUDYID": "CDISCPILOT01",
    "USUBJID": "01-703-006",
    "TRTP": "Placebo",
    "TRTPN": 0,
    "PARAMCD": "CIBIC",
    "PARAM": "CIBIC+ Global Impression of Change",
    "AVAL": 5,
    "ACAT1": "Worsened",
    "ADT": "2014-01-08",
    "ADY": 169,
    "AVISIT": "WEEK 24",
    "AVISITN": 7,
    "ABLFL": "",
    "DTYPE": "",
    "ANL01FL": "Y",
    "ANL02FL": "Y",
    "ANL03FL": "Y",
    "AGE": 85,
    "AGEGR1": ">80",
    "SEX": "F",
    "MMSETOT": 15,
    "MMSEGRP": "Moderate (15-19)",
    "COMPLFL": "N",
    "SAFFL": "Y",
    "ITTFL": "Y",
    "EFFFL": "Y"
  },
  {
    "STUDYID": "CDISCPILOT01",
    "USUBJID": "01-703-007",
    "TRTP": "Placebo",
    "TRTPN": 0,
    "PARAMCD": "ACTOT11",
    "PARAM": "ADAS-Cog (11) Total Score",
    "AVAL": 32,
    "BASE": 32,
    "CHG": 0,
    "ACAT1": "No Change",
    "ADT": "2013-02-21",
    "ADY": 1,
    "AVISIT": "BASELINE",
    "AVISITN": 1,
    "ABLFL": "Y",
    "DTYPE": "",
    "ANL01FL": "Y",
    "ANL02FL": "",
    "ANL03FL": "",
    "AGE": 76,
    "AGEGR1": "65-80",
    "SEX": "F",
    "MMSETOT": 24,
    "MMSEGRP": "Mild (20-24)",
    "COMPLFL": "N",
    "SAFFL": "Y",
    "ITTFL": "Y",
    "EFFFL": "Y"
  },
  {
    "STUDYID": "CDISCPILOT01",
    "USUBJID": "01-703-007",
    "TRTP": "Placebo",
    "TRTPN": 0,
    "PARAMCD": "ACTOT11",
    "PARAM": "ADAS-Cog (11) Total Score",
    "AVAL": 35,
    "BASE": 32,
    "CHG": 3,
    "ACAT1": "Worsening",
    "ADT": "2013-03-21",
    "ADY": 29,
    "AVISIT": "WEEK 4",
    "AVISITN": 3,
    "ABLFL": "",
    "DTYPE": "",
    "ANL01FL": "Y",
    "ANL02FL": "",
    "ANL03FL": "",
    "AGE": 76,
    "AGEGR1": "65-80",
    "SEX": "F",
    "MMSETOT": 24,
    "MMSEGRP": "Mild (20-24)",
    "COMPLFL": "N",
    "SAFFL": "Y",
    "ITTFL": "Y",
    "EFFFL": "Y"
  },
  {
    "STUDYID": "CDISCPILOT01",
    "USUBJID": "01-703-007",
    "TRTP": "Placebo",
    "TRTPN": 0,
    "PARAMCD": "ACTOT11",
    "PARAM": "ADAS-Cog (11) Total Score",
    "AVAL": 31,
    "BASE": 32,
    "CHG": -1,
    "ACAT1": "Improvement",
    "ADT": "2013-04-18",
    "ADY": 57,
    "AVISIT": "WEEK 8",
    "AVISITN": 4,
    "ABLFL": "",
    "DTYPE": "",
    "ANL01FL": "Y",
    "ANL02FL": "Y",
    "ANL03FL": "",
    "AGE": 76,
    "AGEGR1": "65-80",
    "SEX": "F",
    "MMSETOT": 24,
    "MMSEGRP": "Mild (20-24)",
    "COMPLFL": "N",
    "SAFFL": "Y",
    "ITTFL": "Y",
    "EFFFL": "Y"
  },
  {
    "STUDYID": "CDISCPILOT01",
    "USUBJID": "01-703-007",
    "TRTP": "Placebo",
    "TRTPN": 0,
    "PARAMCD": "CIBIC",
    "PARAM": "CIBIC+ Global Impression of Change",
    "AVAL": 4,
    "ACAT1": "No Change",
    "ADT": "2013-08-08",
    "ADY": 169,
    "AVISIT": "WEEK 24",
    "AVISITN": 7,
    "ABLFL": "",
    "DTYPE": "",
    "ANL01FL": "Y",
    "ANL02FL": "Y",
    "ANL03FL": "Y",
    "AGE": 76,
    "AGEGR1": "65-80",
    "SEX": "F",
    "MMSETOT": 24,
    "MMSEGRP": "Mild (20-24)",
    "COMPLFL": "N",
    "SAFFL": "Y",
    "ITTFL": "Y",
    "EFFFL": "Y"
  },
  {
    "STUDYID": "CDISCPILOT01",
    "USUBJID": "01-703-008",
    "TRTP": "Xanomeline Low Dose",
    "TRTPN": 1,
    "PARAMCD": "ACTOT11",
    "PARAM": "ADAS-Cog (11) Total Score",
    "AVAL": 36,
    "BASE": 36,
    "CHG": 0,
    "ACAT1": "No Change",
    "ADT": "2014-01-01",
    "ADY": 1,
    "AVISIT": "BASELINE",
    "AVISITN": 1,
    "ABLFL": "Y",
    "DTYPE": "",
    "ANL01FL": "Y",
    "ANL02FL": "",
    "ANL03FL": "",
    "AGE": 54,
    "AGEGR1": "<65",
    "SEX": "F",
    "MMSETOT": 13,
    "MMSEGRP": "Severe (0-14)",
    "COMPLFL": "Y",
    "SAFFL": "Y",
    "ITTFL": "Y",
    "EFFFL": "Y"
  },
  {
    "STUDYID": "CDISCPILOT01",
    "USUBJID": "01-703-008",
    "TRTP": "Xanomeline Low Dose",
    "TRTPN": 1,
    "PARAMCD": "ACTOT11",
    "PARAM": "ADAS-Cog (11) Total Score",
    "AVAL": 34,
    "BASE": 36,
    "CHG": -2,
    "ACAT1": "Improvement",
    "ADT": "2014-01-29",
    "ADY": 29,
    "AVISIT": "WEEK 4",
    "AVISITN": 3,
    "ABLFL": "",
    "DTYPE": "",
    "ANL01FL": "Y",
    "ANL02FL": "",
    "ANL03FL": "",
    "AGE": 54,
    "AGEGR1": "<65",
    "SEX": "F",
    "MMSETOT": 13,
    "MMSEGRP": "Severe (0-14)",
    "COMPLFL": "Y",
    "SAFFL": "Y",
    "ITTFL": "Y",
    "EFFFL": "Y"
  },
  {
    "STUDYID": "CDISCPILOT01",
    "USUBJID": "01-703-008",
    "TRTP": "Xanomeline Low Dose",
    "TRTPN": 1,
    "PARAMCD": "ACTOT11",
    "PARAM": "ADAS-Cog (11) Total Score",
    "AVAL": 40,
    "BASE": 36,
    "CHG": 4,
    "ACAT1": "Marked Worsening",
    "ADT": "2014-02-26",
    "ADY": 57,
    "AVISIT": "WEEK 8",
    "AVISITN": 4,
    "ABLFL": "",
    "DTYPE": "",
    "ANL01FL": "Y",
    "ANL02FL": "",
    "ANL03FL": "",
    "AGE": 54,
    "AGEGR1": "<65",
    "SEX": "F",
    "MMSETOT": 13,
    "MMSEGRP": "Severe (0-14)",
    "COMPLFL": "Y",
    "SAFFL": "Y",
    "ITTFL": "Y",
    "EFFFL": "Y"
  },
  {
    "STUDYID": "CDISCPILOT01",
    "USUBJID": "01-703-008",
    "TRTP": "Xanomeline Low Dose",
    "TRTPN": 1,
    "PARAMCD": "ACTOT11",
    "PARAM": "ADAS-Cog (11) Total Score",
    "AVAL": 40,
    "BASE": 36,
    "CHG": 4,
    "ACAT1": "Marked Worsening",
    "ADT": "2014-03-26",
    "ADY": 85,
    "AVISIT": "WEEK 12",
    "AVISITN": 5,
    "ABLFL": "",
    "DTYPE": "",
    "ANL01FL": "Y",
    "ANL02FL": "",
    "ANL03FL": "",
    "AGE": 54,
    "AGEGR1": "<65",
    "SEX": "F",
    "MMSETOT": 13,
    "MMSEGRP": "Severe (0-14)",
    "COMPLFL": "Y",
    "SAFFL": "Y",
    "ITTFL": "Y",
    "EFFFL": "Y"
  },
  {
    "STUDYID": "CDISCPILOT01",
    "USUBJID": "01-703-008",
    "TRTP": "Xanomeline Low Dose",
    "TRTPN": 1,
    "PARAMCD": "ACTOT11",
    "PARAM": "ADAS-Cog (11) Total Score",
    "AVAL": 38,
    "BASE": 36,
    "CHG": 2,
    "ACAT1": "Worsening",
    "ADT": "2014-06-18",
    "ADY": 169,
    "AVISIT": "WEEK 24",
    "AVISITN": 7,
    "ABLFL": "",
    "DTYPE": "",
    "ANL01FL": "Y",
    "ANL02FL": "Y",
    "ANL03FL": "Y",
    "AGE": 54,
    "AGEGR1": "<65",
    "SEX": "F",
    "MMSETOT": 13,
    "MMSEGRP": "Severe (0-14)",
    "COMPLFL": "Y",
    "SAFFL": "Y",
    "ITTFL": "Y",
    "EFFFL": "Y"
  },
  {
    "STUDYID": "CDISCPILOT01",
    "USUBJID": "01-703-008",
    "TRTP": "Xanomeline Low Dose",
    "TRTPN": 1,
    "PARAMCD": "CIBIC",
    "PARAM": "CIBIC+ Global Impression of Change",
    "AVAL": 4,
    "ACAT1": "No Change",
    "ADT": "2014-06-18",
    "ADY": 169,
    "AVISIT": "WEEK 24",
    "AVISITN": 7,
    "ABLFL": "",
    "DTYPE": "",
    "ANL01FL": "Y",
    "ANL02FL": "Y",
    "ANL03FL": "Y",
    "AGE": 54,
    "AGEGR1": "<65",
    "SEX": "F",
    "MMSETOT": 13,
    "MMSEGRP": "Severe (0-14)",
    "COMPLFL": "Y",
    "SAFFL": "Y",
    "ITTFL": "Y",
    "EFFFL": "Y"
  },
  {
    "STUDYID": "CDISCPILOT01",
    "USUBJID": "01-703-009",
    "TRTP": "Xanomeline High Dose",
    "TRTPN": 2,
    "PARAMCD": "ACTOT11",
    "PARAM": "ADAS-Cog (11) Total Score",
    "AVAL": 11,
    "BASE": 11,
    "CHG": 0,
    "ACAT1": "No Change",
    "ADT": "2013-06-04",
    "ADY": 1,
    "AVISIT": "BASELINE",
    "AVISITN": 1,
    "ABLFL": "Y",
    "DTYPE": "",
    "ANL01FL": "Y",
    "ANL02FL": "",
    "ANL03FL": "",
    "AGE": 75,
    "AGEGR1": "65-80",
    "SEX": "F",
    "MMSETOT": 19,
    "MMSEGRP": "Moderate (15-19)",
    "COMPLFL": "N",
    "SAFFL": "Y",
    "ITTFL": "Y",
    "EFFFL": "Y"
  },
  {
    "STUDYID": "CDISCPILOT01",
    "USUBJID": "01-703-009",
    "TRTP": "Xanomeline High Dose",
    "TRTPN": 2,
    "PARAMCD": "ACTOT11",
    "PARAM": "ADAS-Cog (11) Total Score",
    "AVAL": 10,
    "BASE": 11,
    "CHG": -1,
    "ACAT1": "Improvement",
    "ADT": "2013-07-02",
    "ADY": 29,
    "AVISIT": "WEEK 4",
    "AVISITN": 3,
    "ABLFL": "",
    "DTYPE": "",
    "ANL01FL": "Y",
    "ANL02FL": "Y",
    "ANL03FL": "",
    "AGE": 75,
    "AGEGR1": "65-80",
    "SEX": "F",
    "MMSETOT": 19,
    "MMSEGRP": "Moderate (15-19)",
    "COMPLFL": "N",
    "SAFFL": "Y",
    "ITTFL": "Y",
    "EFFFL": "Y"
  },
  {
    "STUDYID": "CDISCPILOT01",
    "USUBJID": "01-703-009",
    "TRTP": "Xanomeline High Dose",
    "TRTPN": 2,
    "PARAMCD": "CIBIC",
    "PARAM": "CIBIC+ Global Impression of Change",
    "AVAL": 5,
    "ACAT1": "Worsened",
    "ADT": "2013-11-19",
    "ADY": 169,
    "AVISIT": "WEEK 24",
    "AVISITN": 7,
    "ABLFL": "",
    "DTYPE": "",
    "ANL01FL": "Y",
    "ANL02FL": "Y",
    "ANL03FL": "Y",
    "AGE": 75,
    "AGEGR1": "65-80",
    "SEX": "F",
    "MMSETOT": 19,
    "MMSEGRP": "Moderate (15-19)",
    "COMPLFL": "N",
    "SAFFL": "Y",
    "ITTFL": "Y",
    "EFFFL": "Y"
  },
  {
    "STUDYID": "CDISCPILOT01",
    "USUBJID": "01-703-010",
    "TRTP": "Placebo",
    "TRTPN": 0,
    "PARAMCD": "ACTOT11",
    "PARAM": "ADAS-Cog (11) Total Score",
    "AVAL": 35,
    "BASE": 35,
    "CHG": 0,
    "ACAT1": "No Change",
    "ADT": "2013-07-02",
    "ADY": 1,
    "AVISIT": "BASELINE",
    "AVISITN": 1,
    "ABLFL": "Y",
    "DTYPE": "",
    "ANL01FL": "Y",
    "ANL02FL": "Y",
    "ANL03FL": "",
    "AGE": 68,
    "AGEGR1": "65-80",
    "SEX": "M",
    "MMSETOT": 11,
    "MMSEGRP": "Severe (0-14)",
    "COMPLFL": "N",
    "SAFFL": "Y",
    "ITTFL": "Y",
    "EFFFL": "Y"
  },
  {
    "STUDYID": "CDISCPILOT01",
    "USUBJID": "01-703-010",
    "TRTP": "Placebo",
    "TRTPN": 0,
    "PARAMCD": "CIBIC",
    "PARAM": "CIBIC+ Global Impression of Change",
    "AVAL": 4,
    "ACAT1": "No Change",
    "ADT": "2013-12-17",
    "ADY": 169,
    "AVISIT": "WEEK 24",
    "AVISITN": 7,
    "ABLFL": "",
    "DTYPE": "",
    "ANL01FL": "Y",
    "ANL02FL": "Y",
    "ANL03FL": "Y",
    "AGE": 68,
    "AGEGR1": "65-80",
    "SEX": "M",
    "MMSETOT": 11,
    "MMSEGRP": "Severe (0-14)",
    "COMPLFL": "N",
    "SAFFL": "Y",
    "ITTFL": "Y",
    "EFFFL": "Y"
  },
  {
    "STUDYID": "CDISCPILOT01",
    "USUBJID": "01-703-011",
    "TRTP": "Xanomeline High Dose",
    "TRTPN": 2,
    "PARAMCD": "ACTOT11",
    "PARAM": "ADAS-Cog (11) Total Score",
    "AVAL": 23,
    "BASE": 23,
    "CHG": 0,
    "ACAT1": "No Change",
    "ADT": "2013-12-22",
    "ADY": 1,
    "AVISIT": "BASELINE",
    "AVISITN": 1,
    "ABLFL": "Y",
    "DTYPE": "",
    "ANL01FL": "Y",
    "ANL02FL": "",
    "ANL03FL": "",
    "AGE": 89,
    "AGEGR1": ">80",
    "SEX": "M",
    "MMSETOT": 15,
    "MMSEGRP": "Moderate (15-19)",
    "COMPLFL": "Y",
    "SAFFL": "Y",
    "ITTFL": "Y",
    "EFFFL": "Y"
  },
  {
    "STUDYID": "CDISCPILOT01",
    "USUBJID": "01-703-011",
    "TRTP": "Xanomeline High Dose",
    "TRTPN": 2,
    "PARAMCD": "ACTOT11",
    "PARAM": "ADAS-Cog (11) Total Score",
    "AVAL": 24,
    "BASE": 23,
    "CHG": 1,
    "ACAT1": "Worsening",
    "ADT": "2014-01-19",
    "ADY": 29,
    "AVISIT": "WEEK 4",
    "AVISITN": 3,
    "ABLFL": "",
    "DTYPE": "",
    "ANL01FL": "Y",
    "ANL02FL": "",
    "ANL03FL": "",
    "AGE": 89,
    "AGEGR1": ">80",
    "SEX": "M",
    "MMSETOT": 15,
    "MMSEGRP": "Moderate (15-19)",
    "COMPLFL": "Y",
    "SAFFL": "Y",
    "ITTFL": "Y",
    "EFFFL": "Y"
  },
  {
    "STUDYID": "CDISCPILOT01",
    "USUBJID": "01-703-011",
    "TRTP": "Xanomeline High Dose",
    "TRTPN": 2,
    "PARAMCD": "ACTOT11",
    "PARAM": "ADAS-Cog (11) Total Score",
    "AVAL": 20,
    "BASE": 23,
    "CHG": -3,
    "ACAT1": "Improvement",
    "ADT": "2014-02-16",
    "ADY": 57,
    "AVISIT": "WEEK 8",
    "AVISITN": 4,
    "ABLFL": "",
    "DTYPE": "",
    "ANL01FL": "Y",
    "ANL02FL": "",
    "ANL03FL": "",
    "AGE": 89,
    "AGEGR1": ">80",
    "SEX": "M",
    "MMSETOT": 15,
    "MMSEGRP": "Moderate (15-19)",
    "COMPLFL": "Y",
    "SAFFL": "Y",
    "ITTFL": "Y",
    "EFFFL": "Y"
  },
  {
    "STUDYID": "CDISCPILOT01",
    "USUBJID": "01-703-011",
    "TRTP": "Xanomeline High Dose",
    "TRTPN": 2,
    "PARAMCD": "ACTOT11",
    "PARAM": "ADAS-Cog (11) Total Score",
    "AVAL": 22,
    "BASE": 23,
    "CHG": -1,
    "ACAT1": "Improvement",
    "ADT": "2014-03-16",
    "ADY": 85,
    "AVISIT": "WEEK 12",
    "AVISITN": 5,
    "ABLFL": "",
    "DTYPE": "",
    "ANL01FL": "Y",
    "ANL02FL": "",
    "ANL03FL": "",
    "AGE": 89,
    "AGEGR1": ">80",
    "SEX": "M",
    "MMSETOT": 15,
    "MMSEGRP": "Moderate (15-19)",
    "COMPLFL": "Y",
    "SAFFL": "Y",
    "ITTFL": "Y",
    "EFFFL": "Y"
  },
  {
    "STUDYID": "CDISCPILOT01",
    "USUBJID": "01-703-011",
    "TRTP": "Xanomeline High Dose",
    "TRTPN": 2,
    "PARAMCD": "ACTOT11",
    "PARAM": "ADAS-Cog (11) Total Score",
    "AVAL": 32,
    "BASE": 23,
    "CHG": 9,
    "ACAT1": "Marked Worsening",
    "ADT": "2014-06-08",
    "ADY": 169,
    "AVISIT": "WEEK 24",
    "AVISITN": 7,
    "ABLFL": "",
    "DTYPE": "",
    "ANL01FL": "Y",
    "ANL02FL": "Y",
    "ANL03FL": "Y",
    "AGE": 89,
    "AGEGR1": ">80",
    "SEX": "M",
    "MMSETOT": 15,
    "MMSEGRP": "Moderate (15-19)",
    "COMPLFL": "Y",
    "SAFFL": "Y",
    "ITTFL": "Y",
    "EFFFL": "Y"
  },
  {
    "STUDYID": "CDISCPILOT01",
    "USUBJID": "01-703-011",
    "TRTP": "Xanomeline High Dose",
    "TRTPN": 2,
    "PARAMCD": "CIBIC",
    "PARAM": "CIBIC+ Global Impression of Change",
    "AVAL": 3,
    "ACAT1": "Improved",
    "ADT": "2014-06-08",
    "ADY": 169,
    "AVISIT": "WEEK 24",
    "AVISITN": 7,
    "ABLFL": "",
    "DTYPE": "",
    "ANL01FL": "Y",
    "ANL02FL": "Y",
    "ANL03FL": "Y",
    "AGE": 89,
    "AGEGR1": ">80",
    "SEX": "M",
    "MMSETOT": 15,
    "MMSEGRP": "Moderate (15-19)",
    "COMPLFL": "Y",
    "SAFFL": "Y",
    "ITTFL": "Y",
    "EFFFL": "Y"
  },
  {
    "STUDYID": "CDISCPILOT01",
    "USUBJID": "01-703-012",
    "TRTP": "Xanomeline High Dose",
    "TRTPN": 2,
    "PARAMCD": "ACTOT11",
    "PARAM": "ADAS-Cog (11) Total Score",
    "AVAL": 30,
    "BASE": 30,
    "CHG": 0,
    "ACAT1": "No Change",
    "ADT": "2013-02-06",
    "ADY": 1,
    "AVISIT": "BASELINE",
    "AVISITN": 1,
    "ABLFL": "Y",
    "DTYPE": "",
    "ANL01FL": "Y",
    "ANL02FL": "Y",
    "ANL03FL": "",
    "AGE": 70,
    "AGEGR1": "65-80",
    "SEX": "F",
    "MMSETOT": 20,
    "MMSEGRP": "Mild (20-24)",
    "COMPLFL": "N",
    "SAFFL": "Y",
    "ITTFL": "Y",
    "EFFFL": "Y"
  },
  {
    "STUDYID": "CDISCPILOT01",
    "USUBJID": "01-703-012",
    "TRTP": "Xanomeline High Dose",
    "TRTPN": 2,
    "PARAMCD": "CIBIC",
    "PARAM": "CIBIC+ Global Impression of Change",
    "AVAL": 5,
    "ACAT1": "Worsened",
    "ADT": "2013-07-24",
    "ADY": 169,
    "AVISIT": "WEEK 24",
    "AVISITN": 7,
    "ABLFL": "",
    "DTYPE": "",
    "ANL01FL": "Y",
    "ANL02FL": "Y",
    "ANL03FL": "Y",
    "AGE": 70,
    "AGEGR1": "65-80",
    "SEX": "F",
    "MMSETOT": 20,
    "MMSEGRP": "Mild (20-24)",
    "COMPLFL": "N",
    "SAFFL": "Y",
    "ITTFL": "Y",
    "EFFFL": "Y"
  },
  {
    "STUDYID": "CDISCPILOT01",
    "USUBJID": "01-703-013",
    "TRTP": "Xanomeline Low Dose",
    "TRTPN": 1,
    "PARAMCD": "ACTOT11",
    "PARAM": "ADAS-Cog (11) Total Score",
    "AVAL": 12,
    "BASE": 12,
    "CHG": 0,
    "ACAT1": "No Change",
    "ADT": "2013-04-28",
    "ADY": 1,
    "AVISIT": "BASELINE",
    "AVISITN": 1,
    "ABLFL": "Y",
    "DTYPE": "",
    "ANL01FL": "Y",
    "ANL02FL": "",
    "ANL03FL": "",
    "AGE": 78,
    "AGEGR1": "65-80",
    "SEX": "M",
    "MMSETOT": 14,
    "MMSEGRP": "Severe (0-14)",
    "COMPLFL": "N",
    "SAFFL": "Y",
    "ITTFL": "Y",
    "EFFFL": "Y"
  },
  {
    "STUDYID": "CDISCPILOT01",
    "USUBJID": "01-703-013",
    "TRTP": "Xanomeline Low Dose",
    "TRTPN": 1,
    "PARAMCD": "ACTOT11",
    "PARAM": "ADAS-Cog (11) Total Score",
    "AVAL": 14,
    "BASE": 12,
    "CHG": 2,
    "ACAT1": "Worsening",
    "ADT": "2013-05-26",
    "ADY": 29,
    "AVISIT": "WEEK 4",
    "AVISITN": 3,
    "ABLFL": "",
    "DTYPE": "",
    "ANL01FL": "Y",
    "ANL02FL": "",
    "ANL03FL": "",
    "AGE": 78,
    "AGEGR1": "65-80",
    "SEX": "M",
    "MMSETOT": 14,
    "MMSEGRP": "Severe (0-14)",
    "COMPLFL": "N",
    "SAFFL": "Y",
    "ITTFL": "Y",
    "EFFFL": "Y"
  },
  {
    "STUDYID": "CDISCPILOT01",
    "USUBJID": "01-703-013",
    "TRTP": "Xanomeline Low Dose",
    "TRTPN": 1,
    "PARAMCD": "ACTOT11",
    "PARAM": "ADAS-Cog (11) Total Score",
    "AVAL": 14,
    "BASE": 12,
    "CHG": 2,
    "ACAT1": "Worsening",
    "ADT": "2013-06-23",
    "ADY": 57,
    "AVISIT": "WEEK 8",
    "AVISITN": 4,
    "ABLFL": "",
    "DTYPE": "",
    "ANL01FL": "Y",
    "ANL02FL": "",
    "ANL03FL": "",
    "AGE": 78,
    "AGEGR1": "65-80",
    "SEX": "M",
    "MMSETOT": 14,
    "MMSEGRP": "Severe (0-14)",
    "COMPLFL": "N",
    "SAFFL": "Y",
    "ITTFL": "Y",
    "EFFFL": "Y"
  },
  {
    "STUDYID": "CDISCPILOT01",
    "USUBJID": "01-703-013",
    "TRTP": "Xanomeline Low Dose",
    "TRTPN": 1,
    "PARAMCD": "ACTOT11",
    "PARAM": "ADAS-Cog (11) Total Score",
    "AVAL": 14,
    "BASE": 12,
    "CHG": 2,
    "ACAT1": "Worsening",
    "ADT": "2013-07-21",
    "ADY": 85,
    "AVISIT": "WEEK 12",
    "AVISITN": 5,
    "ABLFL": "",
    "DTYPE": "",
    "ANL01FL": "Y",
    "ANL02FL": "Y",
    "ANL03FL": "",
    "AGE": 78,
    "AGEGR1": "65-80",
    "SEX": "M",
    "MMSETOT": 14,
    "MMSEGRP": "Severe (0-14)",
    "COMPLFL": "N",
    "SAFFL": "Y",
    "ITTFL": "Y",
    "EFFFL": "Y"
  },
  {
    "STUDYID": "CDISCPILOT01",
    "USUBJID": "01-703-013",
    "TRTP": "Xanomeline Low Dose",
    "TRTPN": 1,
    "PARAMCD": "CIBIC",
    "PARAM": "CIBIC+ Global Impression of Change",
    "AVAL": 6,
    "ACAT1": "Worsened",
    "ADT": "2013-10-13",
    "ADY": 169,
    "AVISIT": "WEEK 24",
    "AVISITN": 7,
    "ABLFL": "",
    "DTYPE": "",
    "ANL01FL": "Y",
    "ANL02FL": "Y",
    "ANL03FL": "Y",
    "AGE": 78,
    "AGEGR1": "65-80",
    "SEX": "M",
    "MMSETOT": 14,
    "MMSEGRP": "Severe (0-14)",
    "COMPLFL": "N",
    "SAFFL": "Y",
    "ITTFL": "Y",
    "EFFFL": "Y"
  },
  {
    "STUDYID": "CDISCPILOT01",
    "USUBJID": "01-703-014",
    "TRTP": "Xanomeline Low Dose",
    "TRTPN": 1,
    "PARAMCD": "ACTOT11",
    "PARAM": "ADAS-Cog (11) Total Score",
    "AVAL": 5,
    "BASE": 5,
    "CHG": 0,
    "ACAT1": "No Change",
    "ADT": "2013-07-17",
    "ADY": 1,
    "AVISIT": "BASELINE",
    "AVISITN": 1,
    "ABLFL": "Y",
    "DTYPE": "",
    "ANL01FL": "Y",
    "ANL02FL": "",
    "ANL03FL": "",
    "AGE": 70,
    "AGEGR1": "65-80",
    "SEX": "F",
    "MMSETOT": 24,
    "MMSEGRP": "Mild (20-24)",
    "COMPLFL": "N",
    "SAFFL": "Y",
    "ITTFL": "Y",
    "EFFFL": "Y"
  },
  {
    "STUDYID": "CDISCPILOT01",
    "USUBJID": "01-703-014",
    "TRTP": "Xanomeline Low Dose",
    "TRTPN": 1,
    "PARAMCD": "ACTOT11",
    "PARAM": "ADAS-Cog (11) Total Score",
    "AVAL": 3,
    "BASE": 5,
    "CHG": -2,
    "ACAT1": "Improvement",
    "ADT": "2013-08-14",
    "ADY": 29,
    "AVISIT": "WEEK 4",
    "AVISITN": 3,
    "ABLFL": "",
    "DTYPE": "",
    "ANL01FL": "Y",
    "ANL02FL": "Y",
    "ANL03FL": "",
    "AGE": 70,
    "AGEGR1": "65-80",
    "SEX": "F",
    "MMSETOT": 24,
    "MMSEGRP": "Mild (20-24)",
    "COMPLFL": "N",
    "SAFFL": "Y",
    "ITTFL": "Y",
    "EFFFL": "Y"
  },
  {
    "STUDYID": "CDISCPILOT01",
    "USUBJID": "01-703-014",
    "TRTP": "Xanomeline Low Dose",
    "TRTPN": 1,
    "PARAMCD": "CIBIC",
    "PARAM": "CIBIC+ Global Impression of Change",
    "AVAL": 4,
    "ACAT1": "No Change",
    "ADT": "2014-01-01",
    "ADY": 169,
    "AVISIT": "WEEK 24",
    "AVISITN": 7,
    "ABLFL": "",
    "DTYPE": "",
    "ANL01FL": "Y",
    "ANL02FL": "Y",
    "ANL03FL": "Y",
    "AGE": 70,
    "AGEGR1": "65-80",
    "SEX": "F",
    "MMSETOT": 24,
    "MMSEGRP": "Mild (20-24)",
    "COMPLFL": "N",
    "SAFFL": "Y",
    "ITTFL": "Y",
    "EFFFL": "Y"
  },
  {
    "STUDYID": "CDISCPILOT01",
    "USUBJID": "01-703-015",
    "TRTP": "Xanomeline Low Dose",
    "TRTPN": 1,
    "PARAMCD": "ACTOT11",
    "PARAM": "ADAS-Cog (11) Total Score",
    "AVAL": 26,
    "BASE": 26,
    "CHG": 0,
    "ACAT1": "No Change",
    "ADT": "2013-02-11",
    "ADY": 1,
    "AVISIT": "BASELINE",
    "AVISITN": 1,
    "ABLFL": "Y",
    "DTYPE": "",
    "ANL01FL": "Y",
    "ANL02FL": "",
    "ANL03FL": "",
    "AGE": 87,
    "AGEGR1": ">80",
    "SEX": "F",
    "MMSETOT": 21,
    "MMSEGRP": "Mild (20-24)",
    "COMPLFL": "Y",
    "SAFFL": "Y",
    "ITTFL": "Y",
    "EFFFL": "Y"
  },
  {
    "STUDYID": "CDISCPILOT01",
    "USUBJID": "01-703-015",
    "TRTP": "Xanomeline Low Dose",
    "TRTPN": 1,
    "PARAMCD": "ACTOT11",
    "PARAM": "ADAS-Cog (11) Total Score",
    "AVAL": 22,
    "BASE": 26,
    "CHG": -4,
    "ACAT1": "Marked Improvement",
    "ADT": "2013-03-11",
    "ADY": 29,
    "AVISIT": "WEEK 4",
    "AVISITN": 3,
    "ABLFL": "",
    "DTYPE": "",
    "ANL01FL": "Y",
    "ANL02FL": "",
    "ANL03FL": "",
    "AGE": 87,
    "AGEGR1": ">80",
    "SEX": "F",
    "MMSETOT": 21,
    "MMSEGRP": "Mild (20-24)",
    "COMPLFL": "Y",
    "SAFFL": "Y",
    "ITTFL": "Y",
    "EFFFL": "Y"
  },
  {
    "STUDYID": "CDISCPILOT01",
    "USUBJID": "01-703-015",
    "TRTP": "Xanomeline Low Dose",
    "TRTPN": 1,
    "PARAMCD": "ACTOT11",
    "PARAM": "ADAS-Cog (11) Total Score",
    "AVAL": 30,
    "BASE": 26,
    "CHG": 4,
    "ACAT1": "Marked Worsening",
    "ADT": "2013-04-08",
    "ADY": 57,
    "AVISIT": "WEEK 8",
    "AVISITN": 4,
    "ABLFL": "",
    "DTYPE": "",
    "ANL01FL": "Y",
    "ANL02FL": "",
    "ANL03FL": "",
    "AGE": 87,
    "AGEGR1": ">80",
    "SEX": "F",
    "MMSETOT": 21,
    "MMSEGRP": "Mild (20-24)",
    "COMPLFL": "Y",
    "SAFFL": "Y",
    "ITTFL": "Y",
    "EFFFL": "Y"
  },
  {
    "STUDYID": "CDISCPILOT01",
    "USUBJID": "01-703-015",
    "TRTP": "Xanomeline Low Dose",
    "TRTPN": 1,
    "PARAMCD": "ACTOT11",
    "PARAM": "ADAS-Cog (11) Total Score",
    "AVAL": 24,
    "BASE": 26,
    "CHG": -2,
    "ACAT1": "Improvement",
    "ADT": "2013-05-06",
    "ADY": 85,
    "AVISIT": "WEEK 12",
    "AVISITN": 5,
    "ABLFL": "",
    "DTYPE": "",
    "ANL01FL": "Y",
    "ANL02FL": "",
    "ANL03FL": "",
    "AGE": 87,
    "AGEGR1": ">80",
    "SEX": "F",
    "MMSETOT": 21,
    "MMSEGRP": "Mild (20-24)",
    "COMPLFL": "Y",
    "SAFFL": "Y",
    "ITTFL": "Y",
    "EFFFL": "Y"
  },
  {
    "STUDYID": "CDISCPILOT01",
    "USUBJID": "01-703-015",
    "TRTP": "Xanomeline Low Dose",
    "TRTPN": 1,
    "PARAMCD": "ACTOT11",
    "PARAM": "ADAS-Cog (11) Total Score",
    "AVAL": 34,
    "BASE": 26,
    "CHG": 8,
    "ACAT1": "Marked Worsening",
    "ADT": "2013-07-29",
    "ADY": 169,
    "AVISIT": "WEEK 24",
    "AVISITN": 7,
    "ABLFL": "",
    "DTYPE": "",
    "ANL01FL": "Y",
    "ANL02FL": "Y",
    "ANL03FL": "Y",
    "AGE": 87,
    "AGEGR1": ">80",
    "SEX": "F",
    "MMSETOT": 21,
    "MMSEGRP": "Mild (20-24)",
    "COMPLFL": "Y",
    "SAFFL": "Y",
    "ITTFL": "Y",
    "EFFFL": "Y"
  },
  {
    "STUDYID": "CDISCPILOT01",
    "USUBJID": "01-703-015",
    "TRTP": "Xanomeline Low Dose",
    "TRTPN": 1,
    "PARAMCD": "CIBIC",
    "PARAM": "CIBIC+ Global Impression of Change",
    "AVAL": 5,
    "ACAT1": "Worsened",
    "ADT": "2013-07-29",
    "ADY": 169,
    "AVISIT": "WEEK 24",
    "AVISITN": 7,
    "ABLFL": "",
    "DTYPE": "",
    "ANL01FL": "Y",
    "ANL02FL": "Y",
    "ANL03FL": "Y",
    "AGE": 87,
    "AGEGR1": ">80",
    "SEX": "F",
    "MMSETOT": 21,
    "MMSEGRP": "Mild (20-24)",
    "COMPLFL": "Y",
    "SAFFL": "Y",
    "ITTFL": "Y",
    "EFFFL": "Y"
  },
  {
    "STUDYID": "CDISCPILOT01",
    "USUBJID": "01-703-016",
    "TRTP": "Placebo",
    "TRTPN": 0,
    "PARAMCD": "ACTOT11",
    "PARAM": "ADAS-Cog (11) Total Score",
    "AVAL": 23,
    "BASE": 23,
    "CHG": 0,
    "ACAT1": "No Change",
    "ADT": "2013-05-02",
    "ADY": 1,
    "AVISIT": "BASELINE",
    "AVISITN": 1,
    "ABLFL": "Y",
    "DTYPE": "",
    "ANL01FL": "Y",
    "ANL02FL": "",
    "ANL03FL": "",
    "AGE": 85,
    "AGEGR1": ">80",
    "SEX": "F",
    "MMSETOT": 21,
    "MMSEGRP": "Mild (20-24)",
    "COMPLFL": "N",
    "SAFFL": "Y",
    "ITTFL": "Y",
    "EFFFL": "Y"
  },
  {
    "STUDYID": "CDISCPILOT01",
    "USUBJID": "01-703-016",
    "TRTP": "Placebo",
    "TRTPN": 0,
    "PARAMCD": "ACTOT11",
    "PARAM": "ADAS-Cog (11) Total Score",
    "AVAL": 26,
    "BASE": 23,
    "CHG": 3,
    "ACAT1": "Worsening",
    "ADT": "2013-05-30",
    "ADY": 29,
    "AVISIT": "WEEK 4",
    "AVISITN": 3,
    "ABLFL": "",
    "DTYPE": "",
    "ANL01FL": "Y",
    "ANL02FL": "",
    "ANL03FL": "",
    "AGE": 85,
    "AGEGR1": ">80",
    "SEX": "F",
    "MMSETOT": 21,
    "MMSEGRP": "Mild (20-24)",
    "COMPLFL": "N",
    "SAFFL": "Y",
    "ITTFL": "Y",
    "EFFFL": "Y"
  },
  {
    "STUDYID": "CDISCPILOT01",
    "USUBJID": "01-703-016",
    "TRTP": "Placebo",
    "TRTPN": 0,
    "PARAMCD": "ACTOT11",
    "PARAM": "ADAS-Cog (11) Total Score",
    "AVAL": 25,
    "BASE": 23,
    "CHG": 2,
    "ACAT1": "Worsening",
    "ADT": "2013-06-27",
    "ADY": 57,
    "AVISIT": "WEEK 8",
    "AVISITN": 4,
    "ABLFL": "",
    "DTYPE": "",
    "ANL01FL": "Y",
    "ANL02FL": "",
    "ANL03FL": "",
    "AGE": 85,
    "AGEGR1": ">80",
    "SEX": "F",
    "MMSETOT": 21,
    "MMSEGRP": "Mild (20-24)",
    "COMPLFL": "N",
    "SAFFL": "Y",
    "ITTFL": "Y",
    "EFFFL": "Y"
  },
  {
    "STUDYID": "CDISCPILOT01",
    "USUBJID": "01-703-016",
    "TRTP": "Placebo",
    "TRTPN": 0,
    "PARAMCD": "ACTOT11",
    "PARAM": "ADAS-Cog (11) Total Score",
    "AVAL": 23,
    "BASE": 23,
    "CHG": 0,
    "ACAT1": "No Change",
    "ADT": "2013-07-25",
    "ADY": 85,
    "AVISIT": "WEEK 12",
    "AVISITN": 5,
    "ABLFL": "",
    "DTYPE": "",
    "ANL01FL": "Y",
    "ANL02FL": "Y",
    "ANL03FL": "",
    "AGE": 85,
    "AGEGR1": ">80",
    "SEX": "F",
    "MMSETOT": 21,
    "MMSEGRP": "Mild (20-24)",
    "COMPLFL": "N",
    "SAFFL": "Y",
    "ITTFL": "Y",
    "EFFFL": "Y"
  },
  {
    "STUDYID": "CDISCPILOT01",
    "USUBJID": "01-703-016",
    "TRTP": "Placebo",
    "TRTPN": 0,
    "PARAMCD": "CIBIC",
    "PARAM": "CIBIC+ Global Impression of Change",
    "AVAL": 6,
    "ACAT1": "Worsened",
    "ADT": "2013-10-17",
    "ADY": 169,
    "AVISIT": "WEEK 24",
    "AVISITN": 7,
    "ABLFL": "",
    "DTYPE": "",
    "ANL01FL": "Y",
    "ANL02FL": "Y",
    "ANL03FL": "Y",
    "AGE": 85,
    "AGEGR1": ">80",
    "SEX": "F",
    "MMSETOT": 21,
    "MMSEGRP": "Mild (20-24)",
    "COMPLFL": "N",
    "SAFFL": "Y",
    "ITTFL": "Y",
    "EFFFL": "Y"
  },
  {
    "STUDYID": "CDISCPILOT01",
    "USUBJID": "01-703-017",
    "TRTP": "Xanomeline Low Dose",
    "TRTPN": 1,
    "PARAMCD": "ACTOT11",
    "PARAM": "ADAS-Cog (11) Total Score",
    "AVAL": 26,
    "BASE": 26,
    "CHG": 0,
    "ACAT1": "No Change",
    "ADT": "2013-11-18",
    "ADY": 1,
    "AVISIT": "BASELINE",
    "AVISITN": 1,
    "ABLFL": "Y",
    "DTYPE": "",
    "ANL01FL": "Y",
    "ANL02FL": "",
    "ANL03FL": "",
    "AGE": 61,
    "AGEGR1": "<65",
    "SEX": "F",
    "MMSETOT": 18,
    "MMSEGRP": "Moderate (15-19)",
    "COMPLFL": "N",
    "SAFFL": "Y",
    "ITTFL": "Y",
    "EFFFL": "Y"
  },
  {
    "STUDYID": "CDISCPILOT01",
    "USUBJID": "01-703-017",
    "TRTP": "Xanomeline Low Dose",
    "TRTPN": 1,
    "PARAMCD": "ACTOT11",
    "PARAM": "ADAS-Cog (11) Total Score",
    "AVAL": 27,
    "BASE": 26,
    "CHG": 1,
    "ACAT1": "Worsening",
    "ADT": "2013-12-16",
    "ADY": 29,
    "AVISIT": "WEEK 4",
    "AVISITN": 3,
    "ABLFL": "",
    "DTYPE": "",
    "ANL01FL": "Y",
    "ANL02FL": "Y",
    "ANL03FL": "",
    "AGE": 61,
    "AGEGR1": "<65",
    "SEX": "F",
    "MMSETOT": 18,
    "MMSEGRP": "Moderate (15-19)",
    "COMPLFL": "N",
    "SAFFL": "Y",
    "ITTFL": "Y",
    "EFFFL": "Y"
  },
  {
    "STUDYID": "CDISCPILOT01",
    "USUBJID": "01-703-017",
    "TRTP": "Xanomeline Low Dose",
    "TRTPN": 1,
    "PARAMCD": "CIBIC",
    "PARAM": "CIBIC+ Global Impression of Change",
    "AVAL": 5,
    "ACAT1": "Worsened",
    "ADT": "2014-05-05",
    "ADY": 169,
    "AVISIT": "WEEK 24",
    "AVISITN": 7,
    "ABLFL": "",
    "DTYPE": "",
    "ANL01FL": "Y",
    "ANL02FL": "Y",
    "ANL03FL": "Y",
    "AGE": 61,
    "AGEGR1": "<65",
    "SEX": "F",
    "MMSETOT": 18,
    "MMSEGRP": "Moderate (15-19)",
    "COMPLFL": "N",
    "SAFFL": "Y",
    "ITTFL": "Y",
    "EFFFL": "Y"
  },
  {
    "STUDYID": "CDISCPILOT01",
    "USUBJID": "01-703-018",
    "TRTP": "Xanomeline Low Dose",
    "TRTPN": 1,
    "PARAMCD": "ACTOT11",
    "PARAM": "ADAS-Cog (11) Total Score",
    "AVAL": 32,
    "BASE": 32,
    "CHG": 0,
    "ACAT1": "No Change",
    "ADT": "2013-08-23",
    "ADY": 1,
    "AVISIT": "BASELINE",
    "AVISITN": 1,
    "ABLFL": "Y",
    "DTYPE": "",
    "ANL01FL": "Y",
    "ANL02FL": "",
    "ANL03FL": "",
    "AGE": 75,
    "AGEGR1": "65-80",
    "SEX": "M",
    "MMSETOT": 13,
    "MMSEGRP": "Severe (0-14)",
    "COMPLFL": "N",
    "SAFFL": "Y",
    "ITTFL": "Y",
    "EFFFL": "Y"
  },
  {
    "STUDYID": "CDISCPILOT01",
    "USUBJID": "01-703-018",
    "TRTP": "Xanomeline Low Dose",
    "TRTPN": 1,
    "PARAMCD": "ACTOT11",
    "PARAM": "ADAS-Cog (11) Total Score",
    "AVAL": 37,
    "BASE": 32,
    "CHG": 5,
    "ACAT1": "Marked Worsening",
    "ADT": "2013-09-20",
    "ADY": 29,
    "AVISIT": "WEEK 4",
    "AVISITN": 3,
    "ABLFL": "",
    "DTYPE": "",
    "ANL01FL": "Y",
    "ANL02FL": "Y",
    "ANL03FL": "",
    "AGE": 75,
    "AGEGR1": "65-80",
    "SEX": "M",
    "MMSETOT": 13,
    "MMSEGRP": "Severe (0-14)",
    "COMPLFL": "N",
    "SAFFL": "Y",
    "ITTFL": "Y",
    "EFFFL": "Y"
  },
  {
    "STUDYID": "CDISCPILOT01",
    "USUBJID": "01-703-018",
    "TRTP": "Xanomeline Low Dose",
    "TRTPN": 1,
    "PARAMCD": "CIBIC",
    "PARAM": "CIBIC+ Global Impression of Change",
    "AVAL": 5,
    "ACAT1": "Worsened",
    "ADT": "2014-02-07",
    "ADY": 169,
    "AVISIT": "WEEK 24",
    "AVISITN": 7,
    "ABLFL": "",
    "DTYPE": "",
    "ANL01FL": "Y",
    "ANL02FL": "Y",
    "ANL03FL": "Y",
    "AGE": 75,
    "AGEGR1": "65-80",
    "SEX": "M",
    "MMSETOT": 13,
    "MMSEGRP": "Severe (0-14)",
    "COMPLFL": "N",
    "SAFFL": "Y",
    "ITTFL": "Y",
    "EFFFL": "Y"
  },
  {
    "STUDYID": "CDISCPILOT01",
    "USUBJID": "01-703-019",
    "TRTP": "Xanomeline High Dose",
    "TRTPN": 2,
    "PARAMCD": "ACTOT11",
    "PARAM": "ADAS-Cog (11) Total Score",
    "AVAL": 5,
    "BASE": 5,
    "CHG": 0,
    "ACAT1": "No Change",
    "ADT": "2013-11-03",
    "ADY": 1,
    "AVISIT": "BASELINE",
    "AVISITN": 1,
    "ABLFL": "Y",
    "DTYPE": "",
    "ANL01FL": "Y",
    "ANL02FL": "",
    "ANL03FL": "",
    "AGE": 62,
    "AGEGR1": "<65",
    "SEX": "F",
    "MMSETOT": 17,
    "MMSEGRP": "Moderate (15-19)",
    "COMPLFL": "Y",
    "SAFFL": "Y",
    "ITTFL": "Y",
    "EFFFL": "Y"
  },
  {
    "STUDYID": "CDISCPILOT01",
    "USUBJID": "01-703-019",
    "TRTP": "Xanomeline High Dose",
    "TRTPN": 2,
    "PARAMCD": "ACTOT11",
    "PARAM": "ADAS-Cog (11) Total Score",
    "AVAL": 7,
    "BASE": 5,
    "CHG": 2,
    "ACAT1": "Worsening",
    "ADT": "2013-12-01",
    "ADY": 29,
    "AVISIT": "WEEK 4",
    "AVISITN": 3,
    "ABLFL": "",
    "DTYPE": "",
    "ANL01FL": "Y",
    "ANL02FL": "",
    "ANL03FL": "",
    "AGE": 62,
    "AGEGR1": "<65",
    "SEX": "F",
    "MMSETOT": 17,
    "MMSEGRP": "Moderate (15-19)",
    "COMPLFL": "Y",
    "SAFFL": "Y",
    "ITTFL": "Y",
    "EFFFL": "Y"
  },
  {
    "STUDYID": "CDISCPILOT01",
    "USUBJID": "01-703-019",
    "TRTP": "Xanomeline High Dose",
    "TRTPN": 2,
    "PARAMCD": "ACTOT11",
    "PARAM": "ADAS-Cog (11) Total Score",
    "AVAL": 7,
    "BASE": 5,
    "CHG": 2,
    "ACAT1": "Worsening",
    "ADT": "2013-12-29",
    "ADY": 57,
    "AVISIT": "WEEK 8",
    "AVISITN": 4,
    "ABLFL": "",
    "DTYPE": "",
    "ANL01FL": "Y",
    "ANL02FL": "",
    "ANL03FL": "",
    "AGE": 62,
    "AGEGR1": "<65",
    "SEX": "F",
    "MMSETOT": 17,
    "MMSEGRP": "Moderate (15-19)",
    "COMPLFL": "Y",
    "SAFFL": "Y",
    "ITTFL": "Y",
    "EFFFL": "Y"
  },
  {
    "STUDYID": "CDISCPILOT01",
    "USUBJID": "01-703-019",
    "TRTP": "Xanomeline High Dose",
    "TRTPN": 2,
    "PARAMCD": "ACTOT11",
    "PARAM": "ADAS-Cog (11) Total Score",
    "AVAL": 9,
    "BASE": 5,
    "CHG": 4,
    "ACAT1": "Marked Worsening",
    "ADT": "2014-01-26",
    "ADY": 85,
    "AVISIT": "WEEK 12",
    "AVISITN": 5,
    "ABLFL": "",
    "DTYPE": "",
    "ANL01FL": "Y",
    "ANL02FL": "",
    "ANL03FL": "",
    "AGE": 62,
    "AGEGR1": "<65",
    "SEX": "F",
    "MMSETOT": 17,
    "MMSEGRP": "Moderate (15-19)",
    "COMPLFL": "Y",
    "SAFFL": "Y",
    "ITTFL": "Y",
    "EFFFL": "Y"
  },
  {
    "STUDYID": "CDISCPILOT01",
    "USUBJID": "01-703-019",
    "TRTP": "Xanomeline High Dose",
    "TRTPN": 2,
    "PARAMCD": "ACTOT11",
    "PARAM": "ADAS-Cog (11) Total Score",
    "AVAL": 10,
    "BASE": 5,
    "CHG": 5,
    "ACAT1": "Marked Worsening",
    "ADT": "2014-04-20",
    "ADY": 169,
    "AVISIT": "WEEK 24",
    "AVISITN": 7,
    "ABLFL": "",
    "DTYPE": "",
    "ANL01FL": "Y",
    "ANL02FL": "Y",
    "ANL03FL": "Y",
    "AGE": 62,
    "AGEGR1": "<65",
    "SEX": "F",
    "MMSETOT": 17,
    "MMSEGRP": "Moderate (15-19)",
    "COMPLFL": "Y",
    "SAFFL": "Y",
    "ITTFL": "Y",
    "EFFFL": "Y"
  },
  {
    "STUDYID": "CDISCPILOT01",
    "USUBJID": "01-703-019",
    "TRTP": "Xanomeline High Dose",
    "TRTPN": 2,
    "PARAMCD": "CIBIC",
    "PARAM": "CIBIC+ Global Impression of Change",
    "AVAL": 4,
    "ACAT1": "No Change",
    "ADT": "2014-04-20",
    "ADY": 169,
    "AVISIT": "WEEK 24",
    "AVISITN": 7,
    "ABLFL": "",
    "DTYPE": "",
    "ANL01FL": "Y",
    "ANL02FL": "Y",
    "ANL03FL": "Y",
    "AGE": 62,
    "AGEGR1": "<65",
    "SEX": "F",
    "MMSETOT": 17,
    "MMSEGRP": "Moderate (15-19)",
    "COMPLFL": "Y",
    "SAFFL": "Y",
    "ITTFL": "Y",
    "EFFFL": "Y"
  },
  {
    "STUDYID": "CDISCPILOT01",
    "USUBJID": "01-703-020",
    "TRTP": "Xanomeline Low Dose",
    "TRTPN": 1,
    "PARAMCD": "ACTOT11",
    "PARAM": "ADAS-Cog (11) Total Score",
    "AVAL": 26,
    "BASE": 26,
    "CHG": 0,
    "ACAT1": "No Change",
    "ADT": "2013-07-07",
    "ADY": 1,
    "AVISIT": "BASELINE",
    "AVISITN": 1,
    "ABLFL": "Y",
    "DTYPE": "",
    "ANL01FL": "Y",
    "ANL02FL": "",
    "ANL03FL": "",
    "AGE": 72,
    "AGEGR1": "65-80",
    "SEX": "F",
    "MMSETOT": 24,
    "MMSEGRP": "Mild (20-24)",
    "COMPLFL": "N",
    "SAFFL": "Y",
    "ITTFL": "Y",
    "EFFFL": "Y"
  },
  {
    "STUDYID": "CDISCPILOT01",
    "USUBJID": "01-703-020",
    "TRTP": "Xanomeline Low Dose",
    "TRTPN": 1,
    "PARAMCD": "ACTOT11",
    "PARAM": "ADAS-Cog (11) Total Score",
    "AVAL": 24,
    "BASE": 26,
    "CHG": -2,
    "ACAT1": "Improvement",
    "ADT": "2013-08-04",
    "ADY": 29,
    "AVISIT": "WEEK 4",
    "AVISITN": 3,
    "ABLFL": "",
    "DTYPE": "",
    "ANL01FL": "Y",
    "ANL02FL": "",
    "ANL03FL": "",
    "AGE": 72,
    "AGEGR1": "65-80",
    "SEX": "F",
    "MMSETOT": 24,
    "MMSEGRP": "Mild (20-24)",
    "COMPLFL": "N",
    "SAFFL": "Y",
    "ITTFL": "Y",
    "EFFFL": "Y"
  },
  {
    "STUDYID": "CDISCPILOT01",
    "USUBJID": "01-703-020",
    "TRTP": "Xanomeline Low Dose",
    "TRTPN": 1,
    "PARAMCD": "ACTOT11",
    "PARAM": "ADAS-Cog (11) Total Score",
    "AVAL": 25,
    "BASE": 26,
    "CHG": -1,
    "ACAT1": "Improvement",
    "ADT": "2013-09-01",
    "ADY": 57,
    "AVISIT": "WEEK 8",
    "AVISITN": 4,
    "ABLFL": "",
    "DTYPE": "",
    "ANL01FL": "Y",
    "ANL02FL": "",
    "ANL03FL": "",
    "AGE": 72,
    "AGEGR1": "65-80",
    "SEX": "F",
    "MMSETOT": 24,
    "MMSEGRP": "Mild (20-24)",
    "COMPLFL": "N",
    "SAFFL": "Y",
    "ITTFL": "Y",
    "EFFFL": "Y"
  },
  {
    "STUDYID": "CDISCPILOT01",
    "USUBJID": "01-703-020",
    "TRTP": "Xanomeline Low Dose",
    "TRTPN": 1,
    "PARAMCD": "ACTOT11",
    "PARAM": "ADAS-Cog (11) Total Score",
    "AVAL": 32,
    "BASE": 26,
    "CHG": 6,
    "ACAT1": "Marked Worsening",
    "ADT": "2013-09-29",
    "ADY": 85,
    "AVISIT": "WEEK 12",
    "AVISITN": 5,
    "ABLFL": "",
    "DTYPE": "",
    "ANL01FL": "Y",
    "ANL02FL": "Y",
    "ANL03FL": "",
    "AGE": 72,
    "AGEGR1": "65-80",
    "SEX": "F",
    "MMSETOT": 24,
    "MMSEGRP": "Mild (20-24)",
    "COMPLFL": "N",
    "SAFFL": "Y",
    "ITTFL": "Y",
    "EFFFL": "Y"
  },
  {
    "STUDYID": "CDISCPILOT01",
    "USUBJID": "01-703-020",
    "TRTP": "Xanomeline Low Dose",
    "TRTPN": 1,
    "PARAMCD": "CIBIC",
    "PARAM": "CIBIC+ Global Impression of Change",
    "AVAL": 4,
    "ACAT1": "No Change",
    "ADT": "2013-12-22",
    "ADY": 169,
    "AVISIT": "WEEK 24",
    "AVISITN": 7,
    "ABLFL": "",
    "DTYPE": "",
    "ANL01FL": "Y",
    "ANL02FL": "Y",
    "ANL03FL": "Y",
    "AGE": 72,
    "AGEGR1": "65-80",
    "SEX": "F",
    "MMSETOT": 24,
    "MMSEGRP": "Mild (20-24)",
    "COMPLFL": "N",
    "SAFFL": "Y",
    "ITTFL": "Y",
    "EFFFL": "Y"
  },
  {
    "STUDYID": "CDISCPILOT01",
    "USUBJID": "01-704-001",
    "TRTP": "Placebo",
    "TRTPN": 0,
    "PARAMCD": "ACTOT11",
    "PARAM": "ADAS-Cog (11) Total Score",
    "AVAL": 18,
    "BASE": 18,
    "CHG": 0,
    "ACAT1": "No Change",
    "ADT": "2013-12-14",
    "ADY": 1,
    "AVISIT": "BASELINE",
    "AVISITN": 1,
    "ABLFL": "Y",
    "DTYPE": "",
    "ANL01FL": "Y",
    "ANL02FL": "",
    "ANL03FL": "",
    "AGE": 79,
    "AGEGR1": "65-80",
    "SEX": "F",
    "MMSETOT": 16,
    "MMSEGRP": "Moderate (15-19)",
    "COMPLFL": "Y",
    "SAFFL": "Y",
    "ITTFL": "Y",
    "EFFFL": "Y"
  },
  {
    "STUDYID": "CDISCPILOT01",
    "USUBJID": "01-704-001",
    "TRTP": "Placebo",
    "TRTPN": 0,
    "PARAMCD": "ACTOT11",
    "PARAM": "ADAS-Cog (11) Total Score",
    "AVAL": 22,
    "BASE": 18,
    "CHG": 4,
    "ACAT1": "Marked Worsening",
    "ADT": "2014-01-11",
    "ADY": 29,
    "AVISIT": "WEEK 4",
    "AVISITN": 3,
    "ABLFL": "",
    "DTYPE": "",
    "ANL01FL": "Y",
    "ANL02FL": "",
    "ANL03FL": "",
    "AGE": 79,
    "AGEGR1": "65-80",
    "SEX": "F",
    "MMSETOT": 16,
    "MMSEGRP": "Moderate (15-19)",
    "COMPLFL": "Y",
    "SAFFL": "Y",
    "ITTFL": "Y",
    "EFFFL": "Y"
  },
  {
    "STUDYID": "CDISCPILOT01",
    "USUBJID": "01-704-001",
    "TRTP": "Placebo",
    "TRTPN": 0,
    "PARAMCD": "ACTOT11",
    "PARAM": "ADAS-Cog (11) Total Score",
    "AVAL": 19,
    "BASE": 18,
    "CHG": 1,
    "ACAT1": "Worsening",
    "ADT": "2014-02-08",
    "ADY": 57,
    "AVISIT": "WEEK 8",
    "AVISITN": 4,
    "ABLFL": "",
    "DTYPE": "",
    "ANL01FL": "Y",
    "ANL02FL": "",
    "ANL03FL": "",
    "AGE": 79,
    "AGEGR1": "65-80",
    "SEX": "F",
    "MMSETOT": 16,
    "MMSEGRP": "Moderate (15-19)",
    "COMPLFL": "Y",
    "SAFFL": "Y",
    "ITTFL": "Y",
    "EFFFL": "Y"
  },
  {
    "STUDYID": "CDISCPILOT01",
    "USUBJID": "01-704-001",
    "TRTP": "Placebo",
    "TRTPN": 0,
    "PARAMCD": "ACTOT11",
    "PARAM": "ADAS-Cog (11) Total Score",
    "AVAL": 11,
    "BASE": 18,
    "CHG": -7,
    "ACAT1": "Marked Improvement",
    "ADT": "2014-03-08",
    "ADY": 85,
    "AVISIT": "WEEK 12",
    "AVISITN": 5,
    "ABLFL": "",
    "DTYPE": "",
    "ANL01FL": "Y",
    "ANL02FL": "",
    "ANL03FL": "",
    "AGE": 79,
    "AGEGR1": "65-80",
    "SEX": "F",
    "MMSETOT": 16,
    "MMSEGRP": "Moderate (15-19)",
    "COMPLFL": "Y",
    "SAFFL": "Y",
    "ITTFL": "Y",
    "EFFFL": "Y"
  },
  {
    "STUDYID": "CDISCPILOT01",
    "USUBJID": "01-704-001",
    "TRTP": "Placebo",
    "TRTPN": 0,
    "PARAMCD": "ACTOT11",
    "PARAM": "ADAS-Cog (11) Total Score",
    "AVAL": 24,
    "BASE": 18,
    "CHG": 6,
    "ACAT1": "Marked Worsening",
    "ADT": "2014-05-31",
    "ADY": 169,
    "AVISIT": "WEEK 24",
    "AVISITN": 7,
    "ABLFL": "",
    "DTYPE": "",
    "ANL01FL": "Y",
    "ANL02FL": "Y",
    "ANL03FL": "Y",
    "AGE": 79,
    "AGEGR1": "65-80",
    "SEX": "F",
    "MMSETOT": 16,
    "MMSEGRP": "Moderate (15-19)",
    "COMPLFL": "Y",
    "SAFFL": "Y",
    "ITTFL": "Y",
    "EFFFL": "Y"
  },
  {
    "STUDYID": "CDISCPILOT01",
    "USUBJID": "01-704-001",
    "TRTP": "Placebo",
    "TRTPN": 0,
    "PARAMCD": "CIBIC",
    "PARAM": "CIBIC+ Global Impression of Change",
    "AVAL": 5,
    "ACAT1": "Worsened",
    "ADT": "2014-05-31",
    "ADY": 169,
    "AVISIT": "WEEK 24",
    "AVISITN": 7,
    "ABLFL": "",
    "DTYPE": "",
    "ANL01FL": "Y",
    "ANL02FL": "Y",
    "ANL03FL": "Y",
    "AGE": 79,
    "AGEGR1": "65-80",
    "SEX": "F",
    "MMSETOT": 16,
    "MMSEGRP": "Moderate (15-19)",
    "COMPLFL": "Y",
    "SAFFL": "Y",
    "ITTFL": "Y",
    "EFFFL": "Y"
  },
  {
    "STUDYID": "CDISCPILOT01",
    "USUBJID": "01-704-002",
    "TRTP": "Placebo",
    "TRTPN": 0,
    "PARAMCD": "ACTOT11",
    "PARAM": "ADAS-Cog (11) Total Score",
    "AVAL": 41,
    "BASE": 41,
    "CHG": 0,
    "ACAT1": "No Change",
    "ADT": "2013-02-21",
    "ADY": 1,
    "AVISIT": "BASELINE",
    "AVISITN": 1,
    "ABLFL": "Y",
    "DTYPE": "",
    "ANL01FL": "Y",
    "ANL02FL": "",
    "ANL03FL": "",
    "AGE": 89,
    "AGEGR1": ">80",
    "SEX": "M",
    "MMSETOT": 18,
    "MMSEGRP": "Moderate (15-19)",
    "COMPLFL": "Y",
    "SAFFL": "Y",
    "ITTFL": "Y",
    "EFFFL": "Y"
  },
  {
    "STUDYID": "CDISCPILOT01",
    "USUBJID": "01-704-002",
    "TRTP": "Placebo",
    "TRTPN": 0,
    "PARAMCD": "ACTOT11",
    "PARAM": "ADAS-Cog (11) Total Score",
    "AVAL": 37,
    "BASE": 41,
    "CHG": -4,
    "ACAT1": "Marked Improvement",
    "ADT": "2013-03-21",
    "ADY": 29,
    "AVISIT": "WEEK 4",
    "AVISITN": 3,
    "ABLFL": "",
    "DTYPE": "",
    "ANL01FL": "Y",
    "ANL02FL": "",
    "ANL03FL": "",
    "AGE": 89,
    "AGEGR1": ">80",
    "SEX": "M",
    "MMSETOT": 18,
    "MMSEGRP": "Moderate (15-19)",
    "COMPLFL": "Y",
    "SAFFL": "Y",
    "ITTFL": "Y",
    "EFFFL": "Y"
  },
  {
    "STUDYID": "CDISCPILOT01",
    "USUBJID": "01-704-002",
    "TRTP": "Placebo",
    "TRTPN": 0,
    "PARAMCD": "ACTOT11",
    "PARAM": "ADAS-Cog (11) Total Score",
    "AVAL": 41,
    "BASE": 41,
    "CHG": 0,
    "ACAT1": "No Change",
    "ADT": "2013-04-18",
    "ADY": 57,
    "AVISIT": "WEEK 8",
    "AVISITN": 4,
    "ABLFL": "",
    "DTYPE": "",
    "ANL01FL": "Y",
    "ANL02FL": "",
    "ANL03FL": "",
    "AGE": 89,
    "AGEGR1": ">80",
    "SEX": "M",
    "MMSETOT": 18,
    "MMSEGRP": "Moderate (15-19)",
    "COMPLFL": "Y",
    "SAFFL": "Y",
    "ITTFL": "Y",
    "EFFFL": "Y"
  },
  {
    "STUDYID": "CDISCPILOT01",
    "USUBJID": "01-704-002",
    "TRTP": "Placebo",
    "TRTPN": 0,
    "PARAMCD": "ACTOT11",
    "PARAM": "ADAS-Cog (11) Total Score",
    "AVAL": 46,
    "BASE": 41,
    "CHG": 5,
    "ACAT1": "Marked Worsening",
    "ADT": "2013-05-16",
    "ADY": 85,
    "AVISIT": "WEEK 12",
    "AVISITN": 5,
    "ABLFL": "",
    "DTYPE": "",
    "ANL01FL": "Y",
    "ANL02FL": "",
    "ANL03FL": "",
    "AGE": 89,
    "AGEGR1": ">80",
    "SEX": "M",
    "MMSETOT": 18,
    "MMSEGRP": "Moderate (15-19)",
    "COMPLFL": "Y",
    "SAFFL": "Y",
    "ITTFL": "Y",
    "EFFFL": "Y"
  },
  {
    "STUDYID": "CDISCPILOT01",
    "USUBJID": "01-704-002",
    "TRTP": "Placebo",
    "TRTPN": 0,
    "PARAMCD": "ACTOT11",
    "PARAM": "ADAS-Cog (11) Total Score",
    "AVAL": 36,
    "BASE": 41,
    "CHG": -5,
    "ACAT1": "Marked Improvement",
    "ADT": "2013-08-08",
    "ADY": 169,
    "AVISIT": "WEEK 24",
    "AVISITN": 7,
    "ABLFL": "",
    "DTYPE": "",
    "ANL01FL": "Y",
    "ANL02FL": "Y",
    "ANL03FL": "Y",
    "AGE": 89,
    "AGEGR1": ">80",
    "SEX": "M",
    "MMSETOT": 18,
    "MMSEGRP": "Moderate (15-19)",
    "COMPLFL": "Y",
    "SAFFL": "Y",
    "ITTFL": "Y",
    "EFFFL": "Y"
  },
  {
    "STUDYID": "CDISCPILOT01",
    "USUBJID": "01-704-002",
    "TRTP": "Placebo",
    "TRTPN": 0,
    "PARAMCD": "CIBIC",
    "PARAM": "CIBIC+ Global Impression of Change",
    "AVAL": 3,
    "ACAT1": "Improved",
    "ADT": "2013-08-08",
    "ADY": 169,
    "AVISIT": "WEEK 24",
    "AVISITN": 7,
    "ABLFL": "",
    "DTYPE": "",
    "ANL01FL": "Y",
    "ANL02FL": "Y",
    "ANL03FL": "Y",
    "AGE": 89,
    "AGEGR1": ">80",
    "SEX": "M",
    "MMSETOT": 18,
    "MMSEGRP": "Moderate (15-19)",
    "COMPLFL": "Y",
    "SAFFL": "Y",
    "ITTFL": "Y",
    "EFFFL": "Y"
  },
  {
    "STUDYID": "CDISCPILOT01",
    "USUBJID": "01-704-003",
    "TRTP": "Xanomeline Low Dose",
    "TRTPN": 1,
    "PARAMCD": "ACTOT11",
    "PARAM": "ADAS-Cog (11) Total Score",
    "AVAL": 8,
    "BASE": 8,
    "CHG": 0,
    "ACAT1": "No Change",
    "ADT": "2013-06-22",
    "ADY": 1,
    "AVISIT": "BASELINE",
    "AVISITN": 1,
    "ABLFL": "Y",
    "DTYPE": "",
    "ANL01FL": "Y",
    "ANL02FL": "",
    "ANL03FL": "",
    "AGE": 78,
    "AGEGR1": "65-80",
    "SEX": "M",
    "MMSETOT": 14,
    "MMSEGRP": "Severe (0-14)",
    "COMPLFL": "Y",
    "SAFFL": "Y",
    "ITTFL": "Y",
    "EFFFL": "Y"
  },
  {
    "STUDYID": "CDISCPILOT01",
    "USUBJID": "01-704-003",
    "TRTP": "Xanomeline Low Dose",
    "TRTPN": 1,
    "PARAMCD": "ACTOT11",
    "PARAM": "ADAS-Cog (11) Total Score",
    "AVAL": 7,
    "BASE": 8,
    "CHG": -1,
    "ACAT1": "Improvement",
    "ADT": "2013-07-20",
    "ADY": 29,
    "AVISIT": "WEEK 4",
    "AVISITN": 3,
    "ABLFL": "",
    "DTYPE": "",
    "ANL01FL": "Y",
    "ANL02FL": "",
    "ANL03FL": "",
    "AGE": 78,
    "AGEGR1": "65-80",
    "SEX": "M",
    "MMSETOT": 14,
    "MMSEGRP": "Severe (0-14)",
    "COMPLFL": "Y",
    "SAFFL": "Y",
    "ITTFL": "Y",
    "EFFFL": "Y"
  },
  {
    "STUDYID": "CDISCPILOT01",
    "USUBJID": "01-704-003",
    "TRTP": "Xanomeline Low Dose",
    "TRTPN": 1,
    "PARAMCD": "ACTOT11",
    "PARAM": "ADAS-Cog (11) Total Score",
    "AVAL": 9,
    "BASE": 8,
    "CHG": 1,
    "ACAT1": "Worsening",
    "ADT": "2013-08-17",
    "ADY": 57,
    "AVISIT": "WEEK 8",
    "AVISITN": 4,
    "ABLFL": "",
    "DTYPE": "",
    "ANL01FL": "Y",
    "ANL02FL": "",
    "ANL03FL": "",
    "AGE": 78,
    "AGEGR1": "65-80",
    "SEX": "M",
    "MMSETOT": 14,
    "MMSEGRP": "Severe (0-14)",
    "COMPLFL": "Y",
    "SAFFL": "Y",
    "ITTFL": "Y",
    "EFFFL": "Y"
  },
  {
    "STUDYID": "CDISCPILOT01",
    "USUBJID": "01-704-003",
    "TRTP": "Xanomeline Low Dose",
    "TRTPN": 1,
    "PARAMCD": "ACTOT11",
    "PARAM": "ADAS-Cog (11) Total Score",
    "AVAL": 7,
    "BASE": 8,
    "CHG": -1,
    "ACAT1": "Improvement",
    "ADT": "2013-09-14",
    "ADY": 85,
    "AVISIT": "WEEK 12",
    "AVISITN": 5,
    "ABLFL": "",
    "DTYPE": "",
    "ANL01FL": "Y",
    "ANL02FL": "",
    "ANL03FL": "",
    "AGE": 78,
    "AGEGR1": "65-80",
    "SEX": "M",
    "MMSETOT": 14,
    "MMSEGRP": "Severe (0-14)",
    "COMPLFL": "Y",
    "SAFFL": "Y",
    "ITTFL": "Y",
    "EFFFL": "Y"
  },
  {
    "STUDYID": "CDISCPILOT01",
    "USUBJID": "01-704-003",
    "TRTP": "Xanomeline Low Dose",
    "TRTPN": 1,
    "PARAMCD": "ACTOT11",
    "PARAM": "ADAS-Cog (11) Total Score",
    "AVAL": 8,
    "BASE": 8,
    "CHG": 0,
    "ACAT1": "No Change",
    "ADT": "2013-12-07",
    "ADY": 169,
    "AVISIT": "WEEK 24",
    "AVISITN": 7,
    "ABLFL": "",
    "DTYPE": "",
    "ANL01FL": "Y",
    "ANL02FL": "Y",
    "ANL03FL": "Y",
    "AGE": 78,
    "AGEGR1": "65-80",
    "SEX": "M",
    "MMSETOT": 14,
    "MMSEGRP": "Severe (0-14)",
    "COMPLFL": "Y",
    "SAFFL": "Y",
    "ITTFL": "Y",
    "EFFFL": "Y"
  },
  {
    "STUDYID": "CDISCPILOT01",
    "USUBJID": "01-704-003",
    "TRTP": "Xanomeline Low Dose",
    "TRTPN": 1,
    "PARAMCD": "CIBIC",
    "PARAM": "CIBIC+ Global Impression of Change",
    "AVAL": 5,
    "ACAT1": "Worsened",
    "ADT": "2013-12-07",
    "ADY": 169,
    "AVISIT": "WEEK 24",
    "AVISITN": 7,
    "ABLFL": "",
    "DTYPE": "",
    "ANL01FL": "Y",
    "ANL02FL": "Y",
    "ANL03FL": "Y",
    "AGE": 78,
    "AGEGR1": "65-80",
    "SEX": "M",
    "MMSETOT": 14,
    "MMSEGRP": "Severe (0-14)",
    "COMPLFL": "Y",
    "SAFFL": "Y",
    "ITTFL": "Y",
    "EFFFL": "Y"
  },
  {
    "STUDYID": "CDISCPILOT01",
    "USUBJID": "01-704-004",
    "TRTP": "Xanomeline Low Dose",
    "TRTPN": 1,
    "PARAMCD": "ACTOT11",
    "PARAM": "ADAS-Cog (11) Total Score",
    "AVAL": 19,
    "BASE": 19,
    "CHG": 0,
    "ACAT1": "No Change",
    "ADT": "2013-09-29",
    "ADY": 1,
    "AVISIT": "BASELINE",
    "AVISITN": 1,
    "ABLFL": "Y",
    "DTYPE": "",
    "ANL01FL": "Y",
    "ANL02FL": "",
    "ANL03FL": "",
    "AGE": 59,
    "AGEGR1": "<65",
    "SEX": "M",
    "MMSETOT": 17,
    "MMSEGRP": "Moderate (15-19)",
    "COMPLFL": "N",
    "SAFFL": "Y",
    "ITTFL": "Y",
    "EFFFL": "Y"
  },
  {
    "STUDYID": "CDISCPILOT01",
    "USUBJID": "01-704-004",
    "TRTP": "Xanomeline Low Dose",
    "TRTPN": 1,
    "PARAMCD": "ACTOT11",
    "PARAM": "ADAS-Cog (11) Total Score",
    "AVAL": 16,
    "BASE": 19,
    "CHG": -3,
    "ACAT1": "Improvement",
    "ADT": "2013-10-27",
    "ADY": 29,
    "AVISIT": "WEEK 4",
    "AVISITN": 3,
    "ABLFL": "",
    "DTYPE": "",
    "ANL01FL": "Y",
    "ANL02FL": "Y",
    "ANL03FL": "",
    "AGE": 59,
    "AGEGR1": "<65",
    "SEX": "M",
    "MMSETOT": 17,
    "MMSEGRP": "Moderate (15-19)",
    "COMPLFL": "N",
    "SAFFL": "Y",
    "ITTFL": "Y",
    "EFFFL": "Y"
  },
  {
    "STUDYID": "CDISCPILOT01",
    "USUBJID": "01-704-004",
    "TRTP": "Xanomeline Low Dose",
    "TRTPN": 1,
    "PARAMCD": "CIBIC",
    "PARAM": "CIBIC+ Global Impression of Change",
    "AVAL": 4,
    "ACAT1": "No Change",
    "ADT": "2014-03-16",
    "ADY": 169,
    "AVISIT": "WEEK 24",
    "AVISITN": 7,
    "ABLFL": "",
    "DTYPE": "",
    "ANL01FL": "Y",
    "ANL02FL": "Y",
    "ANL03FL": "Y",
    "AGE": 59,
    "AGEGR1": "<65",
    "SEX": "M",
    "MMSETOT": 17,
    "MMSEGRP": "Moderate (15-19)",
    "COMPLFL": "N",
    "SAFFL": "Y",
    "ITTFL": "Y",
    "EFFFL": "Y"
  },
  {
    "STUDYID": "CDISCPILOT01",
    "USUBJID": "01-704-005",
    "TRTP": "Placebo",
    "TRTPN": 0,
    "PARAMCD": "ACTOT11",
    "PARAM": "ADAS-Cog (11) Total Score",
    "AVAL": 23,
    "BASE": 23,
    "CHG": 0,
    "ACAT1": "No Change",
    "ADT": "2013-11-08",
    "ADY": 1,
    "AVISIT": "BASELINE",
    "AVISITN": 1,
    "ABLFL": "Y",
    "DTYPE": "",
    "ANL01FL": "Y",
    "ANL02FL": "Y",
    "ANL03FL": "",
    "AGE": 76,
    "AGEGR1": "65-80",
    "SEX": "F",
    "MMSETOT": 17,
    "MMSEGRP": "Moderate (15-19)",
    "COMPLFL": "N",
    "SAFFL": "Y",
    "ITTFL": "Y",
    "EFFFL": "Y"
  },
  {
    "STUDYID": "CDISCPILOT01",
    "USUBJID": "01-704-005",
    "TRTP": "Placebo",
    "TRTPN": 0,
    "PARAMCD": "CIBIC",
    "PARAM": "CIBIC+ Global Impression of Change",
    "AVAL": 4,
    "ACAT1": "No Change",
    "ADT": "2014-04-25",
    "ADY": 169,
    "AVISIT": "WEEK 24",
    "AVISITN": 7,
    "ABLFL": "",
    "DTYPE": "",
    "ANL01FL": "Y",
    "ANL02FL": "Y",
    "ANL03FL": "Y",
    "AGE": 76,
    "AGEGR1": "65-80",
    "SEX": "F",
    "MMSETOT": 17,
    "MMSEGRP": "Moderate (15-19)",
    "COMPLFL": "N",
    "SAFFL": "Y",
    "ITTFL": "Y",
    "EFFFL": "Y"
  },
  {
    "STUDYID": "CDISCPILOT01",
    "USUBJID": "01-704-006",
    "TRTP": "Placebo",
    "TRTPN": 0,
    "PARAMCD": "ACTOT11",
    "PARAM": "ADAS-Cog (11) Total Score",
    "AVAL": 14,
    "BASE": 14,
    "CHG": 0,
    "ACAT1": "No Change",
    "ADT": "2013-10-29",
    "ADY": 1,
    "AVISIT": "BASELINE",
    "AVISITN": 1,
    "ABLFL": "Y",
    "DTYPE": "",
    "ANL01FL": "Y",
    "ANL02FL": "Y",
    "ANL03FL": "",
    "AGE": 85,
    "AGEGR1": ">80",
    "SEX": "M",
    "MMSETOT": 21,
    "MMSEGRP": "Mild (20-24)",
    "COMPLFL": "N",
    "SAFFL": "Y",
    "ITTFL": "Y",
    "EFFFL": "Y"
  },
  {
    "STUDYID": "CDISCPILOT01",
    "USUBJID": "01-704-006",
    "TRTP": "Placebo",
    "TRTPN": 0,
    "PARAMCD": "CIBIC",
    "PARAM": "CIBIC+ Global Impression of Change",
    "AVAL": 4,
    "ACAT1": "No Change",
    "ADT": "2014-04-15",
    "ADY": 169,
    "AVISIT": "WEEK 24",
    "AVISITN": 7,
    "ABLFL": "",
    "DTYPE": "",
    "ANL01FL": "Y",
    "ANL02FL": "Y",
    "ANL03FL": "Y",
    "AGE": 85,
    "AGEGR1": ">80",
    "SEX": "M",
    "MMSETOT": 21,
    "MMSEGRP": "Mild (20-24)",
    "COMPLFL": "N",
    "SAFFL": "Y",
    "ITTFL": "Y",
    "EFFFL": "Y"
  },
  {
    "STUDYID": "CDISCPILOT01",
    "USUBJID": "01-704-007",
    "TRTP": "Placebo",
    "TRTPN": 0,
    "PARAMCD": "ACTOT11",
    "PARAM": "ADAS-Cog (11) Total Score",
    "AVAL": 23,
    "BASE": 23,
    "CHG": 0,
    "ACAT1": "No Change",
    "ADT": "2013-12-16",
    "ADY": 1,
    "AVISIT": "BASELINE",
    "AVISITN": 1,
    "ABLFL": "Y",
    "DTYPE": "",
    "ANL01FL": "Y",
    "ANL02FL": "",
    "ANL03FL": "",
    "AGE": 73,
    "AGEGR1": "65-80",
    "SEX": "F",
    "MMSETOT": 19,
    "MMSEGRP": "Moderate (15-19)",
    "COMPLFL": "Y",
    "SAFFL": "Y",
    "ITTFL": "Y",
    "EFFFL": "Y"
  },
  {
    "STUDYID": "CDISCPILOT01",
    "USUBJID": "01-704-007",
    "TRTP": "Placebo",
    "TRTPN": 0,
    "PARAMCD": "ACTOT11",
    "PARAM": "ADAS-Cog (11) Total Score",
    "AVAL": 22,
    "BASE": 23,
    "CHG": -1,
    "ACAT1": "Improvement",
    "ADT": "2014-01-13",
    "ADY": 29,
    "AVISIT": "WEEK 4",
    "AVISITN": 3,
    "ABLFL": "",
    "DTYPE": "",
    "ANL01FL": "Y",
    "ANL02FL": "",
    "ANL03FL": "",
    "AGE": 73,
    "AGEGR1": "65-80",
    "SEX": "F",
    "MMSETOT": 19,
    "MMSEGRP": "Moderate (15-19)",
    "COMPLFL": "Y",
    "SAFFL": "Y",
    "ITTFL": "Y",
    "EFFFL": "Y"
  },
  {
    "STUDYID": "CDISCPILOT01",
    "USUBJID": "01-704-007",
    "TRTP": "Placebo",
    "TRTPN": 0,
    "PARAMCD": "ACTOT11",
    "PARAM": "ADAS-Cog (11) Total Score",
    "AVAL": 27,
    "BASE": 23,
    "CHG": 4,
    "ACAT1": "Marked Worsening",
    "ADT": "2014-02-10",
    "ADY": 57,
    "AVISIT": "WEEK 8",
    "AVISITN": 4,
    "ABLFL": "",
    "DTYPE": "",
    "ANL01FL": "Y",
    "ANL02FL": "",
    "ANL03FL": "",
    "AGE": 73,
    "AGEGR1": "65-80",
    "SEX": "F",
    "MMSETOT": 19,
    "MMSEGRP": "Moderate (15-19)",
    "COMPLFL": "Y",
    "SAFFL": "Y",
    "ITTFL": "Y",
    "EFFFL": "Y"
  },
  {
    "STUDYID": "CDISCPILOT01",
    "USUBJID": "01-704-007",
    "TRTP": "Placebo",
    "TRTPN": 0,
    "PARAMCD": "ACTOT11",
    "PARAM": "ADAS-Cog (11) Total Score",
    "AVAL": 30,
    "BASE": 23,
    "CHG": 7,
    "ACAT1": "Marked Worsening",
    "ADT": "2014-03-10",
    "ADY": 85,
    "AVISIT": "WEEK 12",
    "AVISITN": 5,
    "ABLFL": "",
    "DTYPE": "",
    "ANL01FL": "Y",
    "ANL02FL": "",
    "ANL03FL": "",
    "AGE": 73,
    "AGEGR1": "65-80",
    "SEX": "F",
    "MMSETOT": 19,
    "MMSEGRP": "Moderate (15-19)",
    "COMPLFL": "Y",
    "SAFFL": "Y",
    "ITTFL": "Y",
    "EFFFL": "Y"
  },
  {
    "STUDYID": "CDISCPILOT01",
    "USUBJID": "01-704-007",
    "TRTP": "Placebo",
    "TRTPN": 0,
    "PARAMCD": "ACTOT11",
    "PARAM": "ADAS-Cog (11) Total Score",
    "AVAL": 24,
    "BASE": 23,
    "CHG": 1,
    "ACAT1": "Worsening",
    "ADT": "2014-06-02",
    "ADY": 169,
    "AVISIT": "WEEK 24",
    "AVISITN": 7,
    "ABLFL": "",
    "DTYPE": "",
    "ANL01FL": "Y",
    "ANL02FL": "Y",
    "ANL03FL": "Y",
    "AGE": 73,
    "AGEGR1": "65-80",
    "SEX": "F",
    "MMSETOT": 19,
    "MMSEGRP": "Moderate (15-19)",
    "COMPLFL": "Y",
