[
  {
    "STUDYID": "KN868",
    "USUBJID": "KN868-0001-0001",
    "TRTP": "Placebo + Chemo",
    "TRTPN": 2,
    "PARAMCD": "PFS",
    "PARAM": "Progression-Free Survival",
    "AVAL": 6.14,
    "CNSR": 0,
    "EVNTDESC": "DEATH",
    "STARTDT": "2020-04-15",
    "ADT": "2020-10-19",
    "ADY": 188,
    "AGE": 55,
    "AGEGR1": "<65",
    "SEX": false,
    "MMRSTAT": "dMMR",
    "ECOGBL": 0,
    "SAFFL": "Y",
    "ITTFL": "Y",
    "EFFFL": "Y",
    "ANL01FL": "Y"
  },
  {
    "STUDYID": "KN868",
    "USUBJID": "KN868-0001-0001",
    "TRTP": "Placebo + Chemo",
    "TRTPN": 2,
    "PARAMCD": "OS",
    "PARAM": "Overall Survival",
    "AVAL": 14.21,
    "CNSR": 0,
    "EVNTDESC": "DEATH",
    "STARTDT": "2020-04-15",
    "ADT": "2021-06-22",
    "ADY": 434,
    "AGE": 55,
    "AGEGR1": "<65",
    "SEX": false,
    "MMRSTAT": "dMMR",
    "ECOGBL": 0,
    "SAFFL": "Y",
    "ITTFL": "Y",
    "EFFFL": "Y",
    "ANL01FL": "Y"
  },
  {
    "STUDYID": "KN868",
    "USUBJID": "KN868-0001-0002",
    "TRTP": "Pembrolizumab + Chemo",
    "TRTPN": 1,
    "PARAMCD": "PFS",
    "PARAM": "Progression-Free Survival",
    "AVAL": 16.74,
    "CNSR": 0,
    "EVNTDESC": "DISEASE PROGRESSION",
    "STARTDT": "2020-06-10",
    "ADT": "2021-11-02",
    "ADY": 511,
    "AGE": 69,
    "AGEGR1": ">=65",
    "SEX": false,
    "MMRSTAT": "pMMR",
    "ECOGBL": 0,
    "SAFFL": "Y",
    "ITTFL": "Y",
    "EFFFL": "Y",
    "ANL01FL": "Y"
  },
  {
    "STUDYID": "KN868",
    "USUBJID": "KN868-0001-0002",
    "TRTP": "Pembrolizumab + Chemo",
    "TRTPN": 1,
    "PARAMCD": "OS",
    "PARAM": "Overall Survival",
    "AVAL": 17.78,
    "CNSR": 0,
    "EVNTDESC": "DEATH",
    "STARTDT": "2020-06-10",
    "ADT": "2021-12-03",
    "ADY": 542,
    "AGE": 69,
    "AGEGR1": ">=65",
    "SEX": false,
    "MMRSTAT": "pMMR",
    "ECOGBL": 0,
    "SAFFL": "Y",
    "ITTFL": "Y",
    "EFFFL": "Y",
    "ANL01FL": "Y"
  },
  {
    "STUDYID": "KN868",
    "USUBJID": "KN868-0001-0003",
    "TRTP": "Pembrolizumab + Chemo",
    "TRTPN": 1,
    "PARAMCD": "OS",
    "PARAM": "Overall Survival",
    "AVAL": 20.34,
    "CNSR": 1,
    "EVNTDESC": "CENSORED",
    "STARTDT": "2022-01-20",
    "ADT": "2023-10-01",
    "ADY": 620,
    "AGE": 48,
    "AGEGR1": "<65",
    "SEX": false,
    "MMRSTAT": "pMMR",
    "ECOGBL": 1,
    "SAFFL": "Y",
    "ITTFL": "Y",
    "EFFFL": "Y",
    "ANL01FL": "Y"
  },
  {
    "STUDYID": "KN868",
    "USUBJID": "KN868-0001-0003",
    "TRTP": "Pembrolizumab + Chemo",
    "TRTPN": 1,
    "PARAMCD": "PFS",
    "PARAM": "Progression-Free Survival",
    "AVAL": 15.81,
    "CNSR": 0,
    "EVNTDESC": "DISEASE PROGRESSION",
    "STARTDT": "2022-01-20",
    "ADT": "2023-05-16",
    "ADY": 482,
    "AGE": 48,
    "AGEGR1": "<65",
    "SEX": false,
    "MMRSTAT": "pMMR",
    "ECOGBL": 1,
    "SAFFL": "Y",
    "ITTFL": "Y",
    "EFFFL": "Y",
    "ANL01FL": "Y"
  },
  {
    "STUDYID": "KN868",
    "USUBJID": "KN868-0001-0004",
    "TRTP": "Pembrolizumab + Chemo",
    "TRTPN": 1,
    "PARAMCD": "OS",
    "PARAM": "Overall Survival",
    "AVAL": 7.82,
    "CNSR": 0,
    "EVNTDESC": "DEATH",
    "STARTDT": "2021-09-17",
    "ADT": "2022-05-13",
    "ADY": 239,
    "AGE": 78,
    "AGEGR1": ">=65",
    "SEX": false,
    "MMRSTAT": "pMMR",
    "ECOGBL": 0,
    "SAFFL": "Y",
    "ITTFL": "Y",
    "EFFFL": "Y",
    "ANL01FL": "Y"
  },
  {
    "STUDYID": "KN868",
    "USUBJID": "KN868-0001-0004",
    "TRTP": "Pembrolizumab + Chemo",
    "TRTPN": 1,
    "PARAMCD": "PFS",
    "PARAM": "Progression-Free Survival",
    "AVAL": 5.77,
    "CNSR": 0,
    "EVNTDESC": "DISEASE PROGRESSION",
    "STARTDT": "2021-09-17",
    "ADT": "2022-03-12",
    "ADY": 177,
    "AGE": 78,
    "AGEGR1": ">=65",
    "SEX": false,
    "MMRSTAT": "pMMR",
    "ECOGBL": 0,
    "SAFFL": "Y",
    "ITTFL": "Y",
    "EFFFL": "Y",
    "ANL01FL": "Y"
  },
  {
    "STUDYID": "KN868",
    "USUBJID": "KN868-0001-0005",
    "TRTP": "Placebo + Chemo",
    "TRTPN": 2,
    "PARAMCD": "OS",
    "PARAM": "Overall Survival",
    "AVAL": 13.04,
    "CNSR": 0,
    "EVNTDESC": "DEATH",
    "STARTDT": "2020-12-25",
    "ADT": "2022-01-26",
    "ADY": 398,
    "AGE": 58,
    "AGEGR1": "<65",
    "SEX": false,
    "MMRSTAT": "pMMR",
    "ECOGBL": 1,
    "SAFFL": "Y",
    "ITTFL": "Y",
    "EFFFL": "Y",
    "ANL01FL": "Y"
  },
  {
    "STUDYID": "KN868",
    "USUBJID": "KN868-0001-0005",
    "TRTP": "Placebo + Chemo",
    "TRTPN": 2,
    "PARAMCD": "PFS",
    "PARAM": "Progression-Free Survival",
    "AVAL": 7.31,
    "CNSR": 0,
    "EVNTDESC": "DISEASE PROGRESSION",
    "STARTDT": "2020-12-25",
    "ADT": "2021-08-05",
    "ADY": 224,
    "AGE": 58,
    "AGEGR1": "<65",
    "SEX": false,
    "MMRSTAT": "pMMR",
    "ECOGBL": 1,
    "SAFFL": "Y",
    "ITTFL": "Y",
    "EFFFL": "Y",
    "ANL01FL": "Y"
  },
  {
    "STUDYID": "KN868",
    "USUBJID": "KN868-0001-0006",
    "TRTP": "Pembrolizumab + Chemo",
    "TRTPN": 1,
    "PARAMCD": "OS",
    "PARAM": "Overall Survival",
    "AVAL": 12.23,
    "CNSR": 0,
    "EVNTDESC": "DEATH",
    "STARTDT": "2022-02-12",
    "ADT": "2023-02-19",
    "ADY": 373,
    "AGE": 60,
    "AGEGR1": "<65",
    "SEX": false,
    "MMRSTAT": "dMMR",
    "ECOGBL": 0,
    "SAFFL": "Y",
    "ITTFL": "Y",
    "EFFFL": "Y",
    "ANL01FL": "Y"
  },
  {
    "STUDYID": "KN868",
    "USUBJID": "KN868-0001-0006",
    "TRTP": "Pembrolizumab + Chemo",
    "TRTPN": 1,
    "PARAMCD": "PFS",
    "PARAM": "Progression-Free Survival",
    "AVAL": 0.3,
    "CNSR": 0,
    "EVNTDESC": "DISEASE PROGRESSION",
    "STARTDT": "2022-02-12",
    "ADT": "2022-02-21",
    "ADY": 10,
    "AGE": 60,
    "AGEGR1": "<65",
    "SEX": false,
    "MMRSTAT": "dMMR",
    "ECOGBL": 0,
    "SAFFL": "Y",
    "ITTFL": "Y",
    "EFFFL": "Y",
    "ANL01FL": "Y"
  },
  {
    "STUDYID": "KN868",
    "USUBJID": "KN868-0001-0007",
    "TRTP": "Pembrolizumab + Chemo",
    "TRTPN": 1,
    "PARAMCD": "OS",
    "PARAM": "Overall Survival",
    "AVAL": 12.18,
    "CNSR": 0,
    "EVNTDESC": "DEATH",
    "STARTDT": "2020-07-24",
    "ADT": "2021-07-30",
    "ADY": 372,
    "AGE": 70,
    "AGEGR1": ">=65",
    "SEX": false,
    "MMRSTAT": "pMMR",
    "ECOGBL": 1,
    "SAFFL": "Y",
    "ITTFL": "Y",
    "EFFFL": "Y",
    "ANL01FL": "Y"
  },
  {
    "STUDYID": "KN868",
    "USUBJID": "KN868-0001-0007",
    "TRTP": "Pembrolizumab + Chemo",
    "TRTPN": 1,
    "PARAMCD": "PFS",
    "PARAM": "Progression-Free Survival",
    "AVAL": 0.79,
    "CNSR": 0,
    "EVNTDESC": "DEATH",
    "STARTDT": "2020-07-24",
    "ADT": "2020-08-17",
    "ADY": 25,
    "AGE": 70,
    "AGEGR1": ">=65",
    "SEX": false,
    "MMRSTAT": "pMMR",
    "ECOGBL": 1,
    "SAFFL": "Y",
    "ITTFL": "Y",
    "EFFFL": "Y",
    "ANL01FL": "Y"
  },
  {
    "STUDYID": "KN868",
    "USUBJID": "KN868-0001-0008",
    "TRTP": "Pembrolizumab + Chemo",
    "TRTPN": 1,
    "PARAMCD": "OS",
    "PARAM": "Overall Survival",
    "AVAL": 20.7,
    "CNSR": 1,
    "EVNTDESC": "CENSORED",
    "STARTDT": "2022-01-12",
    "ADT": "2023-10-04",
    "ADY": 631,
    "AGE": 64,
    "AGEGR1": "<65",
    "SEX": false,
    "MMRSTAT": "pMMR",
    "ECOGBL": 0,
    "SAFFL": "Y",
    "ITTFL": "Y",
    "EFFFL": "Y",
    "ANL01FL": "Y"
  },
  {
    "STUDYID": "KN868",
    "USUBJID": "KN868-0001-0008",
    "TRTP": "Pembrolizumab + Chemo",
    "TRTPN": 1,
    "PARAMCD": "PFS",
    "PARAM": "Progression-Free Survival",
    "AVAL": 20.7,
    "CNSR": 1,
    "EVNTDESC": "CENSORED",
    "STARTDT": "2022-01-12",
    "ADT": "2023-10-04",
    "ADY": 631,
    "AGE": 64,
    "AGEGR1": "<65",
    "SEX": false,
    "MMRSTAT": "pMMR",
    "ECOGBL": 0,
    "SAFFL": "Y",
    "ITTFL": "Y",
    "EFFFL": "Y",
    "ANL01FL": "Y"
  },
  {
    "STUDYID": "KN868",
    "USUBJID": "KN868-0001-0009",
    "TRTP": "Pembrolizumab + Chemo",
    "TRTPN": 1,
    "PARAMCD": "OS",
    "PARAM": "Overall Survival",
    "AVAL": 26.97,
    "CNSR": 1,
    "EVNTDESC": "CENSORED",
    "STARTDT": "2021-07-04",
    "ADT": "2023-10-03",
    "ADY": 822,
    "AGE": 70,
    "AGEGR1": ">=65",
    "SEX": false,
    "MMRSTAT": "dMMR",
    "ECOGBL": 0,
    "SAFFL": "Y",
    "ITTFL": "Y",
    "EFFFL": "Y",
    "ANL01FL": "Y"
  },
  {
    "STUDYID": "KN868",
    "USUBJID": "KN868-0001-0009",
    "TRTP": "Pembrolizumab + Chemo",
    "TRTPN": 1,
    "PARAMCD": "PFS",
    "PARAM": "Progression-Free Survival",
    "AVAL": 26.97,
    "CNSR": 1,
    "EVNTDESC": "CENSORED",
    "STARTDT": "2021-07-04",
    "ADT": "2023-10-03",
    "ADY": 822,
    "AGE": 70,
    "AGEGR1": ">=65",
    "SEX": false,
    "MMRSTAT": "dMMR",
    "ECOGBL": 0,
    "SAFFL": "Y",
    "ITTFL": "Y",
    "EFFFL": "Y",
    "ANL01FL": "Y"
  },
  {
    "STUDYID": "KN868",
    "USUBJID": "KN868-0001-0010",
    "TRTP": "Placebo + Chemo",
    "TRTPN": 2,
    "PARAMCD": "OS",
    "PARAM": "Overall Survival",
    "AVAL": 20.39,
    "CNSR": 0,
    "EVNTDESC": "DEATH",
    "STARTDT": "2021-05-14",
    "ADT": "2023-01-25",
    "ADY": 622,
    "AGE": 79,
    "AGEGR1": ">=65",
    "SEX": false,
    "MMRSTAT": "pMMR",
    "ECOGBL": 1,
    "SAFFL": "Y",
    "ITTFL": "Y",
    "EFFFL": "Y",
    "ANL01FL": "Y"
  },
  {
    "STUDYID": "KN868",
    "USUBJID": "KN868-0001-0010",
    "TRTP": "Placebo + Chemo",
    "TRTPN": 2,
    "PARAMCD": "PFS",
    "PARAM": "Progression-Free Survival",
    "AVAL": 19.27,
    "CNSR": 1,
    "EVNTDESC": "CENSORED",
    "STARTDT": "2021-05-14",
    "ADT": "2022-12-22",
    "ADY": 588,
    "AGE": 79,
    "AGEGR1": ">=65",
    "SEX": false,
    "MMRSTAT": "pMMR",
    "ECOGBL": 1,
    "SAFFL": "Y",
    "ITTFL": "Y",
    "EFFFL": "Y",
    "ANL01FL": "Y"
  },
  {
    "STUDYID": "KN868",
    "USUBJID": "KN868-0001-0011",
    "TRTP": "Placebo + Chemo",
    "TRTPN": 2,
    "PARAMCD": "OS",
    "PARAM": "Overall Survival",
    "AVAL": 28.75,
    "CNSR": 1,
    "EVNTDESC": "CENSORED",
    "STARTDT": "2021-05-12",
    "ADT": "2023-10-04",
    "ADY": 876,
    "AGE": 44,
    "AGEGR1": "<65",
    "SEX": false,
    "MMRSTAT": "pMMR",
    "ECOGBL": 0,
    "SAFFL": "Y",
    "ITTFL": "Y",
    "EFFFL": "Y",
    "ANL01FL": "Y"
  },
  {
    "STUDYID": "KN868",
    "USUBJID": "KN868-0001-0011",
    "TRTP": "Placebo + Chemo",
    "TRTPN": 2,
    "PARAMCD": "PFS",
    "PARAM": "Progression-Free Survival",
    "AVAL": 7.28,
    "CNSR": 0,
    "EVNTDESC": "DISEASE PROGRESSION",
    "STARTDT": "2021-05-12",
    "ADT": "2021-12-20",
    "ADY": 223,
    "AGE": 44,
    "AGEGR1": "<65",
    "SEX": false,
    "MMRSTAT": "pMMR",
    "ECOGBL": 0,
    "SAFFL": "Y",
    "ITTFL": "Y",
    "EFFFL": "Y",
    "ANL01FL": "Y"
  },
  {
    "STUDYID": "KN868",
    "USUBJID": "KN868-0001-0012",
    "TRTP": "Placebo + Chemo",
    "TRTPN": 2,
    "PARAMCD": "OS",
    "PARAM": "Overall Survival",
    "AVAL": 22.08,
    "CNSR": 1,
    "EVNTDESC": "CENSORED",
    "STARTDT": "2021-12-04",
    "ADT": "2023-10-07",
    "ADY": 673,
    "AGE": 51,
    "AGEGR1": "<65",
    "SEX": false,
    "MMRSTAT": "pMMR",
    "ECOGBL": 1,
    "SAFFL": "Y",
    "ITTFL": "Y",
    "EFFFL": "Y",
    "ANL01FL": "Y"
  },
  {
    "STUDYID": "KN868",
    "USUBJID": "KN868-0001-0012",
    "TRTP": "Placebo + Chemo",
    "TRTPN": 2,
    "PARAMCD": "PFS",
    "PARAM": "Progression-Free Survival",
    "AVAL": 22.08,
    "CNSR": 1,
    "EVNTDESC": "CENSORED",
    "STARTDT": "2021-12-04",
    "ADT": "2023-10-07",
    "ADY": 673,
    "AGE": 51,
    "AGEGR1": "<65",
    "SEX": false,
    "MMRSTAT": "pMMR",
    "ECOGBL": 1,
    "SAFFL": "Y",
    "ITTFL": "Y",
    "EFFFL": "Y",
    "ANL01FL": "Y"
  },
  {
    "STUDYID": "KN868",
    "USUBJID": "KN868-0001-0013",
    "TRTP": "Pembrolizumab + Chemo",
    "TRTPN": 1,
    "PARAMCD": "OS",
    "PARAM": "Overall Survival",
    "AVAL": 32.46,
    "CNSR": 1,
    "EVNTDESC": "CENSORED",
    "STARTDT": "2021-01-18",
    "ADT": "2023-10-03",
    "ADY": 989,
    "AGE": 72,
    "AGEGR1": ">=65",
    "SEX": false,
    "MMRSTAT": "dMMR",
    "ECOGBL": 1,
    "SAFFL": "Y",
    "ITTFL": "Y",
    "EFFFL": "Y",
    "ANL01FL": "Y"
  },
  {
    "STUDYID": "KN868",
    "USUBJID": "KN868-0001-0013",
    "TRTP": "Pembrolizumab + Chemo",
    "TRTPN": 1,
    "PARAMCD": "PFS",
    "PARAM": "Progression-Free Survival",
    "AVAL": 28.95,
    "CNSR": 0,
    "EVNTDESC": "DISEASE PROGRESSION",
    "STARTDT": "2021-01-18",
    "ADT": "2023-06-18",
    "ADY": 882,
    "AGE": 72,
    "AGEGR1": ">=65",
    "SEX": false,
    "MMRSTAT": "dMMR",
    "ECOGBL": 1,
    "SAFFL": "Y",
    "ITTFL": "Y",
    "EFFFL": "Y",
    "ANL01FL": "Y"
  },
  {
    "STUDYID": "KN868",
    "USUBJID": "KN868-0001-0014",
    "TRTP": "Placebo + Chemo",
    "TRTPN": 2,
    "PARAMCD": "OS",
    "PARAM": "Overall Survival",
    "AVAL": 8.35,
    "CNSR": 0,
    "EVNTDESC": "DEATH",
    "STARTDT": "2020-03-26",
    "ADT": "2020-12-05",
    "ADY": 255,
    "AGE": 63,
    "AGEGR1": "<65",
    "SEX": false,
    "MMRSTAT": "pMMR",
    "ECOGBL": 1,
    "SAFFL": "Y",
    "ITTFL": "Y",
    "EFFFL": "Y",
    "ANL01FL": "Y"
  },
  {
    "STUDYID": "KN868",
    "USUBJID": "KN868-0001-0014",
    "TRTP": "Placebo + Chemo",
    "TRTPN": 2,
    "PARAMCD": "PFS",
    "PARAM": "Progression-Free Survival",
    "AVAL": 4.54,
    "CNSR": 0,
    "EVNTDESC": "DISEASE PROGRESSION",
    "STARTDT": "2020-03-26",
    "ADT": "2020-08-11",
    "ADY": 139,
    "AGE": 63,
    "AGEGR1": "<65",
    "SEX": false,
    "MMRSTAT": "pMMR",
    "ECOGBL": 1,
    "SAFFL": "Y",
    "ITTFL": "Y",
    "EFFFL": "Y",
    "ANL01FL": "Y"
  },
  {
    "STUDYID": "KN868",
    "USUBJID": "KN868-0001-0015",
    "TRTP": "Pembrolizumab + Chemo",
    "TRTPN": 1,
    "PARAMCD": "PFS",
    "PARAM": "Progression-Free Survival",
    "AVAL": 22.19,
    "CNSR": 0,
    "EVNTDESC": "DISEASE PROGRESSION",
    "STARTDT": "2021-04-09",
    "ADT": "2023-02-13",
    "ADY": 676,
    "AGE": 57,
    "AGEGR1": "<65",
    "SEX": false,
    "MMRSTAT": "dMMR",
    "ECOGBL": 1,
    "SAFFL": "Y",
    "ITTFL": "Y",
    "EFFFL": "Y",
    "ANL01FL": "Y"
  },
  {
    "STUDYID": "KN868",
    "USUBJID": "KN868-0001-0015",
    "TRTP": "Pembrolizumab + Chemo",
    "TRTPN": 1,
    "PARAMCD": "OS",
    "PARAM": "Overall Survival",
    "AVAL": 29.76,
    "CNSR": 1,
    "EVNTDESC": "CENSORED",
    "STARTDT": "2021-04-09",
    "ADT": "2023-10-02",
    "ADY": 907,
    "AGE": 57,
    "AGEGR1": "<65",
    "SEX": false,
    "MMRSTAT": "dMMR",
    "ECOGBL": 1,
    "SAFFL": "Y",
    "ITTFL": "Y",
    "EFFFL": "Y",
    "ANL01FL": "Y"
  },
  {
    "STUDYID": "KN868",
    "USUBJID": "KN868-0001-0016",
    "TRTP": "Placebo + Chemo",
    "TRTPN": 2,
    "PARAMCD": "OS",
    "PARAM": "Overall Survival",
    "AVAL": 8.29,
    "CNSR": 0,
    "EVNTDESC": "DEATH",
    "STARTDT": "2021-09-30",
    "ADT": "2022-06-09",
    "ADY": 253,
    "AGE": 68,
    "AGEGR1": ">=65",
    "SEX": false,
    "MMRSTAT": "dMMR",
    "ECOGBL": 0,
    "SAFFL": "Y",
    "ITTFL": "Y",
    "EFFFL": "Y",
    "ANL01FL": "Y"
  },
  {
    "STUDYID": "KN868",
    "USUBJID": "KN868-0001-0016",
    "TRTP": "Placebo + Chemo",
    "TRTPN": 2,
    "PARAMCD": "PFS",
    "PARAM": "Progression-Free Survival",
    "AVAL": 7.98,
    "CNSR": 0,
    "EVNTDESC": "DISEASE PROGRESSION",
    "STARTDT": "2021-09-30",
    "ADT": "2022-05-31",
    "ADY": 244,
    "AGE": 68,
    "AGEGR1": ">=65",
    "SEX": false,
    "MMRSTAT": "dMMR",
    "ECOGBL": 0,
    "SAFFL": "Y",
    "ITTFL": "Y",
    "EFFFL": "Y",
    "ANL01FL": "Y"
  },
  {
    "STUDYID": "KN868",
    "USUBJID": "KN868-0001-0017",
    "TRTP": "Pembrolizumab + Chemo",
    "TRTPN": 1,
    "PARAMCD": "OS",
    "PARAM": "Overall Survival",
    "AVAL": 26.13,
    "CNSR": 0,
    "EVNTDESC": "DEATH",
    "STARTDT": "2020-03-07",
    "ADT": "2022-05-11",
    "ADY": 796,
    "AGE": 52,
    "AGEGR1": "<65",
    "SEX": false,
    "MMRSTAT": "pMMR",
    "ECOGBL": 1,
    "SAFFL": "Y",
    "ITTFL": "Y",
    "EFFFL": "Y",
    "ANL01FL": "Y"
  },
  {
    "STUDYID": "KN868",
    "USUBJID": "KN868-0001-0017",
    "TRTP": "Pembrolizumab + Chemo",
    "TRTPN": 1,
    "PARAMCD": "PFS",
    "PARAM": "Progression-Free Survival",
    "AVAL": 10.73,
    "CNSR": 0,
    "EVNTDESC": "DISEASE PROGRESSION",
    "STARTDT": "2020-03-07",
    "ADT": "2021-01-28",
    "ADY": 328,
    "AGE": 52,
    "AGEGR1": "<65",
    "SEX": false,
    "MMRSTAT": "pMMR",
    "ECOGBL": 1,
    "SAFFL": "Y",
    "ITTFL": "Y",
    "EFFFL": "Y",
    "ANL01FL": "Y"
  },
  {
    "STUDYID": "KN868",
    "USUBJID": "KN868-0001-0018",
    "TRTP": "Pembrolizumab + Chemo",
    "TRTPN": 1,
    "PARAMCD": "OS",
    "PARAM": "Overall Survival",
    "AVAL": 16.62,
    "CNSR": 0,
    "EVNTDESC": "DEATH",
    "STARTDT": "2021-12-26",
    "ADT": "2023-05-16",
    "ADY": 507,
    "AGE": 69,
    "AGEGR1": ">=65",
    "SEX": false,
    "MMRSTAT": "pMMR",
    "ECOGBL": 1,
    "SAFFL": "Y",
    "ITTFL": "Y",
    "EFFFL": "Y",
    "ANL01FL": "Y"
  },
  {
    "STUDYID": "KN868",
    "USUBJID": "KN868-0001-0018",
    "TRTP": "Pembrolizumab + Chemo",
    "TRTPN": 1,
    "PARAMCD": "PFS",
    "PARAM": "Progression-Free Survival",
    "AVAL": 3.88,
    "CNSR": 0,
    "EVNTDESC": "DISEASE PROGRESSION",
    "STARTDT": "2021-12-26",
    "ADT": "2022-04-23",
    "ADY": 119,
    "AGE": 69,
    "AGEGR1": ">=65",
    "SEX": false,
    "MMRSTAT": "pMMR",
    "ECOGBL": 1,
    "SAFFL": "Y",
    "ITTFL": "Y",
    "EFFFL": "Y",
    "ANL01FL": "Y"
  },
  {
    "STUDYID": "KN868",
    "USUBJID": "KN868-0001-0019",
    "TRTP": "Placebo + Chemo",
    "TRTPN": 2,
    "PARAMCD": "OS",
    "PARAM": "Overall Survival",
    "AVAL": 21.23,
    "CNSR": 0,
    "EVNTDESC": "DEATH",
    "STARTDT": "2020-04-17",
    "ADT": "2022-01-23",
    "ADY": 647,
    "AGE": 80,
    "AGEGR1": ">=65",
    "SEX": false,
    "MMRSTAT": "dMMR",
    "ECOGBL": 0,
    "SAFFL": "Y",
    "ITTFL": "Y",
    "EFFFL": "Y",
    "ANL01FL": "Y"
  },
  {
    "STUDYID": "KN868",
    "USUBJID": "KN868-0001-0019",
    "TRTP": "Placebo + Chemo",
    "TRTPN": 2,
    "PARAMCD": "PFS",
    "PARAM": "Progression-Free Survival",
    "AVAL": 4.69,
    "CNSR": 0,
    "EVNTDESC": "DISEASE PROGRESSION",
    "STARTDT": "2020-04-17",
    "ADT": "2020-09-07",
    "ADY": 144,
    "AGE": 80,
    "AGEGR1": ">=65",
    "SEX": false,
    "MMRSTAT": "dMMR",
    "ECOGBL": 0,
    "SAFFL": "Y",
    "ITTFL": "Y",
    "EFFFL": "Y",
    "ANL01FL": "Y"
  },
  {
    "STUDYID": "KN868",
    "USUBJID": "KN868-0001-0020",
    "TRTP": "Pembrolizumab + Chemo",
    "TRTPN": 1,
    "PARAMCD": "OS",
    "PARAM": "Overall Survival",
    "AVAL": 10.62,
    "CNSR": 0,
    "EVNTDESC": "DEATH",
    "STARTDT": "2021-06-18",
    "ADT": "2022-05-07",
    "ADY": 324,
    "AGE": 68,
    "AGEGR1": ">=65",
    "SEX": false,
    "MMRSTAT": "pMMR",
    "ECOGBL": 0,
    "SAFFL": "Y",
    "ITTFL": "Y",
    "EFFFL": "Y",
    "ANL01FL": "Y"
  },
  {
    "STUDYID": "KN868",
    "USUBJID": "KN868-0001-0020",
    "TRTP": "Pembrolizumab + Chemo",
    "TRTPN": 1,
    "PARAMCD": "PFS",
    "PARAM": "Progression-Free Survival",
    "AVAL": 1.08,
    "CNSR": 0,
    "EVNTDESC": "DISEASE PROGRESSION",
    "STARTDT": "2021-06-18",
    "ADT": "2021-07-21",
    "ADY": 34,
    "AGE": 68,
    "AGEGR1": ">=65",
    "SEX": false,
    "MMRSTAT": "pMMR",
    "ECOGBL": 0,
    "SAFFL": "Y",
    "ITTFL": "Y",
    "EFFFL": "Y",
    "ANL01FL": "Y"
  },
  {
    "STUDYID": "KN868",
    "USUBJID": "KN868-0001-0021",
    "TRTP": "Placebo + Chemo",
    "TRTPN": 2,
    "PARAMCD": "OS",
    "PARAM": "Overall Survival",
    "AVAL": 2.78,
    "CNSR": 0,
    "EVNTDESC": "DEATH",
    "STARTDT": "2021-04-18",
    "ADT": "2021-07-12",
    "ADY": 86,
    "AGE": 71,
    "AGEGR1": ">=65",
    "SEX": false,
    "MMRSTAT": "pMMR",
    "ECOGBL": 0,
    "SAFFL": "Y",
    "ITTFL": "Y",
    "EFFFL": "Y",
    "ANL01FL": "Y"
  },
  {
    "STUDYID": "KN868",
    "USUBJID": "KN868-0001-0021",
    "TRTP": "Placebo + Chemo",
    "TRTPN": 2,
    "PARAMCD": "PFS",
    "PARAM": "Progression-Free Survival",
    "AVAL": 1.29,
    "CNSR": 0,
    "EVNTDESC": "DISEASE PROGRESSION",
    "STARTDT": "2021-04-18",
    "ADT": "2021-05-27",
    "ADY": 40,
    "AGE": 71,
    "AGEGR1": ">=65",
    "SEX": false,
    "MMRSTAT": "pMMR",
    "ECOGBL": 0,
    "SAFFL": "Y",
    "ITTFL": "Y",
    "EFFFL": "Y",
    "ANL01FL": "Y"
  },
  {
    "STUDYID": "KN868",
    "USUBJID": "KN868-0001-0022",
    "TRTP": "Placebo + Chemo",
    "TRTPN": 2,
    "PARAMCD": "OS",
    "PARAM": "Overall Survival",
    "AVAL": 14.65,
    "CNSR": 0,
    "EVNTDESC": "DEATH",
    "STARTDT": "2021-02-06",
    "ADT": "2022-04-28",
    "ADY": 447,
    "AGE": 78,
    "AGEGR1": ">=65",
    "SEX": false,
    "MMRSTAT": "dMMR",
    "ECOGBL": 1,
    "SAFFL": "Y",
    "ITTFL": "Y",
    "EFFFL": "Y",
    "ANL01FL": "Y"
  },
  {
    "STUDYID": "KN868",
    "USUBJID": "KN868-0001-0022",
    "TRTP": "Placebo + Chemo",
    "TRTPN": 2,
    "PARAMCD": "PFS",
    "PARAM": "Progression-Free Survival",
    "AVAL": 5.27,
    "CNSR": 0,
    "EVNTDESC": "DISEASE PROGRESSION",
    "STARTDT": "2021-02-06",
    "ADT": "2021-07-16",
    "ADY": 161,
    "AGE": 78,
    "AGEGR1": ">=65",
    "SEX": false,
    "MMRSTAT": "dMMR",
    "ECOGBL": 1,
    "SAFFL": "Y",
    "ITTFL": "Y",
    "EFFFL": "Y",
    "ANL01FL": "Y"
  },
  {
    "STUDYID": "KN868",
    "USUBJID": "KN868-0001-0023",
    "TRTP": "Pembrolizumab + Chemo",
    "TRTPN": 1,
    "PARAMCD": "OS",
    "PARAM": "Overall Survival",
    "AVAL": 19.09,
    "CNSR": 1,
    "EVNTDESC": "CENSORED",
    "STARTDT": "2022-03-01",
    "ADT": "2023-10-03",
    "ADY": 582,
    "AGE": 87,
    "AGEGR1": ">=65",
    "SEX": false,
    "MMRSTAT": "dMMR",
    "ECOGBL": 0,
    "SAFFL": "Y",
    "ITTFL": "Y",
    "EFFFL": "Y",
    "ANL01FL": "Y"
  },
  {
    "STUDYID": "KN868",
    "USUBJID": "KN868-0001-0023",
    "TRTP": "Pembrolizumab + Chemo",
    "TRTPN": 1,
    "PARAMCD": "PFS",
    "PARAM": "Progression-Free Survival",
    "AVAL": 19.09,
    "CNSR": 1,
    "EVNTDESC": "CENSORED",
    "STARTDT": "2022-03-01",
    "ADT": "2023-10-03",
    "ADY": 582,
    "AGE": 87,
    "AGEGR1": ">=65",
    "SEX": false,
    "MMRSTAT": "dMMR",
    "ECOGBL": 0,
    "SAFFL": "Y",
    "ITTFL": "Y",
    "EFFFL": "Y",
    "ANL01FL": "Y"
  },
  {
    "STUDYID": "KN868",
    "USUBJID": "KN868-0001-0024",
    "TRTP": "Pembrolizumab + Chemo",
    "TRTPN": 1,
    "PARAMCD": "OS",
    "PARAM": "Overall Survival",
    "AVAL": 40.6,
    "CNSR": 1,
    "EVNTDESC": "CENSORED",
    "STARTDT": "2020-05-18",
    "ADT": "2023-10-06",
    "ADY": 1237,
    "AGE": 71,
    "AGEGR1": ">=65",
    "SEX": false,
    "MMRSTAT": "pMMR",
    "ECOGBL": 1,
    "SAFFL": "Y",
    "ITTFL": "Y",
    "EFFFL": "Y",
    "ANL01FL": "Y"
  },
  {
    "STUDYID": "KN868",
    "USUBJID": "KN868-0001-0024",
    "TRTP": "Pembrolizumab + Chemo",
    "TRTPN": 1,
    "PARAMCD": "PFS",
    "PARAM": "Progression-Free Survival",
    "AVAL": 14.25,
    "CNSR": 0,
    "EVNTDESC": "DISEASE PROGRESSION",
    "STARTDT": "2020-05-18",
    "ADT": "2021-07-26",
    "ADY": 435,
    "AGE": 71,
    "AGEGR1": ">=65",
    "SEX": false,
    "MMRSTAT": "pMMR",
    "ECOGBL": 1,
    "SAFFL": "Y",
    "ITTFL": "Y",
    "EFFFL": "Y",
    "ANL01FL": "Y"
  },
  {
    "STUDYID": "KN868",
    "USUBJID": "KN868-0001-0025",
    "TRTP": "Pembrolizumab + Chemo",
    "TRTPN": 1,
    "PARAMCD": "OS",
    "PARAM": "Overall Survival",
    "AVAL": 11.25,
    "CNSR": 0,
    "EVNTDESC": "DEATH",
    "STARTDT": "2021-07-02",
    "ADT": "2022-06-09",
    "ADY": 343,
    "AGE": 65,
    "AGEGR1": ">=65",
    "SEX": false,
    "MMRSTAT": "pMMR",
    "ECOGBL": 0,
    "SAFFL": "Y",
    "ITTFL": "Y",
    "EFFFL": "Y",
    "ANL01FL": "Y"
  },
  {
    "STUDYID": "KN868",
    "USUBJID": "KN868-0001-0025",
    "TRTP": "Pembrolizumab + Chemo",
    "TRTPN": 1,
    "PARAMCD": "PFS",
    "PARAM": "Progression-Free Survival",
    "AVAL": 0.99,
    "CNSR": 0,
    "EVNTDESC": "DEATH",
    "STARTDT": "2021-07-02",
    "ADT": "2021-08-01",
    "ADY": 31,
    "AGE": 65,
    "AGEGR1": ">=65",
    "SEX": false,
    "MMRSTAT": "pMMR",
    "ECOGBL": 0,
    "SAFFL": "Y",
    "ITTFL": "Y",
    "EFFFL": "Y",
    "ANL01FL": "Y"
  },
  {
    "STUDYID": "KN868",
    "USUBJID": "KN868-0002-0001",
    "TRTP": "Placebo + Chemo",
    "TRTPN": 2,
    "PARAMCD": "OS",
    "PARAM": "Overall Survival",
    "AVAL": 29.86,
    "CNSR": 1,
    "EVNTDESC": "CENSORED",
    "STARTDT": "2021-04-11",
    "ADT": "2023-10-07",
    "ADY": 910,
    "AGE": 66,
    "AGEGR1": ">=65",
    "SEX": false,
    "MMRSTAT": "pMMR",
    "ECOGBL": 0,
    "SAFFL": "Y",
    "ITTFL": "Y",
    "EFFFL": "Y",
    "ANL01FL": "Y"
  },
  {
    "STUDYID": "KN868",
    "USUBJID": "KN868-0002-0001",
    "TRTP": "Placebo + Chemo",
    "TRTPN": 2,
    "PARAMCD": "PFS",
    "PARAM": "Progression-Free Survival",
    "AVAL": 29.86,
    "CNSR": 1,
    "EVNTDESC": "CENSORED",
    "STARTDT": "2021-04-11",
    "ADT": "2023-10-07",
    "ADY": 910,
    "AGE": 66,
    "AGEGR1": ">=65",
    "SEX": false,
    "MMRSTAT": "pMMR",
    "ECOGBL": 0,
    "SAFFL": "Y",
    "ITTFL": "Y",
    "EFFFL": "Y",
    "ANL01FL": "Y"
  },
  {
    "STUDYID": "KN868",
    "USUBJID": "KN868-0002-0002",
    "TRTP": "Pembrolizumab + Chemo",
    "TRTPN": 1,
    "PARAMCD": "OS",
    "PARAM": "Overall Survival",
    "AVAL": 20.37,
    "CNSR": 1,
    "EVNTDESC": "CENSORED",
    "STARTDT": "2022-01-22",
    "ADT": "2023-10-04",
    "ADY": 621,
    "AGE": 49,
    "AGEGR1": "<65",
    "SEX": false,
    "MMRSTAT": "dMMR",
    "ECOGBL": 0,
    "SAFFL": "Y",
    "ITTFL": "Y",
    "EFFFL": "Y",
    "ANL01FL": "Y"
  },
  {
    "STUDYID": "KN868",
    "USUBJID": "KN868-0002-0002",
    "TRTP": "Pembrolizumab + Chemo",
    "TRTPN": 1,
    "PARAMCD": "PFS",
    "PARAM": "Progression-Free Survival",
    "AVAL": 20.37,
    "CNSR": 1,
    "EVNTDESC": "CENSORED",
    "STARTDT": "2022-01-22",
    "ADT": "2023-10-04",
    "ADY": 621,
    "AGE": 49,
    "AGEGR1": "<65",
    "SEX": false,
    "MMRSTAT": "dMMR",
    "ECOGBL": 0,
    "SAFFL": "Y",
    "ITTFL": "Y",
    "EFFFL": "Y",
    "ANL01FL": "Y"
  },
  {
    "STUDYID": "KN868",
    "USUBJID": "KN868-0002-0003",
    "TRTP": "Placebo + Chemo",
    "TRTPN": 2,
    "PARAMCD": "PFS",
    "PARAM": "Progression-Free Survival",
    "AVAL": 7.02,
    "CNSR": 0,
    "EVNTDESC": "DISEASE PROGRESSION",
    "STARTDT": "2020-10-05",
    "ADT": "2021-05-07",
    "ADY": 215,
    "AGE": 64,
    "AGEGR1": "<65",
    "SEX": false,
    "MMRSTAT": "pMMR",
    "ECOGBL": 1,
    "SAFFL": "Y",
    "ITTFL": "Y",
    "EFFFL": "Y",
    "ANL01FL": "Y"
  },
  {
    "STUDYID": "KN868",
    "USUBJID": "KN868-0002-0003",
    "TRTP": "Placebo + Chemo",
    "TRTPN": 2,
    "PARAMCD": "OS",
    "PARAM": "Overall Survival",
    "AVAL": 9.43,
    "CNSR": 0,
    "EVNTDESC": "DEATH",
    "STARTDT": "2020-10-05",
    "ADT": "2021-07-19",
    "ADY": 288,
    "AGE": 64,
    "AGEGR1": "<65",
    "SEX": false,
    "MMRSTAT": "pMMR",
    "ECOGBL": 1,
    "SAFFL": "Y",
    "ITTFL": "Y",
    "EFFFL": "Y",
    "ANL01FL": "Y"
  },
  {
    "STUDYID": "KN868",
    "USUBJID": "KN868-0002-0004",
    "TRTP": "Pembrolizumab + Chemo",
    "TRTPN": 1,
    "PARAMCD": "OS",
    "PARAM": "Overall Survival",
    "AVAL": 39.68,
    "CNSR": 1,
    "EVNTDESC": "CENSORED",
    "STARTDT": "2020-06-13",
    "ADT": "2023-10-04",
    "ADY": 1209,
    "AGE": 69,
    "AGEGR1": ">=65",
    "SEX": false,
    "MMRSTAT": "pMMR",
    "ECOGBL": 0,
    "SAFFL": "Y",
    "ITTFL": "Y",
    "EFFFL": "Y",
    "ANL01FL": "Y"
  },
  {
    "STUDYID": "KN868",
    "USUBJID": "KN868-0002-0004",
    "TRTP": "Pembrolizumab + Chemo",
    "TRTPN": 1,
    "PARAMCD": "PFS",
    "PARAM": "Progression-Free Survival",
    "AVAL": 16.41,
    "CNSR": 0,
    "EVNTDESC": "DISEASE PROGRESSION",
    "STARTDT": "2020-06-13",
    "ADT": "2021-10-26",
    "ADY": 501,
    "AGE": 69,
    "AGEGR1": ">=65",
    "SEX": false,
    "MMRSTAT": "pMMR",
    "ECOGBL": 0,
    "SAFFL": "Y",
    "ITTFL": "Y",
    "EFFFL": "Y",
    "ANL01FL": "Y"
  },
  {
    "STUDYID": "KN868",
    "USUBJID": "KN868-0002-0005",
    "TRTP": "Placebo + Chemo",
    "TRTPN": 2,
    "PARAMCD": "OS",
    "PARAM": "Overall Survival",
    "AVAL": 24.14,
    "CNSR": 0,
    "EVNTDESC": "DEATH",
    "STARTDT": "2021-07-27",
    "ADT": "2023-08-01",
    "ADY": 736,
    "AGE": 50,
    "AGEGR1": "<65",
    "SEX": false,
    "MMRSTAT": "pMMR",
    "ECOGBL": 0,
    "SAFFL": "Y",
    "ITTFL": "Y",
    "EFFFL": "Y",
    "ANL01FL": "Y"
  },
  {
    "STUDYID": "KN868",
    "USUBJID": "KN868-0002-0005",
    "TRTP": "Placebo + Chemo",
    "TRTPN": 2,
    "PARAMCD": "PFS",
    "PARAM": "Progression-Free Survival",
    "AVAL": 4.11,
    "CNSR": 1,
    "EVNTDESC": "CENSORED",
    "STARTDT": "2021-07-27",
    "ADT": "2021-11-29",
    "ADY": 126,
    "AGE": 50,
    "AGEGR1": "<65",
    "SEX": false,
    "MMRSTAT": "pMMR",
    "ECOGBL": 0,
    "SAFFL": "Y",
    "ITTFL": "Y",
    "EFFFL": "Y",
    "ANL01FL": "Y"
  },
  {
    "STUDYID": "KN868",
    "USUBJID": "KN868-0002-0006",
    "TRTP": "Pembrolizumab + Chemo",
    "TRTPN": 1,
    "PARAMCD": "OS",
    "PARAM": "Overall Survival",
    "AVAL": 25.85,
    "CNSR": 1,
    "EVNTDESC": "CENSORED",
    "STARTDT": "2021-08-11",
    "ADT": "2023-10-07",
    "ADY": 788,
    "AGE": 80,
    "AGEGR1": ">=65",
    "SEX": false,
    "MMRSTAT": "pMMR",
    "ECOGBL": 0,
    "SAFFL": "Y",
    "ITTFL": "Y",
    "EFFFL": "Y",
    "ANL01FL": "Y"
  },
  {
    "STUDYID": "KN868",
    "USUBJID": "KN868-0002-0006",
    "TRTP": "Pembrolizumab + Chemo",
    "TRTPN": 1,
    "PARAMCD": "PFS",
    "PARAM": "Progression-Free Survival",
    "AVAL": 21.56,
    "CNSR": 0,
    "EVNTDESC": "DISEASE PROGRESSION",
    "STARTDT": "2021-08-11",
    "ADT": "2023-05-29",
    "ADY": 657,
    "AGE": 80,
    "AGEGR1": ">=65",
    "SEX": false,
    "MMRSTAT": "pMMR",
    "ECOGBL": 0,
    "SAFFL": "Y",
    "ITTFL": "Y",
    "EFFFL": "Y",
    "ANL01FL": "Y"
  },
  {
    "STUDYID": "KN868",
    "USUBJID": "KN868-0002-0007",
    "TRTP": "Placebo + Chemo",
    "TRTPN": 2,
    "PARAMCD": "OS",
    "PARAM": "Overall Survival",
    "AVAL": 24.07,
    "CNSR": 0,
    "EVNTDESC": "DEATH",
    "STARTDT": "2021-02-06",
    "ADT": "2023-02-09",
    "ADY": 734,
    "AGE": 55,
    "AGEGR1": "<65",
    "SEX": false,
    "MMRSTAT": "pMMR",
    "ECOGBL": 0,
    "SAFFL": "Y",
    "ITTFL": "Y",
    "EFFFL": "Y",
    "ANL01FL": "Y"
  },
  {
    "STUDYID": "KN868",
    "USUBJID": "KN868-0002-0007",
    "TRTP": "Placebo + Chemo",
    "TRTPN": 2,
    "PARAMCD": "PFS",
    "PARAM": "Progression-Free Survival",
    "AVAL": 15.99,
    "CNSR": 0,
    "EVNTDESC": "DISEASE PROGRESSION",
    "STARTDT": "2021-02-06",
    "ADT": "2022-06-08",
    "ADY": 488,
    "AGE": 55,
    "AGEGR1": "<65",
    "SEX": false,
    "MMRSTAT": "pMMR",
    "ECOGBL": 0,
    "SAFFL": "Y",
    "ITTFL": "Y",
    "EFFFL": "Y",
    "ANL01FL": "Y"
  },
  {
    "STUDYID": "KN868",
    "USUBJID": "KN868-0002-0008",
    "TRTP": "Pembrolizumab + Chemo",
    "TRTPN": 1,
    "PARAMCD": "OS",
    "PARAM": "Overall Survival",
    "AVAL": 20.07,
    "CNSR": 1,
    "EVNTDESC": "CENSORED",
    "STARTDT": "2022-01-30",
    "ADT": "2023-10-03",
    "ADY": 612,
    "AGE": 75,
    "AGEGR1": ">=65",
    "SEX": false,
    "MMRSTAT": "dMMR",
    "ECOGBL": 1,
    "SAFFL": "Y",
    "ITTFL": "Y",
    "EFFFL": "Y",
    "ANL01FL": "Y"
  },
  {
    "STUDYID": "KN868",
    "USUBJID": "KN868-0002-0008",
    "TRTP": "Pembrolizumab + Chemo",
    "TRTPN": 1,
    "PARAMCD": "PFS",
    "PARAM": "Progression-Free Survival",
    "AVAL": 20.07,
    "CNSR": 1,
    "EVNTDESC": "CENSORED",
    "STARTDT": "2022-01-30",
    "ADT": "2023-10-03",
    "ADY": 612,
    "AGE": 75,
    "AGEGR1": ">=65",
    "SEX": false,
    "MMRSTAT": "dMMR",
    "ECOGBL": 1,
    "SAFFL": "Y",
    "ITTFL": "Y",
    "EFFFL": "Y",
    "ANL01FL": "Y"
  },
  {
    "STUDYID": "KN868",
    "USUBJID": "KN868-0002-0009",
    "TRTP": "Pembrolizumab + Chemo",
    "TRTPN": 1,
    "PARAMCD": "OS",
    "PARAM": "Overall Survival",
    "AVAL": 21.29,
    "CNSR": 1,
    "EVNTDESC": "CENSORED",
    "STARTDT": "2021-12-27",
    "ADT": "2023-10-06",
    "ADY": 649,
    "AGE": 73,
    "AGEGR1": ">=65",
    "SEX": false,
    "MMRSTAT": "dMMR",
    "ECOGBL": 0,
    "SAFFL": "Y",
    "ITTFL": "Y",
    "EFFFL": "Y",
    "ANL01FL": "Y"
  },
  {
    "STUDYID": "KN868",
    "USUBJID": "KN868-0002-0009",
    "TRTP": "Pembrolizumab + Chemo",
    "TRTPN": 1,
    "PARAMCD": "PFS",
    "PARAM": "Progression-Free Survival",
    "AVAL": 21.29,
    "CNSR": 1,
    "EVNTDESC": "CENSORED",
    "STARTDT": "2021-12-27",
    "ADT": "2023-10-06",
    "ADY": 649,
    "AGE": 73,
    "AGEGR1": ">=65",
    "SEX": false,
    "MMRSTAT": "dMMR",
    "ECOGBL": 0,
    "SAFFL": "Y",
    "ITTFL": "Y",
    "EFFFL": "Y",
    "ANL01FL": "Y"
  },
  {
    "STUDYID": "KN868",
    "USUBJID": "KN868-0002-0010",
    "TRTP": "Placebo + Chemo",
    "TRTPN": 2,
    "PARAMCD": "OS",
    "PARAM": "Overall Survival",
    "AVAL": 21.81,
    "CNSR": 0,
    "EVNTDESC": "DEATH",
    "STARTDT": "2020-05-11",
    "ADT": "2022-03-06",
    "ADY": 665,
    "AGE": 63,
    "AGEGR1": "<65",
    "SEX": false,
    "MMRSTAT": "pMMR",
    "ECOGBL": 1,
    "SAFFL": "Y",
    "ITTFL": "Y",
    "EFFFL": "Y",
    "ANL01FL": "Y"
  },
  {
    "STUDYID": "KN868",
    "USUBJID": "KN868-0002-0010",
    "TRTP": "Placebo + Chemo",
    "TRTPN": 2,
    "PARAMCD": "PFS",
    "PARAM": "Progression-Free Survival",
    "AVAL": 7.01,
    "CNSR": 0,
    "EVNTDESC": "DEATH",
    "STARTDT": "2020-05-11",
    "ADT": "2020-12-10",
    "ADY": 214,
    "AGE": 63,
    "AGEGR1": "<65",
    "SEX": false,
    "MMRSTAT": "pMMR",
    "ECOGBL": 1,
    "SAFFL": "Y",
    "ITTFL": "Y",
    "EFFFL": "Y",
    "ANL01FL": "Y"
  },
  {
    "STUDYID": "KN868",
    "USUBJID": "KN868-0002-0011",
    "TRTP": "Placebo + Chemo",
    "TRTPN": 2,
    "PARAMCD": "OS",
    "PARAM": "Overall Survival",
    "AVAL": 4.86,
    "CNSR": 0,
    "EVNTDESC": "DEATH",
    "STARTDT": "2020-04-09",
    "ADT": "2020-09-04",
    "ADY": 149,
    "AGE": 65,
    "AGEGR1": ">=65",
    "SEX": false,
    "MMRSTAT": "dMMR",
    "ECOGBL": 0,
    "SAFFL": "Y",
    "ITTFL": "Y",
    "EFFFL": "Y",
    "ANL01FL": "Y"
  },
  {
    "STUDYID": "KN868",
    "USUBJID": "KN868-0002-0011",
    "TRTP": "Placebo + Chemo",
    "TRTPN": 2,
    "PARAMCD": "PFS",
    "PARAM": "Progression-Free Survival",
    "AVAL": 3.8,
    "CNSR": 0,
    "EVNTDESC": "DISEASE PROGRESSION",
    "STARTDT": "2020-04-09",
    "ADT": "2020-08-03",
    "ADY": 117,
    "AGE": 65,
    "AGEGR1": ">=65",
    "SEX": false,
    "MMRSTAT": "dMMR",
    "ECOGBL": 0,
    "SAFFL": "Y",
    "ITTFL": "Y",
    "EFFFL": "Y",
    "ANL01FL": "Y"
  },
  {
    "STUDYID": "KN868",
    "USUBJID": "KN868-0002-0012",
    "TRTP": "Placebo + Chemo",
    "TRTPN": 2,
    "PARAMCD": "OS",
    "PARAM": "Overall Survival",
    "AVAL": 40.47,
    "CNSR": 1,
    "EVNTDESC": "CENSORED",
    "STARTDT": "2020-05-21",
    "ADT": "2023-10-05",
    "ADY": 1233,
    "AGE": 73,
    "AGEGR1": ">=65",
    "SEX": false,
    "MMRSTAT": "pMMR",
    "ECOGBL": 0,
    "SAFFL": "Y",
    "ITTFL": "Y",
    "EFFFL": "Y",
    "ANL01FL": "Y"
  },
  {
    "STUDYID": "KN868",
    "USUBJID": "KN868-0002-0012",
    "TRTP": "Placebo + Chemo",
    "TRTPN": 2,
    "PARAMCD": "PFS",
    "PARAM": "Progression-Free Survival",
    "AVAL": 2.37,
    "CNSR": 0,
    "EVNTDESC": "DISEASE PROGRESSION",
    "STARTDT": "2020-05-21",
    "ADT": "2020-08-01",
    "ADY": 73,
    "AGE": 73,
    "AGEGR1": ">=65",
    "SEX": false,
    "MMRSTAT": "pMMR",
    "ECOGBL": 0,
    "SAFFL": "Y",
    "ITTFL": "Y",
    "EFFFL": "Y",
    "ANL01FL": "Y"
  },
  {
    "STUDYID": "KN868",
    "USUBJID": "KN868-0002-0013",
    "TRTP": "Pembrolizumab + Chemo",
    "TRTPN": 1,
    "PARAMCD": "OS",
    "PARAM": "Overall Survival",
    "AVAL": 25.33,
    "CNSR": 1,
    "EVNTDESC": "CENSORED",
    "STARTDT": "2021-08-27",
    "ADT": "2023-10-07",
    "ADY": 772,
    "AGE": 74,
    "AGEGR1": ">=65",
    "SEX": false,
    "MMRSTAT": "pMMR",
    "ECOGBL": 1,
    "SAFFL": "Y",
    "ITTFL": "Y",
    "EFFFL": "Y",
    "ANL01FL": "Y"
  },
  {
    "STUDYID": "KN868",
    "USUBJID": "KN868-0002-0013",
    "TRTP": "Pembrolizumab + Chemo",
    "TRTPN": 1,
    "PARAMCD": "PFS",
    "PARAM": "Progression-Free Survival",
    "AVAL": 8.09,
    "CNSR": 0,
    "EVNTDESC": "DISEASE PROGRESSION",
    "STARTDT": "2021-08-27",
    "ADT": "2022-04-30",
    "ADY": 247,
    "AGE": 74,
    "AGEGR1": ">=65",
    "SEX": false,
    "MMRSTAT": "pMMR",
    "ECOGBL": 1,
    "SAFFL": "Y",
    "ITTFL": "Y",
    "EFFFL": "Y",
    "ANL01FL": "Y"
  },
  {
    "STUDYID": "KN868",
    "USUBJID": "KN868-0002-0014",
    "TRTP": "Placebo + Chemo",
    "TRTPN": 2,
    "PARAMCD": "OS",
    "PARAM": "Overall Survival",
    "AVAL": 11.96,
    "CNSR": 0,
    "EVNTDESC": "DEATH",
    "STARTDT": "2021-04-22",
    "ADT": "2022-04-21",
    "ADY": 365,
    "AGE": 59,
    "AGEGR1": "<65",
    "SEX": false,
    "MMRSTAT": "pMMR",
    "ECOGBL": 0,
    "SAFFL": "Y",
    "ITTFL": "Y",
    "EFFFL": "Y",
    "ANL01FL": "Y"
  },
  {
    "STUDYID": "KN868",
    "USUBJID": "KN868-0002-0014",
    "TRTP": "Placebo + Chemo",
    "TRTPN": 2,
    "PARAMCD": "PFS",
    "PARAM": "Progression-Free Survival",
    "AVAL": 7.79,
    "CNSR": 0,
    "EVNTDESC": "DISEASE PROGRESSION",
    "STARTDT": "2021-04-22",
    "ADT": "2021-12-15",
    "ADY": 238,
    "AGE": 59,
    "AGEGR1": "<65",
    "SEX": false,
    "MMRSTAT": "pMMR",
    "ECOGBL": 0,
    "SAFFL": "Y",
    "ITTFL": "Y",
    "EFFFL": "Y",
    "ANL01FL": "Y"
  },
  {
    "STUDYID": "KN868",
    "USUBJID": "KN868-0002-0015",
    "TRTP": "Placebo + Chemo",
    "TRTPN": 2,
    "PARAMCD": "OS",
    "PARAM": "Overall Survival",
    "AVAL": 10.5,
    "CNSR": 0,
    "EVNTDESC": "DEATH",
    "STARTDT": "2021-02-22",
    "ADT": "2022-01-08",
    "ADY": 321,
    "AGE": 69,
    "AGEGR1": ">=65",
    "SEX": false,
    "MMRSTAT": "pMMR",
    "ECOGBL": 0,
    "SAFFL": "Y",
    "ITTFL": "Y",
    "EFFFL": "Y",
    "ANL01FL": "Y"
  },
  {
    "STUDYID": "KN868",
    "USUBJID": "KN868-0002-0015",
    "TRTP": "Placebo + Chemo",
    "TRTPN": 2,
    "PARAMCD": "PFS",
    "PARAM": "Progression-Free Survival",
    "AVAL": 8.22,
    "CNSR": 0,
    "EVNTDESC": "DISEASE PROGRESSION",
    "STARTDT": "2021-02-22",
    "ADT": "2021-10-30",
    "ADY": 251,
    "AGE": 69,
    "AGEGR1": ">=65",
    "SEX": false,
    "MMRSTAT": "pMMR",
    "ECOGBL": 0,
    "SAFFL": "Y",
    "ITTFL": "Y",
    "EFFFL": "Y",
    "ANL01FL": "Y"
  },
  {
    "STUDYID": "KN868",
    "USUBJID": "KN868-0002-0016",
    "TRTP": "Placebo + Chemo",
    "TRTPN": 2,
    "PARAMCD": "PFS",
    "PARAM": "Progression-Free Survival",
    "AVAL": 0.41,
    "CNSR": 0,
    "EVNTDESC": "DISEASE PROGRESSION",
    "STARTDT": "2020-09-11",
    "ADT": "2020-09-23",
    "ADY": 13,
    "AGE": 77,
    "AGEGR1": ">=65",
    "SEX": false,
    "MMRSTAT": "dMMR",
    "ECOGBL": 0,
    "SAFFL": "Y",
    "ITTFL": "Y",
    "EFFFL": "Y",
    "ANL01FL": "Y"
  },
  {
    "STUDYID": "KN868",
    "USUBJID": "KN868-0002-0016",
    "TRTP": "Placebo + Chemo",
    "TRTPN": 2,
    "PARAMCD": "OS",
    "PARAM": "Overall Survival",
    "AVAL": 4.22,
    "CNSR": 0,
    "EVNTDESC": "DEATH",
    "STARTDT": "2020-09-11",
    "ADT": "2021-01-17",
    "ADY": 129,
    "AGE": 77,
    "AGEGR1": ">=65",
    "SEX": false,
    "MMRSTAT": "dMMR",
    "ECOGBL": 0,
    "SAFFL": "Y",
    "ITTFL": "Y",
    "EFFFL": "Y",
    "ANL01FL": "Y"
  },
  {
    "STUDYID": "KN868",
    "USUBJID": "KN868-0002-0017",
    "TRTP": "Placebo + Chemo",
    "TRTPN": 2,
    "PARAMCD": "PFS",
    "PARAM": "Progression-Free Survival",
    "AVAL": 0.96,
    "CNSR": 0,
    "EVNTDESC": "DEATH",
    "STARTDT": "2020-04-15",
    "ADT": "2020-05-14",
    "ADY": 30,
    "AGE": 77,
    "AGEGR1": ">=65",
    "SEX": false,
    "MMRSTAT": "pMMR",
    "ECOGBL": 1,
    "SAFFL": "Y",
    "ITTFL": "Y",
    "EFFFL": "Y",
    "ANL01FL": "Y"
  },
  {
    "STUDYID": "KN868",
    "USUBJID": "KN868-0002-0017",
    "TRTP": "Placebo + Chemo",
    "TRTPN": 2,
    "PARAMCD": "OS",
    "PARAM": "Overall Survival",
    "AVAL": 41.66,
    "CNSR": 1,
    "EVNTDESC": "CENSORED",
    "STARTDT": "2020-04-15",
    "ADT": "2023-10-05",
    "ADY": 1269,
    "AGE": 77,
    "AGEGR1": ">=65",
    "SEX": false,
    "MMRSTAT": "pMMR",
    "ECOGBL": 1,
    "SAFFL": "Y",
    "ITTFL": "Y",
    "EFFFL": "Y",
    "ANL01FL": "Y"
  },
  {
    "STUDYID": "KN868",
    "USUBJID": "KN868-0002-0018",
    "TRTP": "Pembrolizumab + Chemo",
    "TRTPN": 1,
    "PARAMCD": "OS",
    "PARAM": "Overall Survival",
    "AVAL": 28.22,
    "CNSR": 1,
    "EVNTDESC": "CENSORED",
    "STARTDT": "2021-05-30",
    "ADT": "2023-10-06",
    "ADY": 860,
    "AGE": 55,
    "AGEGR1": "<65",
    "SEX": false,
    "MMRSTAT": "pMMR",
    "ECOGBL": 0,
    "SAFFL": "Y",
    "ITTFL": "Y",
    "EFFFL": "Y",
    "ANL01FL": "Y"
  },
  {
    "STUDYID": "KN868",
    "USUBJID": "KN868-0002-0018",
    "TRTP": "Pembrolizumab + Chemo",
    "TRTPN": 1,
    "PARAMCD": "PFS",
    "PARAM": "Progression-Free Survival",
    "AVAL": 7.06,
    "CNSR": 0,
    "EVNTDESC": "DISEASE PROGRESSION",
    "STARTDT": "2021-05-30",
    "ADT": "2021-12-31",
    "ADY": 216,
    "AGE": 55,
    "AGEGR1": "<65",
    "SEX": false,
    "MMRSTAT": "pMMR",
    "ECOGBL": 0,
    "SAFFL": "Y",
    "ITTFL": "Y",
    "EFFFL": "Y",
    "ANL01FL": "Y"
  },
  {
    "STUDYID": "KN868",
    "USUBJID": "KN868-0002-0019",
    "TRTP": "Pembrolizumab + Chemo",
    "TRTPN": 1,
    "PARAMCD": "OS",
    "PARAM": "Overall Survival",
    "AVAL": 20.04,
    "CNSR": 1,
    "EVNTDESC": "CENSORED",
    "STARTDT": "2022-02-01",
    "ADT": "2023-10-04",
    "ADY": 611,
    "AGE": 61,
    "AGEGR1": "<65",
    "SEX": false,
    "MMRSTAT": "pMMR",
    "ECOGBL": 1,
    "SAFFL": "Y",
    "ITTFL": "Y",
    "EFFFL": "Y",
    "ANL01FL": "Y"
  },
  {
    "STUDYID": "KN868",
    "USUBJID": "KN868-0002-0019",
    "TRTP": "Pembrolizumab + Chemo",
    "TRTPN": 1,
    "PARAMCD": "PFS",
    "PARAM": "Progression-Free Survival",
    "AVAL": 20.04,
    "CNSR": 1,
    "EVNTDESC": "CENSORED",
    "STARTDT": "2022-02-01",
    "ADT": "2023-10-04",
    "ADY": 611,
    "AGE": 61,
    "AGEGR1": "<65",
    "SEX": false,
    "MMRSTAT": "pMMR",
    "ECOGBL": 1,
    "SAFFL": "Y",
    "ITTFL": "Y",
    "EFFFL": "Y",
    "ANL01FL": "Y"
  },
  {
    "STUDYID": "KN868",
    "USUBJID": "KN868-0002-0020",
    "TRTP": "Pembrolizumab + Chemo",
    "TRTPN": 1,
    "PARAMCD": "OS",
    "PARAM": "Overall Survival",
    "AVAL": 36.77,
    "CNSR": 0,
    "EVNTDESC": "DEATH",
    "STARTDT": "2020-03-28",
    "ADT": "2023-04-21",
    "ADY": 1120,
    "AGE": 78,
    "AGEGR1": ">=65",
    "SEX": false,
    "MMRSTAT": "dMMR",
    "ECOGBL": 1,
    "SAFFL": "Y",
    "ITTFL": "Y",
    "EFFFL": "Y",
    "ANL01FL": "Y"
  },
  {
    "STUDYID": "KN868",
    "USUBJID": "KN868-0002-0020",
    "TRTP": "Pembrolizumab + Chemo",
    "TRTPN": 1,
    "PARAMCD": "PFS",
    "PARAM": "Progression-Free Survival",
    "AVAL": 9.83,
    "CNSR": 0,
    "EVNTDESC": "DISEASE PROGRESSION",
    "STARTDT": "2020-03-28",
    "ADT": "2021-01-21",
    "ADY": 300,
    "AGE": 78,
    "AGEGR1": ">=65",
    "SEX": false,
    "MMRSTAT": "dMMR",
    "ECOGBL": 1,
    "SAFFL": "Y",
    "ITTFL": "Y",
    "EFFFL": "Y",
    "ANL01FL": "Y"
  },
  {
    "STUDYID": "KN868",
    "USUBJID": "KN868-0002-0021",
    "TRTP": "Placebo + Chemo",
    "TRTPN": 2,
    "PARAMCD": "OS",
    "PARAM": "Overall Survival",
    "AVAL": 33.94,
    "CNSR": 1,
    "EVNTDESC": "CENSORED",
    "STARTDT": "2020-12-02",
    "ADT": "2023-10-01",
    "ADY": 1034,
    "AGE": 76,
    "AGEGR1": ">=65",
    "SEX": false,
    "MMRSTAT": "dMMR",
    "ECOGBL": 0,
    "SAFFL": "Y",
    "ITTFL": "Y",
    "EFFFL": "Y",
    "ANL01FL": "Y"
  },
  {
    "STUDYID": "KN868",
    "USUBJID": "KN868-0002-0021",
    "TRTP": "Placebo + Chemo",
    "TRTPN": 2,
    "PARAMCD": "PFS",
    "PARAM": "Progression-Free Survival",
    "AVAL": 33.15,
    "CNSR": 0,
    "EVNTDESC": "DISEASE PROGRESSION",
    "STARTDT": "2020-12-02",
    "ADT": "2023-09-07",
    "ADY": 1010,
    "AGE": 76,
    "AGEGR1": ">=65",
    "SEX": false,
    "MMRSTAT": "dMMR",
    "ECOGBL": 0,
    "SAFFL": "Y",
    "ITTFL": "Y",
    "EFFFL": "Y",
    "ANL01FL": "Y"
  },
  {
    "STUDYID": "KN868",
    "USUBJID": "KN868-0002-0022",
    "TRTP": "Pembrolizumab + Chemo",
    "TRTPN": 1,
    "PARAMCD": "OS",
    "PARAM": "Overall Survival",
    "AVAL": 26.71,
    "CNSR": 0,
    "EVNTDESC": "DEATH",
    "STARTDT": "2020-05-27",
    "ADT": "2022-08-18",
    "ADY": 814,
    "AGE": 65,
    "AGEGR1": ">=65",
    "SEX": false,
    "MMRSTAT": "dMMR",
    "ECOGBL": 1,
    "SAFFL": "Y",
    "ITTFL": "Y",
    "EFFFL": "Y",
    "ANL01FL": "Y"
  },
  {
    "STUDYID": "KN868",
    "USUBJID": "KN868-0002-0022",
    "TRTP": "Pembrolizumab + Chemo",
    "TRTPN": 1,
    "PARAMCD": "PFS",
    "PARAM": "Progression-Free Survival",
    "AVAL": 21.45,
    "CNSR": 0,
    "EVNTDESC": "DISEASE PROGRESSION",
    "STARTDT": "2020-05-27",
    "ADT": "2022-03-11",
    "ADY": 654,
    "AGE": 65,
    "AGEGR1": ">=65",
    "SEX": false,
    "MMRSTAT": "dMMR",
    "ECOGBL": 1,
    "SAFFL": "Y",
    "ITTFL": "Y",
    "EFFFL": "Y",
    "ANL01FL": "Y"
  },
  {
    "STUDYID": "KN868",
    "USUBJID": "KN868-0002-0023",
    "TRTP": "Pembrolizumab + Chemo",
    "TRTPN": 1,
    "PARAMCD": "OS",
    "PARAM": "Overall Survival",
    "AVAL": 20.55,
    "CNSR": 0,
    "EVNTDESC": "DEATH",
    "STARTDT": "2020-10-19",
    "ADT": "2022-07-07",
    "ADY": 627,
    "AGE": 57,
    "AGEGR1": "<65",
    "SEX": false,
    "MMRSTAT": "pMMR",
    "ECOGBL": 0,
    "SAFFL": "Y",
    "ITTFL": "Y",
    "EFFFL": "Y",
    "ANL01FL": "Y"
  },
  {
    "STUDYID": "KN868",
    "USUBJID": "KN868-0002-0023",
    "TRTP": "Pembrolizumab + Chemo",
    "TRTPN": 1,
    "PARAMCD": "PFS",
    "PARAM": "Progression-Free Survival",
    "AVAL": 12.06,
    "CNSR": 0,
    "EVNTDESC": "DISEASE PROGRESSION",
    "STARTDT": "2020-10-19",
    "ADT": "2021-10-21",
    "ADY": 368,
    "AGE": 57,
    "AGEGR1": "<65",
    "SEX": false,
    "MMRSTAT": "pMMR",
    "ECOGBL": 0,
    "SAFFL": "Y",
    "ITTFL": "Y",
    "EFFFL": "Y",
    "ANL01FL": "Y"
  },
  {
    "STUDYID": "KN868",
    "USUBJID": "KN868-0002-0024",
    "TRTP": "Placebo + Chemo",
    "TRTPN": 2,
    "PARAMCD": "OS",
    "PARAM": "Overall Survival",
    "AVAL": 15.53,
    "CNSR": 0,
    "EVNTDESC": "DEATH",
    "STARTDT": "2020-11-18",
    "ADT": "2022-03-06",
    "ADY": 474,
    "AGE": 75,
    "AGEGR1": ">=65",
    "SEX": false,
    "MMRSTAT": "pMMR",
    "ECOGBL": 0,
    "SAFFL": "Y",
    "ITTFL": "Y",
    "EFFFL": "Y",
    "ANL01FL": "Y"
  },
  {
    "STUDYID": "KN868",
    "USUBJID": "KN868-0002-0024",
    "TRTP": "Placebo + Chemo",
    "TRTPN": 2,
    "PARAMCD": "PFS",
    "PARAM": "Progression-Free Survival",
    "AVAL": 12.22,
    "CNSR": 0,
    "EVNTDESC": "DISEASE PROGRESSION",
    "STARTDT": "2020-11-18",
    "ADT": "2021-11-25",
    "ADY": 373,
    "AGE": 75,
    "AGEGR1": ">=65",
    "SEX": false,
    "MMRSTAT": "pMMR",
    "ECOGBL": 0,
    "SAFFL": "Y",
    "ITTFL": "Y",
    "EFFFL": "Y",
    "ANL01FL": "Y"
  },
  {
    "STUDYID": "KN868",
    "USUBJID": "KN868-0002-0025",
    "TRTP": "Pembrolizumab + Chemo",
    "TRTPN": 1,
    "PARAMCD": "OS",
    "PARAM": "Overall Survival",
    "AVAL": 41,
    "CNSR": 1,
    "EVNTDESC": "CENSORED",
    "STARTDT": "2020-05-04",
    "ADT": "2023-10-04",
    "ADY": 1249,
    "AGE": 51,
    "AGEGR1": "<65",
    "SEX": false,
    "MMRSTAT": "pMMR",
    "ECOGBL": 1,
    "SAFFL": "Y",
    "ITTFL": "Y",
    "EFFFL": "Y",
    "ANL01FL": "Y"
  },
  {
    "STUDYID": "KN868",
    "USUBJID": "KN868-0002-0025",
    "TRTP": "Pembrolizumab + Chemo",
    "TRTPN": 1,
    "PARAMCD": "PFS",
    "PARAM": "Progression-Free Survival",
    "AVAL": 41,
    "CNSR": 1,
    "EVNTDESC": "CENSORED",
    "STARTDT": "2020-05-04",
    "ADT": "2023-10-04",
    "ADY": 1249,
    "AGE": 51,
    "AGEGR1": "<65",
    "SEX": false,
    "MMRSTAT": "pMMR",
    "ECOGBL": 1,
    "SAFFL": "Y",
    "ITTFL": "Y",
    "EFFFL": "Y",
    "ANL01FL": "Y"
  },
  {
    "STUDYID": "KN868",
    "USUBJID": "KN868-0003-0001",
    "TRTP": "Placebo + Chemo",
    "TRTPN": 2,
    "PARAMCD": "OS",
    "PARAM": "Overall Survival",
    "AVAL": 6.06,
    "CNSR": 0,
    "EVNTDESC": "DEATH",
    "STARTDT": "2021-08-13",
    "ADT": "2022-02-13",
    "ADY": 185,
    "AGE": 41,
    "AGEGR1": "<65",
    "SEX": false,
    "MMRSTAT": "pMMR",
    "ECOGBL": 0,
    "SAFFL": "Y",
    "ITTFL": "Y",
    "EFFFL": "Y",
    "ANL01FL": "Y"
  },
  {
    "STUDYID": "KN868",
    "USUBJID": "KN868-0003-0001",
    "TRTP": "Placebo + Chemo",
    "TRTPN": 2,
    "PARAMCD": "PFS",
    "PARAM": "Progression-Free Survival",
    "AVAL": 0.21,
    "CNSR": 0,
    "EVNTDESC": "DISEASE PROGRESSION",
    "STARTDT": "2021-08-13",
    "ADT": "2021-08-19",
    "ADY": 7,
    "AGE": 41,
    "AGEGR1": "<65",
    "SEX": false,
    "MMRSTAT": "pMMR",
    "ECOGBL": 0,
    "SAFFL": "Y",
    "ITTFL": "Y",
    "EFFFL": "Y",
    "ANL01FL": "Y"
  },
  {
    "STUDYID": "KN868",
    "USUBJID": "KN868-0003-0002",
    "TRTP": "Placebo + Chemo",
    "TRTPN": 2,
    "PARAMCD": "OS",
    "PARAM": "Overall Survival",
    "AVAL": 4.42,
    "CNSR": 0,
    "EVNTDESC": "DEATH",
    "STARTDT": "2020-12-19",
    "ADT": "2021-05-03",
    "ADY": 136,
    "AGE": 81,
    "AGEGR1": ">=65",
    "SEX": false,
    "MMRSTAT": "dMMR",
    "ECOGBL": 1,
    "SAFFL": "Y",
    "ITTFL": "Y",
    "EFFFL": "Y",
    "ANL01FL": "Y"
  },
  {
    "STUDYID": "KN868",
    "USUBJID": "KN868-0003-0002",
    "TRTP": "Placebo + Chemo",
    "TRTPN": 2,
    "PARAMCD": "PFS",
    "PARAM": "Progression-Free Survival",
    "AVAL": 1.66,
    "CNSR": 0,
    "EVNTDESC": "DEATH",
    "STARTDT": "2020-12-19",
    "ADT": "2021-02-08",
    "ADY": 52,
    "AGE": 81,
    "AGEGR1": ">=65",
    "SEX": false,
    "MMRSTAT": "dMMR",
    "ECOGBL": 1,
    "SAFFL": "Y",
    "ITTFL": "Y",
    "EFFFL": "Y",
    "ANL01FL": "Y"
  },
  {
    "STUDYID": "KN868",
    "USUBJID": "KN868-0003-0003",
    "TRTP": "Pembrolizumab + Chemo",
    "TRTPN": 1,
    "PARAMCD": "OS",
    "PARAM": "Overall Survival",
    "AVAL": 19.81,
    "CNSR": 1,
    "EVNTDESC": "CENSORED",
    "STARTDT": "2022-02-10",
    "ADT": "2023-10-06",
    "ADY": 604,
    "AGE": 63,
    "AGEGR1": "<65",
    "SEX": false,
    "MMRSTAT": "pMMR",
    "ECOGBL": 1,
    "SAFFL": "Y",
    "ITTFL": "Y",
    "EFFFL": "Y",
    "ANL01FL": "Y"
  },
  {
    "STUDYID": "KN868",
    "USUBJID": "KN868-0003-0003",
    "TRTP": "Pembrolizumab + Chemo",
    "TRTPN": 1,
    "PARAMCD": "PFS",
    "PARAM": "Progression-Free Survival",
    "AVAL": 19.81,
    "CNSR": 1,
    "EVNTDESC": "CENSORED",
    "STARTDT": "2022-02-10",
    "ADT": "2023-10-06",
    "ADY": 604,
    "AGE": 63,
    "AGEGR1": "<65",
    "SEX": false,
    "MMRSTAT": "pMMR",
    "ECOGBL": 1,
    "SAFFL": "Y",
    "ITTFL": "Y",
    "EFFFL": "Y",
    "ANL01FL": "Y"
  },
  {
    "STUDYID": "KN868",
    "USUBJID": "KN868-0003-0004",
    "TRTP": "Placebo + Chemo",
    "TRTPN": 2,
    "PARAMCD": "OS",
    "PARAM": "Overall Survival",
    "AVAL": 25.69,
    "CNSR": 1,
    "EVNTDESC": "CENSORED",
    "STARTDT": "2021-08-12",
    "ADT": "2023-10-03",
    "ADY": 783,
    "AGE": 79,
    "AGEGR1": ">=65",
    "SEX": false,
    "MMRSTAT": "pMMR",
    "ECOGBL": 0,
    "SAFFL": "Y",
    "ITTFL": "Y",
    "EFFFL": "Y",
    "ANL01FL": "Y"
  },
  {
    "STUDYID": "KN868",
    "USUBJID": "KN868-0003-0004",
    "TRTP": "Placebo + Chemo",
    "TRTPN": 2,
    "PARAMCD": "PFS",
    "PARAM": "Progression-Free Survival",
    "AVAL": 7.29,
    "CNSR": 0,
    "EVNTDESC": "DISEASE PROGRESSION",
    "STARTDT": "2021-08-12",
    "ADT": "2022-03-22",
    "ADY": 223,
    "AGE": 79,
    "AGEGR1": ">=65",
    "SEX": false,
    "MMRSTAT": "pMMR",
    "ECOGBL": 0,
    "SAFFL": "Y",
    "ITTFL": "Y",
    "EFFFL": "Y",
    "ANL01FL": "Y"
  },
  {
    "STUDYID": "KN868",
    "USUBJID": "KN868-0003-0005",
    "TRTP": "Pembrolizumab + Chemo",
    "TRTPN": 1,
    "PARAMCD": "PFS",
    "PARAM": "Progression-Free Survival",
    "AVAL": 2.91,
    "CNSR": 0,
    "EVNTDESC": "DISEASE PROGRESSION",
    "STARTDT": "2021-05-08",
    "ADT": "2021-08-05",
    "ADY": 90,
    "AGE": 60,
    "AGEGR1": "<65",
    "SEX": false,
    "MMRSTAT": "pMMR",
    "ECOGBL": 1,
    "SAFFL": "Y",
    "ITTFL": "Y",
    "EFFFL": "Y",
    "ANL01FL": "Y"
  },
  {
    "STUDYID": "KN868",
    "USUBJID": "KN868-0003-0005",
    "TRTP": "Pembrolizumab + Chemo",
    "TRTPN": 1,
    "PARAMCD": "OS",
    "PARAM": "Overall Survival",
    "AVAL": 12.58,
    "CNSR": 0,
    "EVNTDESC": "DEATH",
    "STARTDT": "2021-05-08",
    "ADT": "2022-05-26",
    "ADY": 384,
    "AGE": 60,
    "AGEGR1": "<65",
    "SEX": false,
    "MMRSTAT": "pMMR",
    "ECOGBL": 1,
    "SAFFL": "Y",
    "ITTFL": "Y",
    "EFFFL": "Y",
    "ANL01FL": "Y"
  },
  {
    "STUDYID": "KN868",
    "USUBJID": "KN868-0003-0006",
    "TRTP": "Pembrolizumab + Chemo",
    "TRTPN": 1,
    "PARAMCD": "OS",
    "PARAM": "Overall Survival",
    "AVAL": 40.97,
    "CNSR": 1,
    "EVNTDESC": "CENSORED",
    "STARTDT": "2020-05-06",
    "ADT": "2023-10-05",
    "ADY": 1248,
    "AGE": 57,
    "AGEGR1": "<65",
    "SEX": false,
    "MMRSTAT": "pMMR",
    "ECOGBL": 1,
    "SAFFL": "Y",
    "ITTFL": "Y",
    "EFFFL": "Y",
    "ANL01FL": "Y"
  },
  {
    "STUDYID": "KN868",
    "USUBJID": "KN868-0003-0006",
    "TRTP": "Pembrolizumab + Chemo",
    "TRTPN": 1,
    "PARAMCD": "PFS",
    "PARAM": "Progression-Free Survival",
    "AVAL": 34.37,
    "CNSR": 0,
    "EVNTDESC": "DISEASE PROGRESSION",
    "STARTDT": "2020-05-06",
    "ADT": "2023-03-18",
    "ADY": 1047,
    "AGE": 57,
    "AGEGR1": "<65",
    "SEX": false,
    "MMRSTAT": "pMMR",
    "ECOGBL": 1,
    "SAFFL": "Y",
    "ITTFL": "Y",
    "EFFFL": "Y",
    "ANL01FL": "Y"
  },
  {
    "STUDYID": "KN868",
    "USUBJID": "KN868-0003-0007",
    "TRTP": "Placebo + Chemo",
    "TRTPN": 2,
    "PARAMCD": "OS",
    "PARAM": "Overall Survival",
    "AVAL": 27.51,
    "CNSR": 0,
    "EVNTDESC": "DEATH",
    "STARTDT": "2020-05-28",
    "ADT": "2022-09-12",
    "ADY": 838,
    "AGE": 47,
    "AGEGR1": "<65",
    "SEX": false,
    "MMRSTAT": "pMMR",
    "ECOGBL": 0,
    "SAFFL": "Y",
    "ITTFL": "Y",
    "EFFFL": "Y",
    "ANL01FL": "Y"
  },
  {
    "STUDYID": "KN868",
    "USUBJID": "KN868-0003-0007",
    "TRTP": "Placebo + Chemo",
    "TRTPN": 2,
    "PARAMCD": "PFS",
    "PARAM": "Progression-Free Survival",
    "AVAL": 14.88,
    "CNSR": 0,
    "EVNTDESC": "DISEASE PROGRESSION",
    "STARTDT": "2020-05-28",
    "ADT": "2021-08-24",
    "ADY": 454,
    "AGE": 47,
    "AGEGR1": "<65",
    "SEX": false,
    "MMRSTAT": "pMMR",
    "ECOGBL": 0,
    "SAFFL": "Y",
    "ITTFL": "Y",
    "EFFFL": "Y",
    "ANL01FL": "Y"
  },
  {
    "STUDYID": "KN868",
    "USUBJID": "KN868-0003-0008",
    "TRTP": "Placebo + Chemo",
    "TRTPN": 2,
    "PARAMCD": "OS",
    "PARAM": "Overall Survival",
    "AVAL": 40.48,
    "CNSR": 0,
    "EVNTDESC": "DEATH",
    "STARTDT": "2020-04-09",
    "ADT": "2023-08-24",
    "ADY": 1233,
    "AGE": 66,
    "AGEGR1": ">=65",
    "SEX": false,
    "MMRSTAT": "pMMR",
    "ECOGBL": 0,
    "SAFFL": "Y",
    "ITTFL": "Y",
    "EFFFL": "Y",
    "ANL01FL": "Y"
  },
  {
    "STUDYID": "KN868",
    "USUBJID": "KN868-0003-0008",
    "TRTP": "Placebo + Chemo",
    "TRTPN": 2,
    "PARAMCD": "PFS",
    "PARAM": "Progression-Free Survival",
    "AVAL": 24.69,
    "CNSR": 0,
    "EVNTDESC": "DEATH",
    "STARTDT": "2020-04-09",
    "ADT": "2022-05-01",
    "ADY": 753,
    "AGE": 66,
    "AGEGR1": ">=65",
    "SEX": false,
    "MMRSTAT": "pMMR",
    "ECOGBL": 0,
    "SAFFL": "Y",
    "ITTFL": "Y",
    "EFFFL": "Y",
    "ANL01FL": "Y"
  },
  {
    "STUDYID": "KN868",
    "USUBJID": "KN868-0003-0009",
    "TRTP": "Pembrolizumab + Chemo",
    "TRTPN": 1,
    "PARAMCD": "OS",
    "PARAM": "Overall Survival",
    "AVAL": 21.45,
    "CNSR": 1,
    "EVNTDESC": "CENSORED",
    "STARTDT": "2021-12-18",
    "ADT": "2023-10-02",
    "ADY": 654,
    "AGE": 61,
    "AGEGR1": "<65",
    "SEX": false,
    "MMRSTAT": "dMMR",
    "ECOGBL": 0,
    "SAFFL": "Y",
    "ITTFL": "Y",
    "EFFFL": "Y",
    "ANL01FL": "Y"
  },
  {
    "STUDYID": "KN868",
    "USUBJID": "KN868-0003-0009",
    "TRTP": "Pembrolizumab + Chemo",
    "TRTPN": 1,
    "PARAMCD": "PFS",
    "PARAM": "Progression-Free Survival",
    "AVAL": 21.45,
    "CNSR": 1,
    "EVNTDESC": "CENSORED",
    "STARTDT": "2021-12-18",
    "ADT": "2023-10-02",
    "ADY": 654,
    "AGE": 61,
    "AGEGR1": "<65",
    "SEX": false,
    "MMRSTAT": "dMMR",
    "ECOGBL": 0,
    "SAFFL": "Y",
    "ITTFL": "Y",
    "EFFFL": "Y",
    "ANL01FL": "Y"
  },
  {
    "STUDYID": "KN868",
    "USUBJID": "KN868-0003-0010",
    "TRTP": "Placebo + Chemo",
    "TRTPN": 2,
    "PARAMCD": "OS",
    "PARAM": "Overall Survival",
    "AVAL": 19.97,
    "CNSR": 1,
    "EVNTDESC": "CENSORED",
    "STARTDT": "2022-02-01",
    "ADT": "2023-10-02",
    "ADY": 609,
    "AGE": 59,
    "AGEGR1": "<65",
    "SEX": false,
    "MMRSTAT": "pMMR",
    "ECOGBL": 1,
    "SAFFL": "Y",
    "ITTFL": "Y",
    "EFFFL": "Y",
    "ANL01FL": "Y"
  },
  {
    "STUDYID": "KN868",
    "USUBJID": "KN868-0003-0010",
    "TRTP": "Placebo + Chemo",
    "TRTPN": 2,
    "PARAMCD": "PFS",
    "PARAM": "Progression-Free Survival",
    "AVAL": 19.97,
    "CNSR": 1,
    "EVNTDESC": "CENSORED",
    "STARTDT": "2022-02-01",
    "ADT": "2023-10-02",
    "ADY": 609,
    "AGE": 59,
    "AGEGR1": "<65",
    "SEX": false,
    "MMRSTAT": "pMMR",
    "ECOGBL": 1,
    "SAFFL": "Y",
    "ITTFL": "Y",
    "EFFFL": "Y",
    "ANL01FL": "Y"
  },
  {
    "STUDYID": "KN868",
    "USUBJID": "KN868-0003-0011",
    "TRTP": "Pembrolizumab + Chemo",
    "TRTPN": 1,
    "PARAMCD": "OS",
    "PARAM": "Overall Survival",
    "AVAL": 28.29,
    "CNSR": 1,
    "EVNTDESC": "CENSORED",
    "STARTDT": "2021-05-29",
    "ADT": "2023-10-07",
    "ADY": 862,
    "AGE": 74,
    "AGEGR1": ">=65",
    "SEX": false,
    "MMRSTAT": "dMMR",
    "ECOGBL": 0,
    "SAFFL": "Y",
    "ITTFL": "Y",
    "EFFFL": "Y",
    "ANL01FL": "Y"
  },
  {
    "STUDYID": "KN868",
    "USUBJID": "KN868-0003-0011",
    "TRTP": "Pembrolizumab + Chemo",
    "TRTPN": 1,
    "PARAMCD": "PFS",
    "PARAM": "Progression-Free Survival",
    "AVAL": 28.29,
    "CNSR": 1,
    "EVNTDESC": "CENSORED",
    "STARTDT": "2021-05-29",
    "ADT": "2023-10-07",
    "ADY": 862,
    "AGE": 74,
    "AGEGR1": ">=65",
    "SEX": false,
    "MMRSTAT": "dMMR",
    "ECOGBL": 0,
    "SAFFL": "Y",
    "ITTFL": "Y",
    "EFFFL": "Y",
    "ANL01FL": "Y"
  },
  {
    "STUDYID": "KN868",
    "USUBJID": "KN868-0003-0012",
    "TRTP": "Placebo + Chemo",
    "TRTPN": 2,
    "PARAMCD": "OS",
    "PARAM": "Overall Survival",
    "AVAL": 6.37,
    "CNSR": 0,
    "EVNTDESC": "DEATH",
    "STARTDT": "2020-10-15",
    "ADT": "2021-04-27",
    "ADY": 195,
    "AGE": 58,
    "AGEGR1": "<65",
    "SEX": false,
    "MMRSTAT": "pMMR",
    "ECOGBL": 0,
    "SAFFL": "Y",
    "ITTFL": "Y",
    "EFFFL": "Y",
    "ANL01FL": "Y"
  },
  {
    "STUDYID": "KN868",
    "USUBJID": "KN868-0003-0012",
    "TRTP": "Placebo + Chemo",
    "TRTPN": 2,
    "PARAMCD": "PFS",
    "PARAM": "Progression-Free Survival",
    "AVAL": 1.96,
    "CNSR": 0,
    "EVNTDESC": "DEATH",
    "STARTDT": "2020-10-15",
    "ADT": "2020-12-14",
    "ADY": 61,
    "AGE": 58,
    "AGEGR1": "<65",
    "SEX": false,
    "MMRSTAT": "pMMR",
    "ECOGBL": 0,
    "SAFFL": "Y",
    "ITTFL": "Y",
    "EFFFL": "Y",
    "ANL01FL": "Y"
  },
  {
    "STUDYID": "KN868",
    "USUBJID": "KN868-0003-0013",
    "TRTP": "Pembrolizumab + Chemo",
    "TRTPN": 1,
    "PARAMCD": "OS",
    "PARAM": "Overall Survival",
    "AVAL": 30.32,
    "CNSR": 1,
    "EVNTDESC": "CENSORED",
    "STARTDT": "2021-03-24",
    "ADT": "2023-10-03",
    "ADY": 924,
    "AGE": 74,
    "AGEGR1": ">=65",
    "SEX": false,
    "MMRSTAT": "pMMR",
    "ECOGBL": 0,
    "SAFFL": "Y",
    "ITTFL": "Y",
    "EFFFL": "Y",
    "ANL01FL": "Y"
  },
  {
    "STUDYID": "KN868",
    "USUBJID": "KN868-0003-0013",
    "TRTP": "Pembrolizumab + Chemo",
    "TRTPN": 1,
    "PARAMCD": "PFS",
    "PARAM": "Progression-Free Survival",
    "AVAL": 6.54,
    "CNSR": 0,
    "EVNTDESC": "DISEASE PROGRESSION",
    "STARTDT": "2021-03-24",
    "ADT": "2021-10-09",
    "ADY": 200,
    "AGE": 74,
    "AGEGR1": ">=65",
    "SEX": false,
    "MMRSTAT": "pMMR",
    "ECOGBL": 0,
    "SAFFL": "Y",
    "ITTFL": "Y",
    "EFFFL": "Y",
    "ANL01FL": "Y"
  },
  {
    "STUDYID": "KN868",
    "USUBJID": "KN868-0003-0014",
    "TRTP": "Placebo + Chemo",
    "TRTPN": 2,
    "PARAMCD": "OS",
    "PARAM": "Overall Survival",
    "AVAL": 8.66,
    "CNSR": 0,
    "EVNTDESC": "DEATH",
    "STARTDT": "2020-11-22",
    "ADT": "2021-08-13",
    "ADY": 265,
    "AGE": 72,
    "AGEGR1": ">=65",
    "SEX": false,
    "MMRSTAT": "pMMR",
    "ECOGBL": 0,
    "SAFFL": "Y",
    "ITTFL": "Y",
    "EFFFL": "Y",
    "ANL01FL": "Y"
  },
  {
    "STUDYID": "KN868",
    "USUBJID": "KN868-0003-0014",
    "TRTP": "Placebo + Chemo",
    "TRTPN": 2,
    "PARAMCD": "PFS",
    "PARAM": "Progression-Free Survival",
    "AVAL": 7.71,
    "CNSR": 0,
    "EVNTDESC": "DISEASE PROGRESSION",
    "STARTDT": "2020-11-22",
    "ADT": "2021-07-15",
    "ADY": 236,
    "AGE": 72,
    "AGEGR1": ">=65",
    "SEX": false,
    "MMRSTAT": "pMMR",
    "ECOGBL": 0,
    "SAFFL": "Y",
    "ITTFL": "Y",
    "EFFFL": "Y",
    "ANL01FL": "Y"
  },
  {
    "STUDYID": "KN868",
    "USUBJID": "KN868-0003-0015",
    "TRTP": "Placebo + Chemo",
    "TRTPN": 2,
    "PARAMCD": "OS",
    "PARAM": "Overall Survival",
    "AVAL": 30.19,
    "CNSR": 1,
    "EVNTDESC": "CENSORED",
    "STARTDT": "2021-04-01",
    "ADT": "2023-10-07",
    "ADY": 920,
    "AGE": 54,
    "AGEGR1": "<65",
    "SEX": false,
    "MMRSTAT": "pMMR",
    "ECOGBL": 0,
    "SAFFL": "Y",
    "ITTFL": "Y",
    "EFFFL": "Y",
    "ANL01FL": "Y"
  },
  {
    "STUDYID": "KN868",
    "USUBJID": "KN868-0003-0015",
    "TRTP": "Placebo + Chemo",
    "TRTPN": 2,
    "PARAMCD": "PFS",
    "PARAM": "Progression-Free Survival",
    "AVAL": 30.19,
    "CNSR": 1,
    "EVNTDESC": "CENSORED",
    "STARTDT": "2021-04-01",
    "ADT": "2023-10-07",
    "ADY": 920,
    "AGE": 54,
    "AGEGR1": "<65",
    "SEX": false,
    "MMRSTAT": "pMMR",
    "ECOGBL": 0,
    "SAFFL": "Y",
    "ITTFL": "Y",
    "EFFFL": "Y",
    "ANL01FL": "Y"
  },
  {
    "STUDYID": "KN868",
    "USUBJID": "KN868-0003-0016",
    "TRTP": "Placebo + Chemo",
    "TRTPN": 2,
    "PARAMCD": "OS",
    "PARAM": "Overall Survival",
    "AVAL": 11.23,
    "CNSR": 0,
    "EVNTDESC": "DEATH",
    "STARTDT": "2021-05-05",
    "ADT": "2022-04-12",
    "ADY": 343,
    "AGE": 81,
    "AGEGR1": ">=65",
    "SEX": false,
    "MMRSTAT": "dMMR",
    "ECOGBL": 0,
    "SAFFL": "Y",
    "ITTFL": "Y",
    "EFFFL": "Y",
    "ANL01FL": "Y"
  },
  {
    "STUDYID": "KN868",
    "USUBJID": "KN868-0003-0016",
    "TRTP": "Placebo + Chemo",
    "TRTPN": 2,
    "PARAMCD": "PFS",
    "PARAM": "Progression-Free Survival",
    "AVAL": 1.4,
    "CNSR": 0,
    "EVNTDESC": "DISEASE PROGRESSION",
    "STARTDT": "2021-05-05",
    "ADT": "2021-06-17",
    "ADY": 44,
    "AGE": 81,
    "AGEGR1": ">=65",
    "SEX": false,
    "MMRSTAT": "dMMR",
    "ECOGBL": 0,
    "SAFFL": "Y",
    "ITTFL": "Y",
    "EFFFL": "Y",
    "ANL01FL": "Y"
  },
  {
    "STUDYID": "KN868",
    "USUBJID": "KN868-0003-0017",
    "TRTP": "Pembrolizumab + Chemo",
    "TRTPN": 1,
    "PARAMCD": "OS",
    "PARAM": "Overall Survival",
    "AVAL": 28.98,
    "CNSR": 1,
    "EVNTDESC": "CENSORED",
    "STARTDT": "2021-05-04",
    "ADT": "2023-10-03",
    "ADY": 883,
    "AGE": 85,
    "AGEGR1": ">=65",
    "SEX": false,
    "MMRSTAT": "pMMR",
    "ECOGBL": 0,
    "SAFFL": "Y",
    "ITTFL": "Y",
    "EFFFL": "Y",
    "ANL01FL": "Y"
  },
  {
    "STUDYID": "KN868",
    "USUBJID": "KN868-0003-0017",
    "TRTP": "Pembrolizumab + Chemo",
    "TRTPN": 1,
    "PARAMCD": "PFS",
    "PARAM": "Progression-Free Survival",
    "AVAL": 6.88,
    "CNSR": 0,
    "EVNTDESC": "DISEASE PROGRESSION",
    "STARTDT": "2021-05-04",
    "ADT": "2021-11-29",
    "ADY": 210,
    "AGE": 85,
    "AGEGR1": ">=65",
    "SEX": false,
    "MMRSTAT": "pMMR",
    "ECOGBL": 0,
    "SAFFL": "Y",
    "ITTFL": "Y",
    "EFFFL": "Y",
    "ANL01FL": "Y"
  },
  {
    "STUDYID": "KN868",
    "USUBJID": "KN868-0003-0018",
    "TRTP": "Placebo + Chemo",
    "TRTPN": 2,
    "PARAMCD": "PFS",
    "PARAM": "Progression-Free Survival",
    "AVAL": 5.1,
    "CNSR": 0,
    "EVNTDESC": "DEATH",
    "STARTDT": "2020-03-17",
    "ADT": "2020-08-19",
    "ADY": 156,
    "AGE": 85,
    "AGEGR1": ">=65",
    "SEX": false,
    "MMRSTAT": "pMMR",
    "ECOGBL": 1,
    "SAFFL": "Y",
    "ITTFL": "Y",
    "EFFFL": "Y",
    "ANL01FL": "Y"
  },
  {
    "STUDYID": "KN868",
    "USUBJID": "KN868-0003-0018",
    "TRTP": "Placebo + Chemo",
    "TRTPN": 2,
    "PARAMCD": "OS",
    "PARAM": "Overall Survival",
    "AVAL": 20.15,
    "CNSR": 0,
    "EVNTDESC": "DEATH",
    "STARTDT": "2020-03-17",
    "ADT": "2021-11-20",
    "ADY": 614,
    "AGE": 85,
    "AGEGR1": ">=65",
    "SEX": false,
    "MMRSTAT": "pMMR",
    "ECOGBL": 1,
    "SAFFL": "Y",
    "ITTFL": "Y",
    "EFFFL": "Y",
    "ANL01FL": "Y"
  },
  {
    "STUDYID": "KN868",
    "USUBJID": "KN868-0003-0019",
    "TRTP": "Placebo + Chemo",
    "TRTPN": 2,
    "PARAMCD": "OS",
    "PARAM": "Overall Survival",
    "AVAL": 29.6,
    "CNSR": 1,
    "EVNTDESC": "CENSORED",
    "STARTDT": "2021-04-18",
    "ADT": "2023-10-06",
    "ADY": 902,
    "AGE": 84,
    "AGEGR1": ">=65",
    "SEX": false,
    "MMRSTAT": "pMMR",
    "ECOGBL": 0,
    "SAFFL": "Y",
    "ITTFL": "Y",
    "EFFFL": "Y",
    "ANL01FL": "Y"
  },
  {
    "STUDYID": "KN868",
    "USUBJID": "KN868-0003-0019",
    "TRTP": "Placebo + Chemo",
    "TRTPN": 2,
    "PARAMCD": "PFS",
    "PARAM": "Progression-Free Survival",
    "AVAL": 13.93,
    "CNSR": 0,
    "EVNTDESC": "DISEASE PROGRESSION",
    "STARTDT": "2021-04-18",
    "ADT": "2022-06-16",
    "ADY": 425,
    "AGE": 84,
    "AGEGR1": ">=65",
    "SEX": false,
    "MMRSTAT": "pMMR",
    "ECOGBL": 0,
    "SAFFL": "Y",
    "ITTFL": "Y",
    "EFFFL": "Y",
    "ANL01FL": "Y"
  },
  {
    "STUDYID": "KN868",
    "USUBJID": "KN868-0003-0020",
    "TRTP": "Placebo + Chemo",
    "TRTPN": 2,
    "PARAMCD": "OS",
    "PARAM": "Overall Survival",
    "AVAL": 25.39,
    "CNSR": 1,
    "EVNTDESC": "CENSORED",
    "STARTDT": "2021-08-25",
    "ADT": "2023-10-07",
    "ADY": 774,
    "AGE": 53,
    "AGEGR1": "<65",
    "SEX": false,
    "MMRSTAT": "pMMR",
    "ECOGBL": 0,
    "SAFFL": "Y",
    "ITTFL": "Y",
    "EFFFL": "Y",
    "ANL01FL": "Y"
  },
  {
    "STUDYID": "KN868",
    "USUBJID": "KN868-0003-0020",
    "TRTP": "Placebo + Chemo",
    "TRTPN": 2,
    "PARAMCD": "PFS",
    "PARAM": "Progression-Free Survival",
    "AVAL": 17.87,
    "CNSR": 0,
    "EVNTDESC": "DISEASE PROGRESSION",
    "STARTDT": "2021-08-25",
    "ADT": "2023-02-20",
    "ADY": 545,
    "AGE": 53,
    "AGEGR1": "<65",
    "SEX": false,
    "MMRSTAT": "pMMR",
    "ECOGBL": 0,
    "SAFFL": "Y",
    "ITTFL": "Y",
    "EFFFL": "Y",
    "ANL01FL": "Y"
  },
  {
    "STUDYID": "KN868",
    "USUBJID": "KN868-0003-0021",
    "TRTP": "Placebo + Chemo",
    "TRTPN": 2,
    "PARAMCD": "OS",
    "PARAM": "Overall Survival",
    "AVAL": 39.19,
    "CNSR": 1,
    "EVNTDESC": "CENSORED",
    "STARTDT": "2020-06-30",
    "ADT": "2023-10-06",
    "ADY": 1194,
    "AGE": 72,
    "AGEGR1": ">=65",
    "SEX": false,
    "MMRSTAT": "pMMR",
    "ECOGBL": 0,
    "SAFFL": "Y",
    "ITTFL": "Y",
    "EFFFL": "Y",
    "ANL01FL": "Y"
  },
  {
    "STUDYID": "KN868",
    "USUBJID": "KN868-0003-0021",
    "TRTP": "Placebo + Chemo",
    "TRTPN": 2,
    "PARAMCD": "PFS",
    "PARAM": "Progression-Free Survival",
    "AVAL": 28.69,
    "CNSR": 0,
    "EVNTDESC": "DEATH",
    "STARTDT": "2020-06-30",
    "ADT": "2022-11-20",
    "ADY": 874,
    "AGE": 72,
    "AGEGR1": ">=65",
    "SEX": false,
    "MMRSTAT": "pMMR",
    "ECOGBL": 0,
    "SAFFL": "Y",
    "ITTFL": "Y",
    "EFFFL": "Y",
    "ANL01FL": "Y"
  },
  {
    "STUDYID": "KN868",
    "USUBJID": "KN868-0003-0022",
    "TRTP": "Placebo + Chemo",
    "TRTPN": 2,
    "PARAMCD": "OS",
    "PARAM": "Overall Survival",
    "AVAL": 13.95,
    "CNSR": 0,
    "EVNTDESC": "DEATH",
    "STARTDT": "2021-07-29",
    "ADT": "2022-09-27",
    "ADY": 426,
    "AGE": 67,
    "AGEGR1": ">=65",
    "SEX": false,
    "MMRSTAT": "pMMR",
    "ECOGBL": 1,
    "SAFFL": "Y",
    "ITTFL": "Y",
    "EFFFL": "Y",
    "ANL01FL": "Y"
  },
  {
    "STUDYID": "KN868",
    "USUBJID": "KN868-0003-0022",
    "TRTP": "Placebo + Chemo",
    "TRTPN": 2,
    "PARAMCD": "PFS",
    "PARAM": "Progression-Free Survival",
    "AVAL": 10.71,
    "CNSR": 0,
    "EVNTDESC": "DISEASE PROGRESSION",
    "STARTDT": "2021-07-29",
    "ADT": "2022-06-20",
    "ADY": 327,
    "AGE": 67,
    "AGEGR1": ">=65",
    "SEX": false,
    "MMRSTAT": "pMMR",
    "ECOGBL": 1,
    "SAFFL": "Y",
    "ITTFL": "Y",
    "EFFFL": "Y",
    "ANL01FL": "Y"
  },
  {
    "STUDYID": "KN868",
    "USUBJID": "KN868-0003-0023",
    "TRTP": "Pembrolizumab + Chemo",
    "TRTPN": 1,
    "PARAMCD": "OS",
    "PARAM": "Overall Survival",
    "AVAL": 35.78,
    "CNSR": 1,
    "EVNTDESC": "CENSORED",
    "STARTDT": "2020-10-09",
    "ADT": "2023-10-03",
    "ADY": 1090,
    "AGE": 55,
    "AGEGR1": "<65",
    "SEX": false,
    "MMRSTAT": "pMMR",
    "ECOGBL": 1,
    "SAFFL": "Y",
    "ITTFL": "Y",
    "EFFFL": "Y",
    "ANL01FL": "Y"
  },
  {
    "STUDYID": "KN868",
    "USUBJID": "KN868-0003-0023",
    "TRTP": "Pembrolizumab + Chemo",
    "TRTPN": 1,
    "PARAMCD": "PFS",
    "PARAM": "Progression-Free Survival",
    "AVAL": 0.86,
    "CNSR": 0,
    "EVNTDESC": "DISEASE PROGRESSION",
    "STARTDT": "2020-10-09",
    "ADT": "2020-11-04",
    "ADY": 27,
    "AGE": 55,
    "AGEGR1": "<65",
    "SEX": false,
    "MMRSTAT": "pMMR",
    "ECOGBL": 1,
    "SAFFL": "Y",
    "ITTFL": "Y",
    "EFFFL": "Y",
    "ANL01FL": "Y"
  },
  {
    "STUDYID": "KN868",
    "USUBJID": "KN868-0003-0024",
    "TRTP": "Placebo + Chemo",
    "TRTPN": 2,
    "PARAMCD": "OS",
    "PARAM": "Overall Survival",
    "AVAL": 20.63,
    "CNSR": 1,
    "EVNTDESC": "CENSORED",
    "STARTDT": "2022-01-13",
    "ADT": "2023-10-03",
    "ADY": 629,
    "AGE": 55,
    "AGEGR1": "<65",
    "SEX": false,
    "MMRSTAT": "pMMR",
    "ECOGBL": 0,
    "SAFFL": "Y",
    "ITTFL": "Y",
    "EFFFL": "Y",
    "ANL01FL": "Y"
  },
  {
    "STUDYID": "KN868",
    "USUBJID": "KN868-0003-0024",
    "TRTP": "Placebo + Chemo",
    "TRTPN": 2,
    "PARAMCD": "PFS",
    "PARAM": "Progression-Free Survival",
    "AVAL": 10.35,
    "CNSR": 0,
    "EVNTDESC": "DISEASE PROGRESSION",
    "STARTDT": "2022-01-13",
    "ADT": "2022-11-24",
    "ADY": 316,
    "AGE": 55,
    "AGEGR1": "<65",
    "SEX": false,
    "MMRSTAT": "pMMR",
    "ECOGBL": 0,
    "SAFFL": "Y",
    "ITTFL": "Y",
    "EFFFL": "Y",
    "ANL01FL": "Y"
  },
  {
    "STUDYID": "KN868",
    "USUBJID": "KN868-0003-0025",
    "TRTP": "Placebo + Chemo",
    "TRTPN": 2,
    "PARAMCD": "OS",
    "PARAM": "Overall Survival",
    "AVAL": 24.28,
    "CNSR": 1,
    "EVNTDESC": "CENSORED",
    "STARTDT": "2021-09-22",
    "ADT": "2023-10-01",
    "ADY": 740,
    "AGE": 83,
    "AGEGR1": ">=65",
    "SEX": false,
    "MMRSTAT": "dMMR",
    "ECOGBL": 1,
    "SAFFL": "Y",
    "ITTFL": "Y",
    "EFFFL": "Y",
    "ANL01FL": "Y"
  },
  {
    "STUDYID": "KN868",
    "USUBJID": "KN868-0003-0025",
    "TRTP": "Placebo + Chemo",
    "TRTPN": 2,
    "PARAMCD": "PFS",
    "PARAM": "Progression-Free Survival",
    "AVAL": 5.28,
    "CNSR": 0,
    "EVNTDESC": "DISEASE PROGRESSION",
    "STARTDT": "2021-09-22",
    "ADT": "2022-03-02",
    "ADY": 162,
    "AGE": 83,
    "AGEGR1": ">=65",
    "SEX": false,
    "MMRSTAT": "dMMR",
    "ECOGBL": 1,
    "SAFFL": "Y",
    "ITTFL": "Y",
    "EFFFL": "Y",
    "ANL01FL": "Y"
  },
  {
    "STUDYID": "KN868",
    "USUBJID": "KN868-0003-0026",
    "TRTP": "Placebo + Chemo",
    "TRTPN": 2,
    "PARAMCD": "OS",
    "PARAM": "Overall Survival",
    "AVAL": 27.99,
    "CNSR": 1,
    "EVNTDESC": "CENSORED",
    "STARTDT": "2021-06-02",
    "ADT": "2023-10-02",
    "ADY": 853,
    "AGE": 68,
    "AGEGR1": ">=65",
    "SEX": false,
    "MMRSTAT": "pMMR",
    "ECOGBL": 1,
    "SAFFL": "Y",
    "ITTFL": "Y",
    "EFFFL": "Y",
    "ANL01FL": "Y"
  },
  {
    "STUDYID": "KN868",
    "USUBJID": "KN868-0003-0026",
    "TRTP": "Placebo + Chemo",
    "TRTPN": 2,
    "PARAMCD": "PFS",
    "PARAM": "Progression-Free Survival",
    "AVAL": 27.99,
    "CNSR": 1,
    "EVNTDESC": "CENSORED",
    "STARTDT": "2021-06-02",
    "ADT": "2023-10-02",
    "ADY": 853,
    "AGE": 68,
    "AGEGR1": ">=65",
    "SEX": false,
    "MMRSTAT": "pMMR",
    "ECOGBL": 1,
    "SAFFL": "Y",
    "ITTFL": "Y",
    "EFFFL": "Y",
    "ANL01FL": "Y"
  },
  {
    "STUDYID": "KN868",
    "USUBJID": "KN868-0003-0027",
    "TRTP": "Placebo + Chemo",
    "TRTPN": 2,
    "PARAMCD": "OS",
    "PARAM": "Overall Survival",
    "AVAL": 12.15,
    "CNSR": 0,
    "EVNTDESC": "DEATH",
    "STARTDT": "2021-12-08",
    "ADT": "2022-12-13",
    "ADY": 371,
    "AGE": 57,
    "AGEGR1": "<65",
    "SEX": false,
    "MMRSTAT": "pMMR",
    "ECOGBL": 1,
    "SAFFL": "Y",
    "ITTFL": "Y",
    "EFFFL": "Y",
    "ANL01FL": "Y"
  },
  {
    "STUDYID": "KN868",
    "USUBJID": "KN868-0003-0027",
    "TRTP": "Placebo + Chemo",
    "TRTPN": 2,
    "PARAMCD": "PFS",
    "PARAM": "Progression-Free Survival",
    "AVAL": 2.27,
    "CNSR": 0,
    "EVNTDESC": "DISEASE PROGRESSION",
    "STARTDT": "2021-12-08",
    "ADT": "2022-02-15",
    "ADY": 70,
    "AGE": 57,
    "AGEGR1": "<65",
    "SEX": false,
    "MMRSTAT": "pMMR",
    "ECOGBL": 1,
    "SAFFL": "Y",
    "ITTFL": "Y",
    "EFFFL": "Y",
    "ANL01FL": "Y"
  },
  {
    "STUDYID": "KN868",
    "USUBJID": "KN868-0004-0001",
    "TRTP": "Placebo + Chemo",
    "TRTPN": 2,
    "PARAMCD": "OS",
    "PARAM": "Overall Survival",
    "AVAL": 8.58,
    "CNSR": 0,
    "EVNTDESC": "DEATH",
    "STARTDT": "2021-07-16",
    "ADT": "2022-04-03",
    "ADY": 262,
    "AGE": 45,
    "AGEGR1": "<65",
    "SEX": false,
    "MMRSTAT": "pMMR",
    "ECOGBL": 0,
    "SAFFL": "Y",
    "ITTFL": "Y",
    "EFFFL": "Y",
    "ANL01FL": "Y"
  },
  {
    "STUDYID": "KN868",
    "USUBJID": "KN868-0004-0001",
    "TRTP": "Placebo + Chemo",
    "TRTPN": 2,
    "PARAMCD": "PFS",
    "PARAM": "Progression-Free Survival",
    "AVAL": 3.48,
    "CNSR": 0,
    "EVNTDESC": "DISEASE PROGRESSION",
    "STARTDT": "2021-07-16",
    "ADT": "2021-10-30",
    "ADY": 107,
    "AGE": 45,
    "AGEGR1": "<65",
    "SEX": false,
    "MMRSTAT": "pMMR",
    "ECOGBL": 0,
    "SAFFL": "Y",
    "ITTFL": "Y",
    "EFFFL": "Y",
    "ANL01FL": "Y"
  },
  {
    "STUDYID": "KN868",
    "USUBJID": "KN868-0004-0002",
    "TRTP": "Pembrolizumab + Chemo",
    "TRTPN": 1,
    "PARAMCD": "OS",
    "PARAM": "Overall Survival",
    "AVAL": 33.67,
    "CNSR": 1,
    "EVNTDESC": "CENSORED",
    "STARTDT": "2020-12-13",
    "ADT": "2023-10-04",
    "ADY": 1026,
    "AGE": 59,
    "AGEGR1": "<65",
    "SEX": false,
    "MMRSTAT": "pMMR",
    "ECOGBL": 1,
    "SAFFL": "Y",
    "ITTFL": "Y",
    "EFFFL": "Y",
    "ANL01FL": "Y"
  },
  {
    "STUDYID": "KN868",
    "USUBJID": "KN868-0004-0002",
    "TRTP": "Pembrolizumab + Chemo",
    "TRTPN": 1,
    "PARAMCD": "PFS",
    "PARAM": "Progression-Free Survival",
    "AVAL": 13.54,
    "CNSR": 0,
    "EVNTDESC": "DEATH",
    "STARTDT": "2020-12-13",
    "ADT": "2022-01-29",
    "ADY": 413,
    "AGE": 59,
    "AGEGR1": "<65",
    "SEX": false,
    "MMRSTAT": "pMMR",
    "ECOGBL": 1,
    "SAFFL": "Y",
    "ITTFL": "Y",
    "EFFFL": "Y",
    "ANL01FL": "Y"
  },
  {
    "STUDYID": "KN868",
    "USUBJID": "KN868-0004-0003",
    "TRTP": "Placebo + Chemo",
    "TRTPN": 2,
    "PARAMCD": "OS",
    "PARAM": "Overall Survival",
    "AVAL": 23.61,
    "CNSR": 0,
    "EVNTDESC": "DEATH",
    "STARTDT": "2020-10-08",
    "ADT": "2022-09-27",
    "ADY": 720,
    "AGE": 45,
    "AGEGR1": "<65",
    "SEX": false,
    "MMRSTAT": "dMMR",
    "ECOGBL": 1,
    "SAFFL": "Y",
    "ITTFL": "Y",
    "EFFFL": "Y",
    "ANL01FL": "Y"
  },
  {
    "STUDYID": "KN868",
    "USUBJID": "KN868-0004-0003",
    "TRTP": "Placebo + Chemo",
    "TRTPN": 2,
    "PARAMCD": "PFS",
    "PARAM": "Progression-Free Survival",
    "AVAL": 5.37,
    "CNSR": 0,
    "EVNTDESC": "DEATH",
    "STARTDT": "2020-10-08",
    "ADT": "2021-03-20",
    "ADY": 164,
    "AGE": 45,
    "AGEGR1": "<65",
    "SEX": false,
    "MMRSTAT": "dMMR",
    "ECOGBL": 1,
    "SAFFL": "Y",
    "ITTFL": "Y",
    "EFFFL": "Y",
    "ANL01FL": "Y"
  },
  {
    "STUDYID": "KN868",
    "USUBJID": "KN868-0004-0004",
    "TRTP": "Placebo + Chemo",
    "TRTPN": 2,
    "PARAMCD": "PFS",
    "PARAM": "Progression-Free Survival",
    "AVAL": 7.24,
    "CNSR": 0,
    "EVNTDESC": "DISEASE PROGRESSION",
    "STARTDT": "2022-02-11",
    "ADT": "2022-09-19",
    "ADY": 221,
    "AGE": 46,
    "AGEGR1": "<65",
    "SEX": false,
    "MMRSTAT": "pMMR",
    "ECOGBL": 0,
    "SAFFL": "Y",
    "ITTFL": "Y",
    "EFFFL": "Y",
    "ANL01FL": "Y"
  },
  {
    "STUDYID": "KN868",
    "USUBJID": "KN868-0004-0004",
    "TRTP": "Placebo + Chemo",
    "TRTPN": 2,
    "PARAMCD": "OS",
    "PARAM": "Overall Survival",
    "AVAL": 19.71,
    "CNSR": 1,
    "EVNTDESC": "CENSORED",
    "STARTDT": "2022-02-11",
    "ADT": "2023-10-04",
    "ADY": 601,
    "AGE": 46,
    "AGEGR1": "<65",
    "SEX": false,
    "MMRSTAT": "pMMR",
    "ECOGBL": 0,
    "SAFFL": "Y",
    "ITTFL": "Y",
    "EFFFL": "Y",
    "ANL01FL": "Y"
  },
  {
    "STUDYID": "KN868",
    "USUBJID": "KN868-0004-0005",
    "TRTP": "Placebo + Chemo",
    "TRTPN": 2,
    "PARAMCD": "PFS",
    "PARAM": "Progression-Free Survival",
    "AVAL": 7.77,
    "CNSR": 0,
    "EVNTDESC": "DISEASE PROGRESSION",
    "STARTDT": "2021-03-09",
    "ADT": "2021-11-01",
    "ADY": 238,
    "AGE": 71,
    "AGEGR1": ">=65",
    "SEX": false,
    "MMRSTAT": "pMMR",
    "ECOGBL": 0,
    "SAFFL": "Y",
    "ITTFL": "Y",
    "EFFFL": "Y",
    "ANL01FL": "Y"
  },
  {
    "STUDYID": "KN868",
    "USUBJID": "KN868-0004-0005",
    "TRTP": "Placebo + Chemo",
    "TRTPN": 2,
    "PARAMCD": "OS",
    "PARAM": "Overall Survival",
    "AVAL": 17.78,
    "CNSR": 0,
    "EVNTDESC": "DEATH",
    "STARTDT": "2021-03-09",
    "ADT": "2022-09-01",
    "ADY": 542,
    "AGE": 71,
    "AGEGR1": ">=65",
    "SEX": false,
    "MMRSTAT": "pMMR",
    "ECOGBL": 0,
    "SAFFL": "Y",
    "ITTFL": "Y",
    "EFFFL": "Y",
    "ANL01FL": "Y"
  },
  {
    "STUDYID": "KN868",
    "USUBJID": "KN868-0004-0006",
    "TRTP": "Pembrolizumab + Chemo",
    "TRTPN": 1,
    "PARAMCD": "OS",
    "PARAM": "Overall Survival",
    "AVAL": 21.12,
    "CNSR": 1,
    "EVNTDESC": "CENSORED",
    "STARTDT": "2021-12-27",
    "ADT": "2023-10-01",
    "ADY": 644,
    "AGE": 54,
    "AGEGR1": "<65",
    "SEX": false,
    "MMRSTAT": "pMMR",
    "ECOGBL": 0,
    "SAFFL": "Y",
    "ITTFL": "Y",
    "EFFFL": "Y",
    "ANL01FL": "Y"
  },
  {
    "STUDYID": "KN868",
    "USUBJID": "KN868-0004-0006",
    "TRTP": "Pembrolizumab + Chemo",
    "TRTPN": 1,
    "PARAMCD": "PFS",
    "PARAM": "Progression-Free Survival",
    "AVAL": 10.77,
    "CNSR": 0,
    "EVNTDESC": "DEATH",
    "STARTDT": "2021-12-27",
    "ADT": "2022-11-20",
    "ADY": 329,
    "AGE": 54,
    "AGEGR1": "<65",
    "SEX": false,
    "MMRSTAT": "pMMR",
    "ECOGBL": 0,
    "SAFFL": "Y",
    "ITTFL": "Y",
    "EFFFL": "Y",
    "ANL01FL": "Y"
  },
  {
    "STUDYID": "KN868",
    "USUBJID": "KN868-0004-0007",
    "TRTP": "Placebo + Chemo",
    "TRTPN": 2,
    "PARAMCD": "PFS",
    "PARAM": "Progression-Free Survival",
    "AVAL": 0.71,
    "CNSR": 0,
    "EVNTDESC": "DISEASE PROGRESSION",
    "STARTDT": "2021-07-24",
    "ADT": "2021-08-15",
    "ADY": 23,
    "AGE": 57,
    "AGEGR1": "<65",
    "SEX": false,
    "MMRSTAT": "dMMR",
    "ECOGBL": 0,
    "SAFFL": "Y",
    "ITTFL": "Y",
    "EFFFL": "Y",
    "ANL01FL": "Y"
  },
  {
    "STUDYID": "KN868",
    "USUBJID": "KN868-0004-0007",
    "TRTP": "Placebo + Chemo",
    "TRTPN": 2,
    "PARAMCD": "OS",
    "PARAM": "Overall Survival",
    "AVAL": 13.96,
    "CNSR": 0,
    "EVNTDESC": "DEATH",
    "STARTDT": "2021-07-24",
    "ADT": "2022-09-22",
    "ADY": 426,
    "AGE": 57,
    "AGEGR1": "<65",
    "SEX": false,
    "MMRSTAT": "dMMR",
    "ECOGBL": 0,
    "SAFFL": "Y",
    "ITTFL": "Y",
    "EFFFL": "Y",
    "ANL01FL": "Y"
  },
  {
    "STUDYID": "KN868",
    "USUBJID": "KN868-0004-0008",
    "TRTP": "Placebo + Chemo",
    "TRTPN": 2,
    "PARAMCD": "PFS",
    "PARAM": "Progression-Free Survival",
    "AVAL": 4.49,
    "CNSR": 0,
    "EVNTDESC": "DISEASE PROGRESSION",
    "STARTDT": "2022-02-09",
    "ADT": "2022-06-26",
    "ADY": 138,
    "AGE": 79,
    "AGEGR1": ">=65",
    "SEX": false,
    "MMRSTAT": "pMMR",
    "ECOGBL": 1,
    "SAFFL": "Y",
    "ITTFL": "Y",
    "EFFFL": "Y",
    "ANL01FL": "Y"
  },
  {
    "STUDYID": "KN868",
    "USUBJID": "KN868-0004-0008",
    "TRTP": "Placebo + Chemo",
    "TRTPN": 2,
    "PARAMCD": "OS",
    "PARAM": "Overall Survival",
    "AVAL": 6.42,
    "CNSR": 0,
    "EVNTDESC": "DEATH",
    "STARTDT": "2022-02-09",
    "ADT": "2022-08-23",
    "ADY": 196,
    "AGE": 79,
    "AGEGR1": ">=65",
    "SEX": false,
    "MMRSTAT": "pMMR",
    "ECOGBL": 1,
    "SAFFL": "Y",
    "ITTFL": "Y",
    "EFFFL": "Y",
    "ANL01FL": "Y"
  },
  {
    "STUDYID": "KN868",
    "USUBJID": "KN868-0004-0009",
    "TRTP": "Placebo + Chemo",
    "TRTPN": 2,
    "PARAMCD": "PFS",
    "PARAM": "Progression-Free Survival",
    "AVAL": 5.85,
    "CNSR": 0,
    "EVNTDESC": "DEATH",
    "STARTDT": "2022-03-03",
    "ADT": "2022-08-28",
    "ADY": 179,
    "AGE": 81,
    "AGEGR1": ">=65",
    "SEX": false,
    "MMRSTAT": "pMMR",
    "ECOGBL": 0,
    "SAFFL": "Y",
    "ITTFL": "Y",
    "EFFFL": "Y",
    "ANL01FL": "Y"
  },
  {
    "STUDYID": "KN868",
    "USUBJID": "KN868-0004-0009",
    "TRTP": "Placebo + Chemo",
    "TRTPN": 2,
    "PARAMCD": "OS",
    "PARAM": "Overall Survival",
    "AVAL": 6.77,
    "CNSR": 0,
    "EVNTDESC": "DEATH",
    "STARTDT": "2022-03-03",
    "ADT": "2022-09-25",
    "ADY": 207,
    "AGE": 81,
    "AGEGR1": ">=65",
    "SEX": false,
    "MMRSTAT": "pMMR",
    "ECOGBL": 0,
    "SAFFL": "Y",
    "ITTFL": "Y",
    "EFFFL": "Y",
    "ANL01FL": "Y"
  },
  {
    "STUDYID": "KN868",
    "USUBJID": "KN868-0004-0010",
    "TRTP": "Placebo + Chemo",
    "TRTPN": 2,
    "PARAMCD": "PFS",
    "PARAM": "Progression-Free Survival",
    "AVAL": 29.43,
    "CNSR": 1,
    "EVNTDESC": "CENSORED",
    "STARTDT": "2021-04-21",
    "ADT": "2023-10-04",
    "ADY": 897,
    "AGE": 53,
    "AGEGR1": "<65",
    "SEX": false,
    "MMRSTAT": "dMMR",
    "ECOGBL": 1,
    "SAFFL": "Y",
    "ITTFL": "Y",
    "EFFFL": "Y",
    "ANL01FL": "Y"
  },
  {
    "STUDYID": "KN868",
    "USUBJID": "KN868-0004-0010",
    "TRTP": "Placebo + Chemo",
    "TRTPN": 2,
    "PARAMCD": "OS",
    "PARAM": "Overall Survival",
    "AVAL": 29.43,
    "CNSR": 1,
    "EVNTDESC": "CENSORED",
    "STARTDT": "2021-04-21",
    "ADT": "2023-10-04",
    "ADY": 897,
    "AGE": 53,
    "AGEGR1": "<65",
    "SEX": false,
    "MMRSTAT": "dMMR",
    "ECOGBL": 1,
    "SAFFL": "Y",
    "ITTFL": "Y",
    "EFFFL": "Y",
    "ANL01FL": "Y"
  },
  {
    "STUDYID": "KN868",
    "USUBJID": "KN868-0004-0011",
    "TRTP": "Pembrolizumab + Chemo",
    "TRTPN": 1,
    "PARAMCD": "PFS",
    "PARAM": "Progression-Free Survival",
    "AVAL": 0.89,
    "CNSR": 0,
    "EVNTDESC": "DISEASE PROGRESSION",
    "STARTDT": "2021-07-19",
    "ADT": "2021-08-15",
    "ADY": 28,
    "AGE": 69,
    "AGEGR1": ">=65",
    "SEX": false,
    "MMRSTAT": "pMMR",
    "ECOGBL": 0,
    "SAFFL": "Y",
    "ITTFL": "Y",
    "EFFFL": "Y",
    "ANL01FL": "Y"
  },
  {
    "STUDYID": "KN868",
    "USUBJID": "KN868-0004-0011",
    "TRTP": "Pembrolizumab + Chemo",
    "TRTPN": 1,
    "PARAMCD": "OS",
    "PARAM": "Overall Survival",
    "AVAL": 26.58,
    "CNSR": 1,
    "EVNTDESC": "CENSORED",
    "STARTDT": "2021-07-19",
    "ADT": "2023-10-06",
    "ADY": 810,
    "AGE": 69,
    "AGEGR1": ">=65",
    "SEX": false,
    "MMRSTAT": "pMMR",
    "ECOGBL": 0,
    "SAFFL": "Y",
    "ITTFL": "Y",
    "EFFFL": "Y",
    "ANL01FL": "Y"
  },
  {
    "STUDYID": "KN868",
    "USUBJID": "KN868-0004-0012",
    "TRTP": "Placebo + Chemo",
    "TRTPN": 2,
    "PARAMCD": "PFS",
    "PARAM": "Progression-Free Survival",
    "AVAL": 3.25,
    "CNSR": 0,
    "EVNTDESC": "DISEASE PROGRESSION",
    "STARTDT": "2020-07-30",
    "ADT": "2020-11-06",
    "ADY": 100,
    "AGE": 48,
    "AGEGR1": "<65",
    "SEX": false,
    "MMRSTAT": "pMMR",
    "ECOGBL": 1,
    "SAFFL": "Y",
    "ITTFL": "Y",
    "EFFFL": "Y",
    "ANL01FL": "Y"
  },
  {
    "STUDYID": "KN868",
    "USUBJID": "KN868-0004-0012",
    "TRTP": "Placebo + Chemo",
    "TRTPN": 2,
    "PARAMCD": "OS",
    "PARAM": "Overall Survival",
    "AVAL": 22.79,
    "CNSR": 0,
    "EVNTDESC": "DEATH",
    "STARTDT": "2020-07-30",
    "ADT": "2022-06-24",
    "ADY": 695,
    "AGE": 48,
    "AGEGR1": "<65",
    "SEX": false,
    "MMRSTAT": "pMMR",
    "ECOGBL": 1,
    "SAFFL": "Y",
    "ITTFL": "Y",
    "EFFFL": "Y",
    "ANL01FL": "Y"
  },
  {
    "STUDYID": "KN868",
    "USUBJID": "KN868-0004-0013",
    "TRTP": "Pembrolizumab + Chemo",
    "TRTPN": 1,
    "PARAMCD": "PFS",
    "PARAM": "Progression-Free Survival",
    "AVAL": 3.44,
    "CNSR": 0,
    "EVNTDESC": "DISEASE PROGRESSION",
    "STARTDT": "2022-01-10",
    "ADT": "2022-04-25",
    "ADY": 106,
    "AGE": 56,
    "AGEGR1": "<65",
    "SEX": false,
    "MMRSTAT": "pMMR",
    "ECOGBL": 0,
    "SAFFL": "Y",
    "ITTFL": "Y",
    "EFFFL": "Y",
    "ANL01FL": "Y"
  },
  {
    "STUDYID": "KN868",
    "USUBJID": "KN868-0004-0013",
    "TRTP": "Pembrolizumab + Chemo",
    "TRTPN": 1,
    "PARAMCD": "OS",
    "PARAM": "Overall Survival",
    "AVAL": 20.7,
    "CNSR": 1,
    "EVNTDESC": "CENSORED",
    "STARTDT": "2022-01-10",
    "ADT": "2023-10-02",
    "ADY": 631,
    "AGE": 56,
    "AGEGR1": "<65",
    "SEX": false,
    "MMRSTAT": "pMMR",
    "ECOGBL": 0,
    "SAFFL": "Y",
    "ITTFL": "Y",
    "EFFFL": "Y",
    "ANL01FL": "Y"
  },
  {
    "STUDYID": "KN868",
    "USUBJID": "KN868-0004-0014",
    "TRTP": "Placebo + Chemo",
    "TRTPN": 2,
    "PARAMCD": "PFS",
    "PARAM": "Progression-Free Survival",
    "AVAL": 7.5,
    "CNSR": 0,
    "EVNTDESC": "DISEASE PROGRESSION",
    "STARTDT": "2021-02-25",
    "ADT": "2021-10-11",
    "ADY": 229,
    "AGE": 62,
    "AGEGR1": "<65",
    "SEX": false,
    "MMRSTAT": "pMMR",
    "ECOGBL": 0,
    "SAFFL": "Y",
    "ITTFL": "Y",
    "EFFFL": "Y",
    "ANL01FL": "Y"
  },
  {
    "STUDYID": "KN868",
    "USUBJID": "KN868-0004-0014",
    "TRTP": "Placebo + Chemo",
    "TRTPN": 2,
    "PARAMCD": "OS",
    "PARAM": "Overall Survival",
    "AVAL": 16.85,
    "CNSR": 0,
    "EVNTDESC": "DEATH",
    "STARTDT": "2021-02-25",
    "ADT": "2022-07-23",
    "ADY": 514,
    "AGE": 62,
    "AGEGR1": "<65",
    "SEX": false,
    "MMRSTAT": "pMMR",
    "ECOGBL": 0,
    "SAFFL": "Y",
    "ITTFL": "Y",
    "EFFFL": "Y",
    "ANL01FL": "Y"
  },
  {
    "STUDYID": "KN868",
    "USUBJID": "KN868-0004-0015",
    "TRTP": "Placebo + Chemo",
    "TRTPN": 2,
    "PARAMCD": "PFS",
    "PARAM": "Progression-Free Survival",
    "AVAL": 2.83,
    "CNSR": 0,
    "EVNTDESC": "DEATH",
    "STARTDT": "2020-04-10",
    "ADT": "2020-07-05",
    "ADY": 87,
    "AGE": 78,
    "AGEGR1": ">=65",
    "SEX": false,
    "MMRSTAT": "pMMR",
    "ECOGBL": 1,
    "SAFFL": "Y",
    "ITTFL": "Y",
    "EFFFL": "Y",
    "ANL01FL": "Y"
  },
  {
    "STUDYID": "KN868",
    "USUBJID": "KN868-0004-0015",
    "TRTP": "Placebo + Chemo",
    "TRTPN": 2,
    "PARAMCD": "OS",
    "PARAM": "Overall Survival",
    "AVAL": 4.99,
    "CNSR": 0,
    "EVNTDESC": "DEATH",
    "STARTDT": "2020-04-10",
    "ADT": "2020-09-09",
    "ADY": 153,
    "AGE": 78,
    "AGEGR1": ">=65",
    "SEX": false,
    "MMRSTAT": "pMMR",
    "ECOGBL": 1,
    "SAFFL": "Y",
    "ITTFL": "Y",
    "EFFFL": "Y",
    "ANL01FL": "Y"
  },
  {
    "STUDYID": "KN868",
    "USUBJID": "KN868-0004-0016",
    "TRTP": "Pembrolizumab + Chemo",
    "TRTPN": 1,
    "PARAMCD": "PFS",
    "PARAM": "Progression-Free Survival",
    "AVAL": 22.77,
    "CNSR": 1,
    "EVNTDESC": "CENSORED",
    "STARTDT": "2021-11-13",
    "ADT": "2023-10-07",
    "ADY": 694,
    "AGE": 52,
    "AGEGR1": "<65",
    "SEX": false,
    "MMRSTAT": "pMMR",
    "ECOGBL": 0,
    "SAFFL": "Y",
    "ITTFL": "Y",
    "EFFFL": "Y",
    "ANL01FL": "Y"
  },
  {
    "STUDYID": "KN868",
    "USUBJID": "KN868-0004-0016",
    "TRTP": "Pembrolizumab + Chemo",
    "TRTPN": 1,
    "PARAMCD": "OS",
    "PARAM": "Overall Survival",
    "AVAL": 22.77,
    "CNSR": 1,
    "EVNTDESC": "CENSORED",
    "STARTDT": "2021-11-13",
    "ADT": "2023-10-07",
    "ADY": 694,
    "AGE": 52,
    "AGEGR1": "<65",
    "SEX": false,
    "MMRSTAT": "pMMR",
    "ECOGBL": 0,
    "SAFFL": "Y",
    "ITTFL": "Y",
    "EFFFL": "Y",
    "ANL01FL": "Y"
  },
  {
    "STUDYID": "KN868",
    "USUBJID": "KN868-0004-0017",
    "TRTP": "Pembrolizumab + Chemo",
    "TRTPN": 1,
    "PARAMCD": "PFS",
    "PARAM": "Progression-Free Survival",
    "AVAL": 0.94,
    "CNSR": 0,
    "EVNTDESC": "DISEASE PROGRESSION",
    "STARTDT": "2022-01-22",
    "ADT": "2022-02-20",
    "ADY": 30,
    "AGE": 69,
    "AGEGR1": ">=65",
    "SEX": false,
    "MMRSTAT": "pMMR",
    "ECOGBL": 1,
    "SAFFL": "Y",
    "ITTFL": "Y",
    "EFFFL": "Y",
    "ANL01FL": "Y"
  },
  {
    "STUDYID": "KN868",
    "USUBJID": "KN868-0004-0017",
    "TRTP": "Pembrolizumab + Chemo",
    "TRTPN": 1,
    "PARAMCD": "OS",
    "PARAM": "Overall Survival",
    "AVAL": 20.3,
    "CNSR": 1,
    "EVNTDESC": "CENSORED",
    "STARTDT": "2022-01-22",
    "ADT": "2023-10-02",
    "ADY": 619,
    "AGE": 69,
    "AGEGR1": ">=65",
    "SEX": false,
    "MMRSTAT": "pMMR",
    "ECOGBL": 1,
    "SAFFL": "Y",
    "ITTFL": "Y",
    "EFFFL": "Y",
    "ANL01FL": "Y"
  },
  {
    "STUDYID": "KN868",
    "USUBJID": "KN868-0004-0018",
    "TRTP": "Pembrolizumab + Chemo",
    "TRTPN": 1,
    "PARAMCD": "PFS",
    "PARAM": "Progression-Free Survival",
    "AVAL": 31.31,
    "CNSR": 0,
    "EVNTDESC": "DISEASE PROGRESSION",
    "STARTDT": "2020-11-19",
    "ADT": "2023-06-30",
    "ADY": 954,
    "AGE": 65,
    "AGEGR1": ">=65",
    "SEX": false,
    "MMRSTAT": "pMMR",
    "ECOGBL": 1,
    "SAFFL": "Y",
    "ITTFL": "Y",
    "EFFFL": "Y",
    "ANL01FL": "Y"
  },
  {
    "STUDYID": "KN868",
    "USUBJID": "KN868-0004-0018",
    "TRTP": "Pembrolizumab + Chemo",
    "TRTPN": 1,
    "PARAMCD": "OS",
    "PARAM": "Overall Survival",
    "AVAL": 34.53,
    "CNSR": 1,
    "EVNTDESC": "CENSORED",
    "STARTDT": "2020-11-19",
    "ADT": "2023-10-06",
    "ADY": 1052,
    "AGE": 65,
    "AGEGR1": ">=65",
    "SEX": false,
    "MMRSTAT": "pMMR",
    "ECOGBL": 1,
    "SAFFL": "Y",
    "ITTFL": "Y",
    "EFFFL": "Y",
    "ANL01FL": "Y"
  },
  {
    "STUDYID": "KN868",
    "USUBJID": "KN868-0004-0019",
    "TRTP": "Pembrolizumab + Chemo",
    "TRTPN": 1,
    "PARAMCD": "OS",
    "PARAM": "Overall Survival",
    "AVAL": 21.52,
    "CNSR": 1,
    "EVNTDESC": "CENSORED",
    "STARTDT": "2021-12-15",
    "ADT": "2023-10-01",
    "ADY": 656,
    "AGE": 83,
    "AGEGR1": ">=65",
    "SEX": false,
    "MMRSTAT": "dMMR",
    "ECOGBL": 1,
    "SAFFL": "Y",
    "ITTFL": "Y",
    "EFFFL": "Y",
    "ANL01FL": "Y"
  },
  {
    "STUDYID": "KN868",
    "USUBJID": "KN868-0004-0019",
    "TRTP": "Pembrolizumab + Chemo",
    "TRTPN": 1,
    "PARAMCD": "PFS",
    "PARAM": "Progression-Free Survival",
    "AVAL": 21.52,
    "CNSR": 1,
    "EVNTDESC": "CENSORED",
    "STARTDT": "2021-12-15",
    "ADT": "2023-10-01",
    "ADY": 656,
    "AGE": 83,
    "AGEGR1": ">=65",
    "SEX": false,
    "MMRSTAT": "dMMR",
    "ECOGBL": 1,
    "SAFFL": "Y",
    "ITTFL": "Y",
    "EFFFL": "Y",
    "ANL01FL": "Y"
  },
  {
    "STUDYID": "KN868",
    "USUBJID": "KN868-0004-0020",
    "TRTP": "Placebo + Chemo",
    "TRTPN": 2,
    "PARAMCD": "PFS",
    "PARAM": "Progression-Free Survival",
    "AVAL": 8.74,
    "CNSR": 0,
    "EVNTDESC": "DISEASE PROGRESSION",
    "STARTDT": "2021-11-12",
    "ADT": "2022-08-05",
    "ADY": 267,
    "AGE": 66,
    "AGEGR1": ">=65",
    "SEX": false,
    "MMRSTAT": "pMMR",
    "ECOGBL": 0,
    "SAFFL": "Y",
    "ITTFL": "Y",
    "EFFFL": "Y",
    "ANL01FL": "Y"
  },
  {
    "STUDYID": "KN868",
    "USUBJID": "KN868-0004-0020",
    "TRTP": "Placebo + Chemo",
    "TRTPN": 2,
    "PARAMCD": "OS",
    "PARAM": "Overall Survival",
    "AVAL": 22.77,
    "CNSR": 1,
    "EVNTDESC": "CENSORED",
    "STARTDT": "2021-11-12",
    "ADT": "2023-10-06",
    "ADY": 694,
    "AGE": 66,
    "AGEGR1": ">=65",
    "SEX": false,
    "MMRSTAT": "pMMR",
    "ECOGBL": 0,
    "SAFFL": "Y",
    "ITTFL": "Y",
    "EFFFL": "Y",
    "ANL01FL": "Y"
  },
  {
    "STUDYID": "KN868",
    "USUBJID": "KN868-0004-0021",
    "TRTP": "Placebo + Chemo",
    "TRTPN": 2,
    "PARAMCD": "PFS",
    "PARAM": "Progression-Free Survival",
    "AVAL": 4.56,
    "CNSR": 0,
    "EVNTDESC": "DISEASE PROGRESSION",
    "STARTDT": "2020-10-30",
    "ADT": "2021-03-18",
    "ADY": 140,
    "AGE": 63,
    "AGEGR1": "<65",
    "SEX": false,
    "MMRSTAT": "pMMR",
    "ECOGBL": 1,
    "SAFFL": "Y",
    "ITTFL": "Y",
    "EFFFL": "Y",
    "ANL01FL": "Y"
  },
  {
    "STUDYID": "KN868",
    "USUBJID": "KN868-0004-0021",
    "TRTP": "Placebo + Chemo",
    "TRTPN": 2,
    "PARAMCD": "OS",
    "PARAM": "Overall Survival",
    "AVAL": 9.01,
    "CNSR": 0,
    "EVNTDESC": "DEATH",
    "STARTDT": "2020-10-30",
    "ADT": "2021-07-31",
    "ADY": 275,
    "AGE": 63,
    "AGEGR1": "<65",
    "SEX": false,
    "MMRSTAT": "pMMR",
    "ECOGBL": 1,
    "SAFFL": "Y",
    "ITTFL": "Y",
    "EFFFL": "Y",
    "ANL01FL": "Y"
  },
  {
    "STUDYID": "KN868",
    "USUBJID": "KN868-0004-0022",
    "TRTP": "Pembrolizumab + Chemo",
    "TRTPN": 1,
    "PARAMCD": "PFS",
    "PARAM": "Progression-Free Survival",
    "AVAL": 4.95,
    "CNSR": 0,
    "EVNTDESC": "DISEASE PROGRESSION",
    "STARTDT": "2021-09-25",
    "ADT": "2022-02-23",
    "ADY": 152,
    "AGE": 53,
    "AGEGR1": "<65",
    "SEX": false,
    "MMRSTAT": "pMMR",
    "ECOGBL": 0,
    "SAFFL": "Y",
    "ITTFL": "Y",
    "EFFFL": "Y",
    "ANL01FL": "Y"
  },
  {
    "STUDYID": "KN868",
    "USUBJID": "KN868-0004-0022",
    "TRTP": "Pembrolizumab + Chemo",
    "TRTPN": 1,
    "PARAMCD": "OS",
    "PARAM": "Overall Survival",
    "AVAL": 13.02,
    "CNSR": 0,
    "EVNTDESC": "DEATH",
    "STARTDT": "2021-09-25",
    "ADT": "2022-10-26",
    "ADY": 397,
    "AGE": 53,
    "AGEGR1": "<65",
    "SEX": false,
    "MMRSTAT": "pMMR",
    "ECOGBL": 0,
    "SAFFL": "Y",
    "ITTFL": "Y",
    "EFFFL": "Y",
    "ANL01FL": "Y"
  },
  {
    "STUDYID": "KN868",
    "USUBJID": "KN868-0004-0023",
    "TRTP": "Placebo + Chemo",
    "TRTPN": 2,
    "PARAMCD": "PFS",
    "PARAM": "Progression-Free Survival",
    "AVAL": 9.47,
    "CNSR": 0,
    "EVNTDESC": "DISEASE PROGRESSION",
    "STARTDT": "2020-06-04",
    "ADT": "2021-03-19",
    "ADY": 289,
    "AGE": 79,
    "AGEGR1": ">=65",
    "SEX": false,
    "MMRSTAT": "pMMR",
    "ECOGBL": 1,
    "SAFFL": "Y",
    "ITTFL": "Y",
    "EFFFL": "Y",
    "ANL01FL": "Y"
  },
  {
    "STUDYID": "KN868",
    "USUBJID": "KN868-0004-0023",
    "TRTP": "Placebo + Chemo",
    "TRTPN": 2,
    "PARAMCD": "OS",
    "PARAM": "Overall Survival",
    "AVAL": 14.21,
    "CNSR": 0,
    "EVNTDESC": "DEATH",
    "STARTDT": "2020-06-04",
    "ADT": "2021-08-11",
    "ADY": 434,
    "AGE": 79,
    "AGEGR1": ">=65",
    "SEX": false,
    "MMRSTAT": "pMMR",
    "ECOGBL": 1,
    "SAFFL": "Y",
    "ITTFL": "Y",
    "EFFFL": "Y",
    "ANL01FL": "Y"
  },
  {
    "STUDYID": "KN868",
    "USUBJID": "KN868-0005-0001",
    "TRTP": "Pembrolizumab + Chemo",
    "TRTPN": 1,
    "PARAMCD": "PFS",
    "PARAM": "Progression-Free Survival",
    "AVAL": 14.92,
    "CNSR": 0,
    "EVNTDESC": "DISEASE PROGRESSION",
    "STARTDT": "2022-01-14",
    "ADT": "2023-04-13",
    "ADY": 455,
    "AGE": 55,
    "AGEGR1": "<65",
    "SEX": false,
    "MMRSTAT": "dMMR",
    "ECOGBL": 0,
    "SAFFL": "Y",
    "ITTFL": "Y",
    "EFFFL": "Y",
    "ANL01FL": "Y"
  },
  {
    "STUDYID": "KN868",
    "USUBJID": "KN868-0005-0001",
    "TRTP": "Pembrolizumab + Chemo",
    "TRTPN": 1,
    "PARAMCD": "OS",
    "PARAM": "Overall Survival",
    "AVAL": 20.32,
    "CNSR": 0,
    "EVNTDESC": "DEATH",
    "STARTDT": "2022-01-14",
    "ADT": "2023-09-25",
    "ADY": 620,
    "AGE": 55,
    "AGEGR1": "<65",
    "SEX": false,
    "MMRSTAT": "dMMR",
    "ECOGBL": 0,
    "SAFFL": "Y",
    "ITTFL": "Y",
    "EFFFL": "Y",
    "ANL01FL": "Y"
  },
  {
    "STUDYID": "KN868",
    "USUBJID": "KN868-0005-0002",
    "TRTP": "Placebo + Chemo",
    "TRTPN": 2,
    "PARAMCD": "PFS",
    "PARAM": "Progression-Free Survival",
    "AVAL": 3.72,
    "CNSR": 0,
    "EVNTDESC": "DEATH",
    "STARTDT": "2021-07-23",
    "ADT": "2021-11-13",
    "ADY": 114,
    "AGE": 66,
    "AGEGR1": ">=65",
    "SEX": false,
    "MMRSTAT": "pMMR",
    "ECOGBL": 1,
    "SAFFL": "Y",
    "ITTFL": "Y",
    "EFFFL": "Y",
    "ANL01FL": "Y"
  },
  {
    "STUDYID": "KN868",
    "USUBJID": "KN868-0005-0002",
    "TRTP": "Placebo + Chemo",
    "TRTPN": 2,
    "PARAMCD": "OS",
    "PARAM": "Overall Survival",
    "AVAL": 26.35,
    "CNSR": 1,
    "EVNTDESC": "CENSORED",
    "STARTDT": "2021-07-23",
    "ADT": "2023-10-03",
    "ADY": 803,
    "AGE": 66,
    "AGEGR1": ">=65",
    "SEX": false,
    "MMRSTAT": "pMMR",
    "ECOGBL": 1,
    "SAFFL": "Y",
    "ITTFL": "Y",
    "EFFFL": "Y",
    "ANL01FL": "Y"
  },
  {
    "STUDYID": "KN868",
    "USUBJID": "KN868-0005-0003",
    "TRTP": "Pembrolizumab + Chemo",
    "TRTPN": 1,
    "PARAMCD": "PFS",
    "PARAM": "Progression-Free Survival",
    "AVAL": 2.44,
    "CNSR": 0,
    "EVNTDESC": "DISEASE PROGRESSION",
    "STARTDT": "2020-06-26",
    "ADT": "2020-09-08",
    "ADY": 75,
    "AGE": 73,
    "AGEGR1": ">=65",
    "SEX": false,
    "MMRSTAT": "pMMR",
    "ECOGBL": 1,
    "SAFFL": "Y",
    "ITTFL": "Y",
    "EFFFL": "Y",
    "ANL01FL": "Y"
  },
  {
    "STUDYID": "KN868",
    "USUBJID": "KN868-0005-0003",
    "TRTP": "Pembrolizumab + Chemo",
    "TRTPN": 1,
    "PARAMCD": "OS",
    "PARAM": "Overall Survival",
    "AVAL": 25.15,
    "CNSR": 0,
    "EVNTDESC": "DEATH",
    "STARTDT": "2020-06-26",
    "ADT": "2022-08-01",
    "ADY": 767,
    "AGE": 73,
    "AGEGR1": ">=65",
    "SEX": false,
    "MMRSTAT": "pMMR",
    "ECOGBL": 1,
    "SAFFL": "Y",
    "ITTFL": "Y",
    "EFFFL": "Y",
    "ANL01FL": "Y"
  },
  {
    "STUDYID": "KN868",
    "USUBJID": "KN868-0005-0004",
    "TRTP": "Placebo + Chemo",
    "TRTPN": 2,
    "PARAMCD": "PFS",
    "PARAM": "Progression-Free Survival",
    "AVAL": 2.97,
    "CNSR": 0,
    "EVNTDESC": "DISEASE PROGRESSION",
    "STARTDT": "2021-02-03",
    "ADT": "2021-05-04",
    "ADY": 91,
    "AGE": 72,
    "AGEGR1": ">=65",
    "SEX": false,
    "MMRSTAT": "pMMR",
    "ECOGBL": 0,
    "SAFFL": "Y",
    "ITTFL": "Y",
    "EFFFL": "Y",
    "ANL01FL": "Y"
  },
  {
    "STUDYID": "KN868",
    "USUBJID": "KN868-0005-0004",
    "TRTP": "Placebo + Chemo",
    "TRTPN": 2,
    "PARAMCD": "OS",
    "PARAM": "Overall Survival",
    "AVAL": 3.83,
    "CNSR": 0,
    "EVNTDESC": "DEATH",
    "STARTDT": "2021-02-03",
    "ADT": "2021-05-31",
    "ADY": 118,
    "AGE": 72,
    "AGEGR1": ">=65",
    "SEX": false,
    "MMRSTAT": "pMMR",
    "ECOGBL": 0,
    "SAFFL": "Y",
    "ITTFL": "Y",
    "EFFFL": "Y",
    "ANL01FL": "Y"
  },
  {
    "STUDYID": "KN868",
    "USUBJID": "KN868-0005-0005",
    "TRTP": "Placebo + Chemo",
    "TRTPN": 2,
    "PARAMCD": "PFS",
    "PARAM": "Progression-Free Survival",
    "AVAL": 26.56,
    "CNSR": 0,
    "EVNTDESC": "DISEASE PROGRESSION",
    "STARTDT": "2020-11-27",
    "ADT": "2023-02-13",
    "ADY": 809,
    "AGE": 84,
    "AGEGR1": ">=65",
    "SEX": false,
    "MMRSTAT": "pMMR",
    "ECOGBL": 1,
    "SAFFL": "Y",
    "ITTFL": "Y",
    "EFFFL": "Y",
    "ANL01FL": "Y"
  },
  {
    "STUDYID": "KN868",
    "USUBJID": "KN868-0005-0005",
    "TRTP": "Placebo + Chemo",
    "TRTPN": 2,
    "PARAMCD": "OS",
    "PARAM": "Overall Survival",
    "AVAL": 29.47,
    "CNSR": 0,
    "EVNTDESC": "DEATH",
    "STARTDT": "2020-11-27",
    "ADT": "2023-05-13",
    "ADY": 898,
    "AGE": 84,
    "AGEGR1": ">=65",
    "SEX": false,
    "MMRSTAT": "pMMR",
    "ECOGBL": 1,
    "SAFFL": "Y",
    "ITTFL": "Y",
    "EFFFL": "Y",
    "ANL01FL": "Y"
  },
  {
    "STUDYID": "KN868",
    "USUBJID": "KN868-0005-0006",
    "TRTP": "Placebo + Chemo",
    "TRTPN": 2,
    "PARAMCD": "PFS",
    "PARAM": "Progression-Free Survival",
    "AVAL": 19.11,
    "CNSR": 0,
    "EVNTDESC": "DISEASE PROGRESSION",
    "STARTDT": "2021-10-24",
    "ADT": "2023-05-29",
    "ADY": 583,
    "AGE": 63,
    "AGEGR1": "<65",
    "SEX": false,
    "MMRSTAT": "pMMR",
    "ECOGBL": 0,
    "SAFFL": "Y",
    "ITTFL": "Y",
    "EFFFL": "Y",
    "ANL01FL": "Y"
  },
  {
    "STUDYID": "KN868",
    "USUBJID": "KN868-0005-0006",
    "TRTP": "Placebo + Chemo",
    "TRTPN": 2,
    "PARAMCD": "OS",
    "PARAM": "Overall Survival",
    "AVAL": 19.5,
    "CNSR": 0,
    "EVNTDESC": "DEATH",
    "STARTDT": "2021-10-24",
    "ADT": "2023-06-10",
    "ADY": 595,
    "AGE": 63,
    "AGEGR1": "<65",
    "SEX": false,
    "MMRSTAT": "pMMR",
    "ECOGBL": 0,
    "SAFFL": "Y",
    "ITTFL": "Y",
    "EFFFL": "Y",
    "ANL01FL": "Y"
  },
  {
    "STUDYID": "KN868",
    "USUBJID": "KN868-0005-0007",
    "TRTP": "Placebo + Chemo",
    "TRTPN": 2,
    "PARAMCD": "PFS",
    "PARAM": "Progression-Free Survival",
    "AVAL": 9.35,
    "CNSR": 0,
    "EVNTDESC": "DISEASE PROGRESSION",
    "STARTDT": "2021-06-17",
    "ADT": "2022-03-29",
    "ADY": 286,
    "AGE": 60,
    "AGEGR1": "<65",
    "SEX": false,
    "MMRSTAT": "pMMR",
    "ECOGBL": 1,
    "SAFFL": "Y",
    "ITTFL": "Y",
    "EFFFL": "Y",
    "ANL01FL": "Y"
  },
  {
    "STUDYID": "KN868",
    "USUBJID": "KN868-0005-0007",
    "TRTP": "Placebo + Chemo",
    "TRTPN": 2,
    "PARAMCD": "OS",
    "PARAM": "Overall Survival",
    "AVAL": 9.37,
    "CNSR": 0,
    "EVNTDESC": "DEATH",
    "STARTDT": "2021-06-17",
    "ADT": "2022-03-29",
    "ADY": 286,
    "AGE": 60,
    "AGEGR1": "<65",
    "SEX": false,
    "MMRSTAT": "pMMR",
    "ECOGBL": 1,
    "SAFFL": "Y",
    "ITTFL": "Y",
    "EFFFL": "Y",
    "ANL01FL": "Y"
  },
  {
    "STUDYID": "KN868",
    "USUBJID": "KN868-0005-0008",
    "TRTP": "Pembrolizumab + Chemo",
    "TRTPN": 1,
    "PARAMCD": "PFS",
    "PARAM": "Progression-Free Survival",
    "AVAL": 23.49,
    "CNSR": 1,
    "EVNTDESC": "CENSORED",
    "STARTDT": "2021-10-16",
    "ADT": "2023-10-01",
    "ADY": 716,
    "AGE": 66,
    "AGEGR1": ">=65",
    "SEX": false,
    "MMRSTAT": "dMMR",
    "ECOGBL": 1,
    "SAFFL": "Y",
    "ITTFL": "Y",
    "EFFFL": "Y",
    "ANL01FL": "Y"
  },
  {
    "STUDYID": "KN868",
    "USUBJID": "KN868-0005-0008",
    "TRTP": "Pembrolizumab + Chemo",
    "TRTPN": 1,
    "PARAMCD": "OS",
    "PARAM": "Overall Survival",
    "AVAL": 23.49,
    "CNSR": 1,
    "EVNTDESC": "CENSORED",
    "STARTDT": "2021-10-16",
    "ADT": "2023-10-01",
    "ADY": 716,
    "AGE": 66,
    "AGEGR1": ">=65",
    "SEX": false,
    "MMRSTAT": "dMMR",
    "ECOGBL": 1,
    "SAFFL": "Y",
    "ITTFL": "Y",
    "EFFFL": "Y",
    "ANL01FL": "Y"
  },
  {
    "STUDYID": "KN868",
    "USUBJID": "KN868-0005-0009",
    "TRTP": "Pembrolizumab + Chemo",
    "TRTPN": 1,
    "PARAMCD": "OS",
    "PARAM": "Overall Survival",
    "AVAL": 18.2,
    "CNSR": 0,
    "EVNTDESC": "DEATH",
    "STARTDT": "2021-07-11",
    "ADT": "2023-01-16",
    "ADY": 555,
    "AGE": 55,
    "AGEGR1": "<65",
    "SEX": false,
    "MMRSTAT": "pMMR",
    "ECOGBL": 1,
    "SAFFL": "Y",
    "ITTFL": "Y",
    "EFFFL": "Y",
    "ANL01FL": "Y"
  },
  {
    "STUDYID": "KN868",
    "USUBJID": "KN868-0005-0009",
    "TRTP": "Pembrolizumab + Chemo",
    "TRTPN": 1,
    "PARAMCD": "PFS",
    "PARAM": "Progression-Free Survival",
    "AVAL": 10.59,
    "CNSR": 0,
    "EVNTDESC": "DEATH",
    "STARTDT": "2021-07-11",
    "ADT": "2022-05-29",
    "ADY": 323,
    "AGE": 55,
    "AGEGR1": "<65",
    "SEX": false,
    "MMRSTAT": "pMMR",
    "ECOGBL": 1,
    "SAFFL": "Y",
    "ITTFL": "Y",
    "EFFFL": "Y",
    "ANL01FL": "Y"
  },
  {
    "STUDYID": "KN868",
    "USUBJID": "KN868-0005-0010",
    "TRTP": "Pembrolizumab + Chemo",
    "TRTPN": 1,
    "PARAMCD": "PFS",
    "PARAM": "Progression-Free Survival",
    "AVAL": 24.15,
    "CNSR": 1,
    "EVNTDESC": "CENSORED",
    "STARTDT": "2021-09-30",
    "ADT": "2023-10-05",
    "ADY": 736,
    "AGE": 64,
    "AGEGR1": "<65",
    "SEX": false,
    "MMRSTAT": "dMMR",
    "ECOGBL": 1,
    "SAFFL": "Y",
    "ITTFL": "Y",
    "EFFFL": "Y",
    "ANL01FL": "Y"
  },
  {
    "STUDYID": "KN868",
    "USUBJID": "KN868-0005-0010",
    "TRTP": "Pembrolizumab + Chemo",
    "TRTPN": 1,
    "PARAMCD": "OS",
    "PARAM": "Overall Survival",
    "AVAL": 24.15,
    "CNSR": 1,
    "EVNTDESC": "CENSORED",
    "STARTDT": "2021-09-30",
    "ADT": "2023-10-05",
    "ADY": 736,
    "AGE": 64,
    "AGEGR1": "<65",
    "SEX": false,
    "MMRSTAT": "dMMR",
    "ECOGBL": 1,
    "SAFFL": "Y",
    "ITTFL": "Y",
    "EFFFL": "Y",
    "ANL01FL": "Y"
  },
  {
    "STUDYID": "KN868",
    "USUBJID": "KN868-0005-0011",
    "TRTP": "Pembrolizumab + Chemo",
    "TRTPN": 1,
    "PARAMCD": "PFS",
    "PARAM": "Progression-Free Survival",
    "AVAL": 3.57,
    "CNSR": 0,
    "EVNTDESC": "DISEASE PROGRESSION",
    "STARTDT": "2022-02-11",
    "ADT": "2022-05-31",
    "ADY": 110,
    "AGE": 59,
    "AGEGR1": "<65",
    "SEX": false,
    "MMRSTAT": "pMMR",
    "ECOGBL": 0,
    "SAFFL": "Y",
    "ITTFL": "Y",
    "EFFFL": "Y",
    "ANL01FL": "Y"
  },
  {
    "STUDYID": "KN868",
    "USUBJID": "KN868-0005-0011",
    "TRTP": "Pembrolizumab + Chemo",
    "TRTPN": 1,
    "PARAMCD": "OS",
    "PARAM": "Overall Survival",
    "AVAL": 18.16,
    "CNSR": 0,
    "EVNTDESC": "DEATH",
    "STARTDT": "2022-02-11",
    "ADT": "2023-08-18",
    "ADY": 554,
    "AGE": 59,
    "AGEGR1": "<65",
    "SEX": false,
    "MMRSTAT": "pMMR",
    "ECOGBL": 0,
    "SAFFL": "Y",
    "ITTFL": "Y",
    "EFFFL": "Y",
    "ANL01FL": "Y"
  },
  {
    "STUDYID": "KN868",
    "USUBJID": "KN868-0005-0012",
    "TRTP": "Placebo + Chemo",
    "TRTPN": 2,
    "PARAMCD": "PFS",
    "PARAM": "Progression-Free Survival",
    "AVAL": 4.34,
    "CNSR": 0,
    "EVNTDESC": "DISEASE PROGRESSION",
    "STARTDT": "2020-04-06",
    "ADT": "2020-08-16",
    "ADY": 133,
    "AGE": 75,
    "AGEGR1": ">=65",
    "SEX": false,
    "MMRSTAT": "dMMR",
    "ECOGBL": 1,
    "SAFFL": "Y",
    "ITTFL": "Y",
    "EFFFL": "Y",
    "ANL01FL": "Y"
  },
  {
    "STUDYID": "KN868",
    "USUBJID": "KN868-0005-0012",
    "TRTP": "Placebo + Chemo",
    "TRTPN": 2,
    "PARAMCD": "OS",
    "PARAM": "Overall Survival",
    "AVAL": 25.29,
    "CNSR": 0,
    "EVNTDESC": "DEATH",
    "STARTDT": "2020-04-06",
    "ADT": "2022-05-16",
    "ADY": 771,
    "AGE": 75,
    "AGEGR1": ">=65",
    "SEX": false,
    "MMRSTAT": "dMMR",
    "ECOGBL": 1,
    "SAFFL": "Y",
    "ITTFL": "Y",
    "EFFFL": "Y",
    "ANL01FL": "Y"
  },
  {
    "STUDYID": "KN868",
    "USUBJID": "KN868-0005-0013",
    "TRTP": "Placebo + Chemo",
    "TRTPN": 2,
    "PARAMCD": "PFS",
    "PARAM": "Progression-Free Survival",
    "AVAL": 18.68,
    "CNSR": 0,
    "EVNTDESC": "DISEASE PROGRESSION",
    "STARTDT": "2021-01-04",
    "ADT": "2022-07-27",
    "ADY": 570,
    "AGE": 41,
    "AGEGR1": "<65",
    "SEX": false,
    "MMRSTAT": "pMMR",
    "ECOGBL": 0,
    "SAFFL": "Y",
    "ITTFL": "Y",
    "EFFFL": "Y",
    "ANL01FL": "Y"
  },
  {
    "STUDYID": "KN868",
    "USUBJID": "KN868-0005-0013",
    "TRTP": "Placebo + Chemo",
    "TRTPN": 2,
    "PARAMCD": "OS",
    "PARAM": "Overall Survival",
    "AVAL": 32.98,
    "CNSR": 1,
    "EVNTDESC": "CENSORED",
    "STARTDT": "2021-01-04",
    "ADT": "2023-10-05",
    "ADY": 1005,
    "AGE": 41,
    "AGEGR1": "<65",
    "SEX": false,
    "MMRSTAT": "pMMR",
    "ECOGBL": 0,
    "SAFFL": "Y",
    "ITTFL": "Y",
    "EFFFL": "Y",
    "ANL01FL": "Y"
  },
  {
    "STUDYID": "KN868",
    "USUBJID": "KN868-0005-0014",
    "TRTP": "Placebo + Chemo",
    "TRTPN": 2,
    "PARAMCD": "PFS",
    "PARAM": "Progression-Free Survival",
    "AVAL": 23.59,
    "CNSR": 0,
    "EVNTDESC": "DISEASE PROGRESSION",
    "STARTDT": "2020-07-13",
    "ADT": "2022-07-01",
    "ADY": 719,
    "AGE": 71,
    "AGEGR1": ">=65",
    "SEX": false,
    "MMRSTAT": "pMMR",
    "ECOGBL": 1,
    "SAFFL": "Y",
    "ITTFL": "Y",
    "EFFFL": "Y",
    "ANL01FL": "Y"
  },
  {
    "STUDYID": "KN868",
    "USUBJID": "KN868-0005-0014",
    "TRTP": "Placebo + Chemo",
    "TRTPN": 2,
    "PARAMCD": "OS",
    "PARAM": "Overall Survival",
    "AVAL": 27.83,
    "CNSR": 0,
    "EVNTDESC": "DEATH",
    "STARTDT": "2020-07-13",
    "ADT": "2022-11-07",
    "ADY": 848,
    "AGE": 71,
    "AGEGR1": ">=65",
    "SEX": false,
    "MMRSTAT": "pMMR",
    "ECOGBL": 1,
    "SAFFL": "Y",
    "ITTFL": "Y",
    "EFFFL": "Y",
    "ANL01FL": "Y"
  },
  {
    "STUDYID": "KN868",
    "USUBJID": "KN868-0005-0015",
    "TRTP": "Pembrolizumab + Chemo",
    "TRTPN": 1,
    "PARAMCD": "PFS",
    "PARAM": "Progression-Free Survival",
    "AVAL": 18.94,
    "CNSR": 0,
    "EVNTDESC": "DISEASE PROGRESSION",
    "STARTDT": "2021-09-30",
    "ADT": "2023-04-30",
    "ADY": 578,
    "AGE": 64,
    "AGEGR1": "<65",
    "SEX": false,
    "MMRSTAT": "pMMR",
    "ECOGBL": 0,
    "SAFFL": "Y",
    "ITTFL": "Y",
    "EFFFL": "Y",
    "ANL01FL": "Y"
  },
  {
    "STUDYID": "KN868",
    "USUBJID": "KN868-0005-0015",
    "TRTP": "Pembrolizumab + Chemo",
    "TRTPN": 1,
    "PARAMCD": "OS",
    "PARAM": "Overall Survival",
    "AVAL": 24.08,
    "CNSR": 1,
    "EVNTDESC": "CENSORED",
    "STARTDT": "2021-09-30",
    "ADT": "2023-10-03",
    "ADY": 734,
    "AGE": 64,
    "AGEGR1": "<65",
    "SEX": false,
    "MMRSTAT": "pMMR",
    "ECOGBL": 0,
    "SAFFL": "Y",
    "ITTFL": "Y",
    "EFFFL": "Y",
    "ANL01FL": "Y"
  },
  {
    "STUDYID": "KN868",
    "USUBJID": "KN868-0005-0016",
    "TRTP": "Placebo + Chemo",
    "TRTPN": 2,
    "PARAMCD": "PFS",
    "PARAM": "Progression-Free Survival",
    "AVAL": 5.95,
    "CNSR": 0,
    "EVNTDESC": "DEATH",
    "STARTDT": "2020-10-24",
    "ADT": "2021-04-23",
    "ADY": 182,
    "AGE": 61,
    "AGEGR1": "<65",
    "SEX": false,
    "MMRSTAT": "pMMR",
    "ECOGBL": 1,
    "SAFFL": "Y",
    "ITTFL": "Y",
    "EFFFL": "Y",
    "ANL01FL": "Y"
  },
  {
    "STUDYID": "KN868",
    "USUBJID": "KN868-0005-0016",
    "TRTP": "Placebo + Chemo",
    "TRTPN": 2,
    "PARAMCD": "OS",
    "PARAM": "Overall Survival",
    "AVAL": 9.85,
    "CNSR": 0,
    "EVNTDESC": "DEATH",
    "STARTDT": "2020-10-24",
    "ADT": "2021-08-20",
    "ADY": 301,
    "AGE": 61,
    "AGEGR1": "<65",
    "SEX": false,
    "MMRSTAT": "pMMR",
    "ECOGBL": 1,
    "SAFFL": "Y",
    "ITTFL": "Y",
    "EFFFL": "Y",
    "ANL01FL": "Y"
  },
  {
    "STUDYID": "KN868",
    "USUBJID": "KN868-0005-0017",
    "TRTP": "Pembrolizumab + Chemo",
    "TRTPN": 1,
    "PARAMCD": "PFS",
    "PARAM": "Progression-Free Survival",
    "AVAL": 24.28,
    "CNSR": 1,
    "EVNTDESC": "CENSORED",
    "STARTDT": "2021-09-24",
    "ADT": "2023-10-03",
    "ADY": 740,
    "AGE": 69,
    "AGEGR1": ">=65",
    "SEX": false,
    "MMRSTAT": "dMMR",
    "ECOGBL": 0,
    "SAFFL": "Y",
    "ITTFL": "Y",
    "EFFFL": "Y",
    "ANL01FL": "Y"
  },
  {
    "STUDYID": "KN868",
    "USUBJID": "KN868-0005-0017",
    "TRTP": "Pembrolizumab + Chemo",
    "TRTPN": 1,
    "PARAMCD": "OS",
    "PARAM": "Overall Survival",
    "AVAL": 24.28,
    "CNSR": 1,
    "EVNTDESC": "CENSORED",
    "STARTDT": "2021-09-24",
    "ADT": "2023-10-03",
    "ADY": 740,
    "AGE": 69,
    "AGEGR1": ">=65",
    "SEX": false,
    "MMRSTAT": "dMMR",
    "ECOGBL": 0,
    "SAFFL": "Y",
    "ITTFL": "Y",
    "EFFFL": "Y",
    "ANL01FL": "Y"
  },
  {
    "STUDYID": "KN868",
    "USUBJID": "KN868-0005-0018",
    "TRTP": "Placebo + Chemo",
    "TRTPN": 2,
    "PARAMCD": "PFS",
    "PARAM": "Progression-Free Survival",
    "AVAL": 1.69,
    "CNSR": 0,
    "EVNTDESC": "DISEASE PROGRESSION",
    "STARTDT": "2021-08-29",
    "ADT": "2021-10-19",
    "ADY": 52,
    "AGE": 70,
    "AGEGR1": ">=65",
    "SEX": false,
    "MMRSTAT": "pMMR",
    "ECOGBL": 0,
    "SAFFL": "Y",
    "ITTFL": "Y",
    "EFFFL": "Y",
    "ANL01FL": "Y"
  },
  {
    "STUDYID": "KN868",
    "USUBJID": "KN868-0005-0018",
    "TRTP": "Placebo + Chemo",
    "TRTPN": 2,
    "PARAMCD": "OS",
    "PARAM": "Overall Survival",
    "AVAL": 23.06,
    "CNSR": 0,
    "EVNTDESC": "DEATH",
    "STARTDT": "2021-08-29",
    "ADT": "2023-08-01",
    "ADY": 703,
    "AGE": 70,
    "AGEGR1": ">=65",
    "SEX": false,
    "MMRSTAT": "pMMR",
    "ECOGBL": 0,
    "SAFFL": "Y",
    "ITTFL": "Y",
    "EFFFL": "Y",
    "ANL01FL": "Y"
  },
  {
    "STUDYID": "KN868",
    "USUBJID": "KN868-0005-0019",
    "TRTP": "Placebo + Chemo",
    "TRTPN": 2,
    "PARAMCD": "PFS",
    "PARAM": "Progression-Free Survival",
    "AVAL": 8.97,
    "CNSR": 0,
    "EVNTDESC": "DISEASE PROGRESSION",
    "STARTDT": "2021-04-20",
    "ADT": "2022-01-18",
    "ADY": 274,
    "AGE": 46,
    "AGEGR1": "<65",
    "SEX": false,
    "MMRSTAT": "pMMR",
    "ECOGBL": 0,
    "SAFFL": "Y",
    "ITTFL": "Y",
    "EFFFL": "Y",
    "ANL01FL": "Y"
  },
  {
    "STUDYID": "KN868",
    "USUBJID": "KN868-0005-0019",
    "TRTP": "Placebo + Chemo",
    "TRTPN": 2,
    "PARAMCD": "OS",
    "PARAM": "Overall Survival",
    "AVAL": 29.47,
    "CNSR": 1,
    "EVNTDESC": "CENSORED",
    "STARTDT": "2021-04-20",
    "ADT": "2023-10-04",
    "ADY": 898,
    "AGE": 46,
    "AGEGR1": "<65",
    "SEX": false,
    "MMRSTAT": "pMMR",
    "ECOGBL": 0,
    "SAFFL": "Y",
    "ITTFL": "Y",
    "EFFFL": "Y",
    "ANL01FL": "Y"
  },
  {
    "STUDYID": "KN868",
    "USUBJID": "KN868-0005-0020",
    "TRTP": "Placebo + Chemo",
    "TRTPN": 2,
    "PARAMCD": "PFS",
    "PARAM": "Progression-Free Survival",
    "AVAL": 16.73,
    "CNSR": 0,
    "EVNTDESC": "DISEASE PROGRESSION",
    "STARTDT": "2021-11-08",
    "ADT": "2023-04-01",
    "ADY": 510,
    "AGE": 65,
    "AGEGR1": ">=65",
    "SEX": false,
    "MMRSTAT": "pMMR",
    "ECOGBL": 0,
    "SAFFL": "Y",
    "ITTFL": "Y",
    "EFFFL": "Y",
    "ANL01FL": "Y"
  },
  {
    "STUDYID": "KN868",
    "USUBJID": "KN868-0005-0020",
    "TRTP": "Placebo + Chemo",
    "TRTPN": 2,
    "PARAMCD": "OS",
    "PARAM": "Overall Survival",
    "AVAL": 22.73,
    "CNSR": 1,
    "EVNTDESC": "CENSORED",
    "STARTDT": "2021-11-08",
    "ADT": "2023-10-01",
    "ADY": 693,
    "AGE": 65,
    "AGEGR1": ">=65",
    "SEX": false,
    "MMRSTAT": "pMMR",
    "ECOGBL": 0,
    "SAFFL": "Y",
    "ITTFL": "Y",
    "EFFFL": "Y",
    "ANL01FL": "Y"
  },
  {
    "STUDYID": "KN868",
    "USUBJID": "KN868-0005-0021",
    "TRTP": "Placebo + Chemo",
    "TRTPN": 2,
    "PARAMCD": "PFS",
    "PARAM": "Progression-Free Survival",
    "AVAL": 3.71,
    "CNSR": 0,
    "EVNTDESC": "DISEASE PROGRESSION",
    "STARTDT": "2022-01-06",
    "ADT": "2022-04-29",
    "ADY": 114,
    "AGE": 82,
    "AGEGR1": ">=65",
    "SEX": false,
    "MMRSTAT": "pMMR",
    "ECOGBL": 1,
    "SAFFL": "Y",
    "ITTFL": "Y",
    "EFFFL": "Y",
    "ANL01FL": "Y"
  },
  {
    "STUDYID": "KN868",
    "USUBJID": "KN868-0005-0021",
    "TRTP": "Placebo + Chemo",
    "TRTPN": 2,
    "PARAMCD": "OS",
    "PARAM": "Overall Survival",
    "AVAL": 9.68,
    "CNSR": 0,
    "EVNTDESC": "DEATH",
    "STARTDT": "2022-01-06",
    "ADT": "2022-10-28",
    "ADY": 296,
    "AGE": 82,
    "AGEGR1": ">=65",
    "SEX": false,
    "MMRSTAT": "pMMR",
    "ECOGBL": 1,
    "SAFFL": "Y",
    "ITTFL": "Y",
    "EFFFL": "Y",
    "ANL01FL": "Y"
  },
  {
    "STUDYID": "KN868",
    "USUBJID": "KN868-0006-0001",
    "TRTP": "Pembrolizumab + Chemo",
    "TRTPN": 1,
    "PARAMCD": "OS",
    "PARAM": "Overall Survival",
    "AVAL": 20.63,
    "CNSR": 1,
    "EVNTDESC": "CENSORED",
    "STARTDT": "2022-01-16",
    "ADT": "2023-10-06",
    "ADY": 629,
    "AGE": 60,
    "AGEGR1": "<65",
    "SEX": false,
    "MMRSTAT": "pMMR",
    "ECOGBL": 0,
    "SAFFL": "Y",
    "ITTFL": "Y",
    "EFFFL": "Y",
    "ANL01FL": "Y"
  },
  {
    "STUDYID": "KN868",
    "USUBJID": "KN868-0006-0001",
    "TRTP": "Pembrolizumab + Chemo",
    "TRTPN": 1,
    "PARAMCD": "PFS",
    "PARAM": "Progression-Free Survival",
    "AVAL": 20.34,
    "CNSR": 0,
    "EVNTDESC": "DEATH",
    "STARTDT": "2022-01-16",
    "ADT": "2023-09-27",
    "ADY": 620,
    "AGE": 60,
    "AGEGR1": "<65",
    "SEX": false,
    "MMRSTAT": "pMMR",
    "ECOGBL": 0,
    "SAFFL": "Y",
    "ITTFL": "Y",
    "EFFFL": "Y",
    "ANL01FL": "Y"
  },
  {
    "STUDYID": "KN868",
    "USUBJID": "KN868-0006-0002",
    "TRTP": "Placebo + Chemo",
    "TRTPN": 2,
    "PARAMCD": "PFS",
    "PARAM": "Progression-Free Survival",
    "AVAL": 7.13,
    "CNSR": 0,
    "EVNTDESC": "DISEASE PROGRESSION",
    "STARTDT": "2020-06-29",
    "ADT": "2021-02-01",
    "ADY": 218,
    "AGE": 71,
    "AGEGR1": ">=65",
    "SEX": false,
    "MMRSTAT": "pMMR",
    "ECOGBL": 1,
    "SAFFL": "Y",
    "ITTFL": "Y",
    "EFFFL": "Y",
    "ANL01FL": "Y"
  },
  {
    "STUDYID": "KN868",
    "USUBJID": "KN868-0006-0002",
    "TRTP": "Placebo + Chemo",
    "TRTPN": 2,
    "PARAMCD": "OS",
    "PARAM": "Overall Survival",
    "AVAL": 14.84,
    "CNSR": 0,
    "EVNTDESC": "DEATH",
    "STARTDT": "2020-06-29",
    "ADT": "2021-09-24",
    "ADY": 453,
    "AGE": 71,
    "AGEGR1": ">=65",
    "SEX": false,
    "MMRSTAT": "pMMR",
    "ECOGBL": 1,
    "SAFFL": "Y",
    "ITTFL": "Y",
    "EFFFL": "Y",
    "ANL01FL": "Y"
  },
  {
    "STUDYID": "KN868",
    "USUBJID": "KN868-0006-0003",
    "TRTP": "Pembrolizumab + Chemo",
    "TRTPN": 1,
    "PARAMCD": "OS",
    "PARAM": "Overall Survival",
    "AVAL": 31.73,
    "CNSR": 1,
    "EVNTDESC": "CENSORED",
    "STARTDT": "2021-02-12",
    "ADT": "2023-10-06",
    "ADY": 967,
    "AGE": 68,
    "AGEGR1": ">=65",
    "SEX": false,
    "MMRSTAT": "dMMR",
    "ECOGBL": 1,
    "SAFFL": "Y",
    "ITTFL": "Y",
    "EFFFL": "Y",
    "ANL01FL": "Y"
  },
  {
    "STUDYID": "KN868",
    "USUBJID": "KN868-0006-0003",
    "TRTP": "Pembrolizumab + Chemo",
    "TRTPN": 1,
    "PARAMCD": "PFS",
    "PARAM": "Progression-Free Survival",
    "AVAL": 31.73,
    "CNSR": 1,
    "EVNTDESC": "CENSORED",
    "STARTDT": "2021-02-12",
    "ADT": "2023-10-06",
    "ADY": 967,
    "AGE": 68,
    "AGEGR1": ">=65",
    "SEX": false,
    "MMRSTAT": "dMMR",
    "ECOGBL": 1,
    "SAFFL": "Y",
    "ITTFL": "Y",
    "EFFFL": "Y",
    "ANL01FL": "Y"
  },
  {
    "STUDYID": "KN868",
    "USUBJID": "KN868-0006-0004",
    "TRTP": "Pembrolizumab + Chemo",
    "TRTPN": 1,
    "PARAMCD": "PFS",
    "PARAM": "Progression-Free Survival",
    "AVAL": 22.3,
    "CNSR": 0,
    "EVNTDESC": "DEATH",
    "STARTDT": "2020-11-21",
    "ADT": "2022-10-01",
    "ADY": 680,
    "AGE": 69,
    "AGEGR1": ">=65",
    "SEX": false,
    "MMRSTAT": "pMMR",
    "ECOGBL": 0,
    "SAFFL": "Y",
    "ITTFL": "Y",
    "EFFFL": "Y",
    "ANL01FL": "Y"
  },
  {
    "STUDYID": "KN868",
    "USUBJID": "KN868-0006-0004",
    "TRTP": "Pembrolizumab + Chemo",
    "TRTPN": 1,
    "PARAMCD": "OS",
    "PARAM": "Overall Survival",
    "AVAL": 34.43,
    "CNSR": 1,
    "EVNTDESC": "CENSORED",
    "STARTDT": "2020-11-21",
    "ADT": "2023-10-05",
    "ADY": 1049,
    "AGE": 69,
    "AGEGR1": ">=65",
    "SEX": false,
    "MMRSTAT": "pMMR",
    "ECOGBL": 0,
    "SAFFL": "Y",
    "ITTFL": "Y",
    "EFFFL": "Y",
    "ANL01FL": "Y"
  },
  {
    "STUDYID": "KN868",
    "USUBJID": "KN868-0006-0005",
    "TRTP": "Pembrolizumab + Chemo",
    "TRTPN": 1,
    "PARAMCD": "PFS",
    "PARAM": "Progression-Free Survival",
    "AVAL": 6.96,
    "CNSR": 0,
    "EVNTDESC": "DISEASE PROGRESSION",
    "STARTDT": "2021-04-22",
    "ADT": "2021-11-20",
    "ADY": 213,
    "AGE": 73,
    "AGEGR1": ">=65",
    "SEX": false,
    "MMRSTAT": "pMMR",
    "ECOGBL": 0,
    "SAFFL": "Y",
    "ITTFL": "Y",
    "EFFFL": "Y",
    "ANL01FL": "Y"
  },
  {
    "STUDYID": "KN868",
    "USUBJID": "KN868-0006-0005",
    "TRTP": "Pembrolizumab + Chemo",
    "TRTPN": 1,
    "PARAMCD": "OS",
    "PARAM": "Overall Survival",
    "AVAL": 22.13,
    "CNSR": 0,
    "EVNTDESC": "DEATH",
    "STARTDT": "2021-04-22",
    "ADT": "2023-02-25",
    "ADY": 675,
    "AGE": 73,
    "AGEGR1": ">=65",
    "SEX": false,
    "MMRSTAT": "pMMR",
    "ECOGBL": 0,
    "SAFFL": "Y",
    "ITTFL": "Y",
    "EFFFL": "Y",
    "ANL01FL": "Y"
  },
  {
    "STUDYID": "KN868",
    "USUBJID": "KN868-0006-0006",
    "TRTP": "Placebo + Chemo",
    "TRTPN": 2,
    "PARAMCD": "PFS",
    "PARAM": "Progression-Free Survival",
    "AVAL": 4.28,
    "CNSR": 0,
    "EVNTDESC": "DISEASE PROGRESSION",
    "STARTDT": "2021-05-21",
    "ADT": "2021-09-28",
    "ADY": 131,
    "AGE": 60,
    "AGEGR1": "<65",
    "SEX": false,
    "MMRSTAT": "pMMR",
    "ECOGBL": 1,
    "SAFFL": "Y",
    "ITTFL": "Y",
    "EFFFL": "Y",
    "ANL01FL": "Y"
  },
  {
    "STUDYID": "KN868",
    "USUBJID": "KN868-0006-0006",
    "TRTP": "Placebo + Chemo",
    "TRTPN": 2,
    "PARAMCD": "OS",
    "PARAM": "Overall Survival",
    "AVAL": 28.38,
    "CNSR": 1,
    "EVNTDESC": "CENSORED",
    "STARTDT": "2021-05-21",
    "ADT": "2023-10-02",
    "ADY": 865,
    "AGE": 60,
    "AGEGR1": "<65",
    "SEX": false,
    "MMRSTAT": "pMMR",
    "ECOGBL": 1,
    "SAFFL": "Y",
    "ITTFL": "Y",
    "EFFFL": "Y",
    "ANL01FL": "Y"
  },
  {
    "STUDYID": "KN868",
    "USUBJID": "KN868-0006-0007",
    "TRTP": "Pembrolizumab + Chemo",
    "TRTPN": 1,
    "PARAMCD": "OS",
    "PARAM": "Overall Survival",
    "AVAL": 23.98,
    "CNSR": 1,
    "EVNTDESC": "CENSORED",
    "STARTDT": "2021-10-01",
    "ADT": "2023-10-01",
    "ADY": 731,
    "AGE": 63,
    "AGEGR1": "<65",
    "SEX": false,
    "MMRSTAT": "dMMR",
    "ECOGBL": 0,
    "SAFFL": "Y",
    "ITTFL": "Y",
    "EFFFL": "Y",
    "ANL01FL": "Y"
  },
  {
    "STUDYID": "KN868",
    "USUBJID": "KN868-0006-0007",
    "TRTP": "Pembrolizumab + Chemo",
    "TRTPN": 1,
    "PARAMCD": "PFS",
    "PARAM": "Progression-Free Survival",
    "AVAL": 23.98,
    "CNSR": 1,
    "EVNTDESC": "CENSORED",
    "STARTDT": "2021-10-01",
    "ADT": "2023-10-01",
    "ADY": 731,
    "AGE": 63,
    "AGEGR1": "<65",
    "SEX": false,
    "MMRSTAT": "dMMR",
    "ECOGBL": 0,
    "SAFFL": "Y",
    "ITTFL": "Y",
    "EFFFL": "Y",
    "ANL01FL": "Y"
  },
  {
    "STUDYID": "KN868",
    "USUBJID": "KN868-0006-0008",
    "TRTP": "Pembrolizumab + Chemo",
    "TRTPN": 1,
    "PARAMCD": "PFS",
    "PARAM": "Progression-Free Survival",
    "AVAL": 1.3,
    "CNSR": 0,
    "EVNTDESC": "DEATH",
    "STARTDT": "2020-09-16",
    "ADT": "2020-10-26",
    "ADY": 41,
    "AGE": 59,
    "AGEGR1": "<65",
    "SEX": false,
    "MMRSTAT": "dMMR",
    "ECOGBL": 0,
    "SAFFL": "Y",
    "ITTFL": "Y",
    "EFFFL": "Y",
    "ANL01FL": "Y"
  },
  {
    "STUDYID": "KN868",
    "USUBJID": "KN868-0006-0008",
    "TRTP": "Pembrolizumab + Chemo",
    "TRTPN": 1,
    "PARAMCD": "OS",
    "PARAM": "Overall Survival",
    "AVAL": 36.6,
    "CNSR": 1,
    "EVNTDESC": "CENSORED",
    "STARTDT": "2020-09-16",
    "ADT": "2023-10-05",
    "ADY": 1115,
    "AGE": 59,
    "AGEGR1": "<65",
    "SEX": false,
    "MMRSTAT": "dMMR",
    "ECOGBL": 0,
    "SAFFL": "Y",
    "ITTFL": "Y",
    "EFFFL": "Y",
    "ANL01FL": "Y"
  },
  {
    "STUDYID": "KN868",
    "USUBJID": "KN868-0006-0009",
    "TRTP": "Pembrolizumab + Chemo",
    "TRTPN": 1,
    "PARAMCD": "PFS",
    "PARAM": "Progression-Free Survival",
    "AVAL": 20.83,
    "CNSR": 1,
    "EVNTDESC": "CENSORED",
    "STARTDT": "2022-01-11",
    "ADT": "2023-10-07",
    "ADY": 635,
    "AGE": 68,
    "AGEGR1": ">=65",
    "SEX": false,
    "MMRSTAT": "pMMR",
    "ECOGBL": 0,
    "SAFFL": "Y",
    "ITTFL": "Y",
    "EFFFL": "Y",
    "ANL01FL": "Y"
  },
  {
    "STUDYID": "KN868",
    "USUBJID": "KN868-0006-0009",
    "TRTP": "Pembrolizumab + Chemo",
    "TRTPN": 1,
    "PARAMCD": "OS",
    "PARAM": "Overall Survival",
    "AVAL": 20.83,
    "CNSR": 1,
    "EVNTDESC": "CENSORED",
    "STARTDT": "2022-01-11",
    "ADT": "2023-10-07",
    "ADY": 635,
    "AGE": 68,
    "AGEGR1": ">=65",
    "SEX": false,
    "MMRSTAT": "pMMR",
    "ECOGBL": 0,
    "SAFFL": "Y",
    "ITTFL": "Y",
    "EFFFL": "Y",
    "ANL01FL": "Y"
  },
  {
    "STUDYID": "KN868",
    "USUBJID": "KN868-0006-0010",
    "TRTP": "Pembrolizumab + Chemo",
    "TRTPN": 1,
    "PARAMCD": "PFS",
    "PARAM": "Progression-Free Survival",
    "AVAL": 19.26,
    "CNSR": 0,
    "EVNTDESC": "DEATH",
    "STARTDT": "2022-02-05",
    "ADT": "2023-09-14",
    "ADY": 587,
    "AGE": 64,
    "AGEGR1": "<65",
    "SEX": false,
    "MMRSTAT": "pMMR",
    "ECOGBL": 0,
    "SAFFL": "Y",
    "ITTFL": "Y",
    "EFFFL": "Y",
    "ANL01FL": "Y"
  },
  {
    "STUDYID": "KN868",
    "USUBJID": "KN868-0006-0010",
    "TRTP": "Pembrolizumab + Chemo",
    "TRTPN": 1,
    "PARAMCD": "OS",
    "PARAM": "Overall Survival",
    "AVAL": 19.94,
    "CNSR": 1,
    "EVNTDESC": "CENSORED",
    "STARTDT": "2022-02-05",
    "ADT": "2023-10-05",
    "ADY": 608,
    "AGE": 64,
    "AGEGR1": "<65",
    "SEX": false,
    "MMRSTAT": "pMMR",
    "ECOGBL": 0,
    "SAFFL": "Y",
    "ITTFL": "Y",
    "EFFFL": "Y",
    "ANL01FL": "Y"
  },
  {
    "STUDYID": "KN868",
    "USUBJID": "KN868-0006-0011",
    "TRTP": "Placebo + Chemo",
    "TRTPN": 2,
    "PARAMCD": "OS",
    "PARAM": "Overall Survival",
    "AVAL": 8.08,
    "CNSR": 0,
    "EVNTDESC": "DEATH",
    "STARTDT": "2020-07-04",
    "ADT": "2021-03-07",
    "ADY": 247,
    "AGE": 82,
    "AGEGR1": ">=65",
    "SEX": false,
    "MMRSTAT": "pMMR",
    "ECOGBL": 1,
    "SAFFL": "Y",
    "ITTFL": "Y",
    "EFFFL": "Y",
    "ANL01FL": "Y"
  },
  {
    "STUDYID": "KN868",
    "USUBJID": "KN868-0006-0011",
    "TRTP": "Placebo + Chemo",
    "TRTPN": 2,
    "PARAMCD": "PFS",
    "PARAM": "Progression-Free Survival",
    "AVAL": 2.53,
    "CNSR": 0,
    "EVNTDESC": "DISEASE PROGRESSION",
    "STARTDT": "2020-07-04",
    "ADT": "2020-09-19",
    "ADY": 78,
    "AGE": 82,
    "AGEGR1": ">=65",
    "SEX": false,
    "MMRSTAT": "pMMR",
    "ECOGBL": 1,
    "SAFFL": "Y",
    "ITTFL": "Y",
    "EFFFL": "Y",
    "ANL01FL": "Y"
  },
  {
    "STUDYID": "KN868",
    "USUBJID": "KN868-0006-0012",
    "TRTP": "Pembrolizumab + Chemo",
    "TRTPN": 1,
    "PARAMCD": "PFS",
    "PARAM": "Progression-Free Survival",
    "AVAL": 30.68,
    "CNSR": 1,
    "EVNTDESC": "CENSORED",
    "STARTDT": "2021-03-11",
    "ADT": "2023-10-01",
    "ADY": 935,
    "AGE": 73,
    "AGEGR1": ">=65",
    "SEX": false,
    "MMRSTAT": "dMMR",
    "ECOGBL": 0,
    "SAFFL": "Y",
    "ITTFL": "Y",
    "EFFFL": "Y",
    "ANL01FL": "Y"
  },
  {
    "STUDYID": "KN868",
    "USUBJID": "KN868-0006-0012",
    "TRTP": "Pembrolizumab + Chemo",
    "TRTPN": 1,
    "PARAMCD": "OS",
    "PARAM": "Overall Survival",
    "AVAL": 30.68,
    "CNSR": 1,
    "EVNTDESC": "CENSORED",
    "STARTDT": "2021-03-11",
    "ADT": "2023-10-01",
    "ADY": 935,
    "AGE": 73,
    "AGEGR1": ">=65",
    "SEX": false,
    "MMRSTAT": "dMMR",
    "ECOGBL": 0,
    "SAFFL": "Y",
    "ITTFL": "Y",
    "EFFFL": "Y",
    "ANL01FL": "Y"
  },
  {
    "STUDYID": "KN868",
    "USUBJID": "KN868-0006-0013",
    "TRTP": "Pembrolizumab + Chemo",
    "TRTPN": 1,
    "PARAMCD": "PFS",
    "PARAM": "Progression-Free Survival",
    "AVAL": 26.56,
    "CNSR": 0,
    "EVNTDESC": "DEATH",
    "STARTDT": "2020-09-18",
    "ADT": "2022-12-05",
    "ADY": 809,
    "AGE": 67,
    "AGEGR1": ">=65",
    "SEX": false,
    "MMRSTAT": "dMMR",
    "ECOGBL": 1,
    "SAFFL": "Y",
    "ITTFL": "Y",
    "EFFFL": "Y",
    "ANL01FL": "Y"
  },
  {
    "STUDYID": "KN868",
    "USUBJID": "KN868-0006-0013",
    "TRTP": "Pembrolizumab + Chemo",
    "TRTPN": 1,
    "PARAMCD": "OS",
    "PARAM": "Overall Survival",
    "AVAL": 36.4,
    "CNSR": 1,
    "EVNTDESC": "CENSORED",
    "STARTDT": "2020-09-18",
    "ADT": "2023-10-01",
    "ADY": 1109,
    "AGE": 67,
    "AGEGR1": ">=65",
    "SEX": false,
    "MMRSTAT": "dMMR",
    "ECOGBL": 1,
    "SAFFL": "Y",
    "ITTFL": "Y",
    "EFFFL": "Y",
    "ANL01FL": "Y"
  },
  {
    "STUDYID": "KN868",
    "USUBJID": "KN868-0006-0014",
    "TRTP": "Placebo + Chemo",
    "TRTPN": 2,
    "PARAMCD": "PFS",
    "PARAM": "Progression-Free Survival",
    "AVAL": 9.79,
    "CNSR": 0,
    "EVNTDESC": "DISEASE PROGRESSION",
    "STARTDT": "2022-02-25",
    "ADT": "2022-12-20",
    "ADY": 299,
    "AGE": 84,
    "AGEGR1": ">=65",
    "SEX": false,
    "MMRSTAT": "pMMR",
    "ECOGBL": 0,
    "SAFFL": "Y",
    "ITTFL": "Y",
    "EFFFL": "Y",
    "ANL01FL": "Y"
  },
  {
    "STUDYID": "KN868",
    "USUBJID": "KN868-0006-0014",
    "TRTP": "Placebo + Chemo",
    "TRTPN": 2,
    "PARAMCD": "OS",
    "PARAM": "Overall Survival",
    "AVAL": 11.98,
    "CNSR": 0,
    "EVNTDESC": "DEATH",
    "STARTDT": "2022-02-25",
    "ADT": "2023-02-25",
    "ADY": 366,
    "AGE": 84,
    "AGEGR1": ">=65",
    "SEX": false,
    "MMRSTAT": "pMMR",
    "ECOGBL": 0,
    "SAFFL": "Y",
    "ITTFL": "Y",
    "EFFFL": "Y",
    "ANL01FL": "Y"
  },
  {
    "STUDYID": "KN868",
    "USUBJID": "KN868-0006-0015",
    "TRTP": "Pembrolizumab + Chemo",
    "TRTPN": 1,
    "PARAMCD": "OS",
    "PARAM": "Overall Survival",
    "AVAL": 14.07,
    "CNSR": 0,
    "EVNTDESC": "DEATH",
    "STARTDT": "2021-03-08",
    "ADT": "2022-05-10",
    "ADY": 429,
    "AGE": 79,
    "AGEGR1": ">=65",
    "SEX": false,
    "MMRSTAT": "pMMR",
    "ECOGBL": 0,
    "SAFFL": "Y",
    "ITTFL": "Y",
    "EFFFL": "Y",
    "ANL01FL": "Y"
  },
  {
    "STUDYID": "KN868",
    "USUBJID": "KN868-0006-0015",
    "TRTP": "Pembrolizumab + Chemo",
    "TRTPN": 1,
    "PARAMCD": "PFS",
    "PARAM": "Progression-Free Survival",
    "AVAL": 1.69,
    "CNSR": 0,
    "EVNTDESC": "DISEASE PROGRESSION",
    "STARTDT": "2021-03-08",
    "ADT": "2021-04-28",
    "ADY": 52,
    "AGE": 79,
    "AGEGR1": ">=65",
    "SEX": false,
    "MMRSTAT": "pMMR",
    "ECOGBL": 0,
    "SAFFL": "Y",
    "ITTFL": "Y",
    "EFFFL": "Y",
    "ANL01FL": "Y"
  },
  {
    "STUDYID": "KN868",
    "USUBJID": "KN868-0006-0016",
    "TRTP": "Pembrolizumab + Chemo",
    "TRTPN": 1,
    "PARAMCD": "OS",
    "PARAM": "Overall Survival",
    "AVAL": 41.82,
    "CNSR": 1,
    "EVNTDESC": "CENSORED",
    "STARTDT": "2020-04-10",
    "ADT": "2023-10-05",
    "ADY": 1274,
    "AGE": 64,
    "AGEGR1": "<65",
    "SEX": false,
    "MMRSTAT": "pMMR",
    "ECOGBL": 1,
    "SAFFL": "Y",
    "ITTFL": "Y",
    "EFFFL": "Y",
    "ANL01FL": "Y"
  },
  {
    "STUDYID": "KN868",
    "USUBJID": "KN868-0006-0016",
    "TRTP": "Pembrolizumab + Chemo",
    "TRTPN": 1,
    "PARAMCD": "PFS",
    "PARAM": "Progression-Free Survival",
    "AVAL": 23.15,
    "CNSR": 0,
    "EVNTDESC": "DISEASE PROGRESSION",
    "STARTDT": "2020-04-10",
    "ADT": "2022-03-16",
    "ADY": 706,
    "AGE": 64,
    "AGEGR1": "<65",
    "SEX": false,
    "MMRSTAT": "pMMR",
    "ECOGBL": 1,
    "SAFFL": "Y",
    "ITTFL": "Y",
    "EFFFL": "Y",
    "ANL01FL": "Y"
  },
  {
    "STUDYID": "KN868",
    "USUBJID": "KN868-0006-0017",
    "TRTP": "Pembrolizumab + Chemo",
    "TRTPN": 1,
    "PARAMCD": "PFS",
    "PARAM": "Progression-Free Survival",
    "AVAL": 31.83,
    "CNSR": 0,
    "EVNTDESC": "DEATH",
    "STARTDT": "2021-02-05",
    "ADT": "2023-10-02",
    "ADY": 970,
    "AGE": 55,
    "AGEGR1": "<65",
    "SEX": false,
    "MMRSTAT": "pMMR",
    "ECOGBL": 0,
    "SAFFL": "Y",
    "ITTFL": "Y",
    "EFFFL": "Y",
    "ANL01FL": "Y"
  },
  {
    "STUDYID": "KN868",
    "USUBJID": "KN868-0006-0017",
    "TRTP": "Pembrolizumab + Chemo",
    "TRTPN": 1,
    "PARAMCD": "OS",
    "PARAM": "Overall Survival",
    "AVAL": 31.87,
    "CNSR": 1,
    "EVNTDESC": "CENSORED",
    "STARTDT": "2021-02-05",
    "ADT": "2023-10-03",
    "ADY": 971,
    "AGE": 55,
    "AGEGR1": "<65",
    "SEX": false,
    "MMRSTAT": "pMMR",
    "ECOGBL": 0,
    "SAFFL": "Y",
    "ITTFL": "Y",
    "EFFFL": "Y",
    "ANL01FL": "Y"
  },
  {
    "STUDYID": "KN868",
    "USUBJID": "KN868-0006-0018",
    "TRTP": "Pembrolizumab + Chemo",
    "TRTPN": 1,
    "PARAMCD": "PFS",
    "PARAM": "Progression-Free Survival",
    "AVAL": 3.43,
    "CNSR": 0,
    "EVNTDESC": "DISEASE PROGRESSION",
    "STARTDT": "2020-03-31",
    "ADT": "2020-07-13",
    "ADY": 105,
    "AGE": 75,
    "AGEGR1": ">=65",
    "SEX": false,
    "MMRSTAT": "dMMR",
    "ECOGBL": 1,
    "SAFFL": "Y",
    "ITTFL": "Y",
    "EFFFL": "Y",
    "ANL01FL": "Y"
  },
  {
    "STUDYID": "KN868",
    "USUBJID": "KN868-0006-0018",
    "TRTP": "Pembrolizumab + Chemo",
    "TRTPN": 1,
    "PARAMCD": "OS",
    "PARAM": "Overall Survival",
    "AVAL": 42.21,
    "CNSR": 1,
    "EVNTDESC": "CENSORED",
    "STARTDT": "2020-03-31",
    "ADT": "2023-10-07",
    "ADY": 1286,
    "AGE": 75,
    "AGEGR1": ">=65",
    "SEX": false,
    "MMRSTAT": "dMMR",
    "ECOGBL": 1,
    "SAFFL": "Y",
    "ITTFL": "Y",
    "EFFFL": "Y",
    "ANL01FL": "Y"
  },
  {
    "STUDYID": "KN868",
    "USUBJID": "KN868-0006-0019",
    "TRTP": "Placebo + Chemo",
    "TRTPN": 2,
    "PARAMCD": "PFS",
    "PARAM": "Progression-Free Survival",
    "AVAL": 20.14,
    "CNSR": 1,
    "EVNTDESC": "CENSORED",
    "STARTDT": "2022-01-29",
    "ADT": "2023-10-04",
    "ADY": 614,
    "AGE": 53,
    "AGEGR1": "<65",
    "SEX": false,
    "MMRSTAT": "dMMR",
    "ECOGBL": 0,
    "SAFFL": "Y",
    "ITTFL": "Y",
    "EFFFL": "Y",
    "ANL01FL": "Y"
  },
  {
    "STUDYID": "KN868",
    "USUBJID": "KN868-0006-0019",
    "TRTP": "Placebo + Chemo",
    "TRTPN": 2,
    "PARAMCD": "OS",
    "PARAM": "Overall Survival",
    "AVAL": 20.14,
    "CNSR": 1,
    "EVNTDESC": "CENSORED",
    "STARTDT": "2022-01-29",
    "ADT": "2023-10-04",
    "ADY": 614,
    "AGE": 53,
    "AGEGR1": "<65",
    "SEX": false,
    "MMRSTAT": "dMMR",
    "ECOGBL": 0,
    "SAFFL": "Y",
    "ITTFL": "Y",
    "EFFFL": "Y",
    "ANL01FL": "Y"
  },
  {
    "STUDYID": "KN868",
    "USUBJID": "KN868-0006-0020",
    "TRTP": "Placebo + Chemo",
    "TRTPN": 2,
    "PARAMCD": "OS",
    "PARAM": "Overall Survival",
    "AVAL": 14.98,
    "CNSR": 0,
    "EVNTDESC": "DEATH",
    "STARTDT": "2020-12-23",
    "ADT": "2022-03-24",
    "ADY": 457,
    "AGE": 68,
    "AGEGR1": ">=65",
    "SEX": false,
    "MMRSTAT": "pMMR",
    "ECOGBL": 0,
    "SAFFL": "Y",
    "ITTFL": "Y",
    "EFFFL": "Y",
    "ANL01FL": "Y"
  },
  {
    "STUDYID": "KN868",
    "USUBJID": "KN868-0006-0020",
    "TRTP": "Placebo + Chemo",
    "TRTPN": 2,
    "PARAMCD": "PFS",
    "PARAM": "Progression-Free Survival",
    "AVAL": 7.92,
    "CNSR": 0,
    "EVNTDESC": "DISEASE PROGRESSION",
    "STARTDT": "2020-12-23",
    "ADT": "2021-08-21",
    "ADY": 242,
    "AGE": 68,
    "AGEGR1": ">=65",
    "SEX": false,
    "MMRSTAT": "pMMR",
    "ECOGBL": 0,
    "SAFFL": "Y",
    "ITTFL": "Y",
    "EFFFL": "Y",
    "ANL01FL": "Y"
  },
  {
    "STUDYID": "KN868",
    "USUBJID": "KN868-0006-0021",
    "TRTP": "Placebo + Chemo",
    "TRTPN": 2,
    "PARAMCD": "PFS",
    "PARAM": "Progression-Free Survival",
    "AVAL": 10.16,
    "CNSR": 0,
    "EVNTDESC": "DISEASE PROGRESSION",
    "STARTDT": "2020-12-22",
    "ADT": "2021-10-27",
    "ADY": 310,
    "AGE": 70,
    "AGEGR1": ">=65",
    "SEX": false,
    "MMRSTAT": "pMMR",
    "ECOGBL": 0,
    "SAFFL": "Y",
    "ITTFL": "Y",
    "EFFFL": "Y",
    "ANL01FL": "Y"
  },
  {
    "STUDYID": "KN868",
    "USUBJID": "KN868-0006-0021",
    "TRTP": "Placebo + Chemo",
    "TRTPN": 2,
    "PARAMCD": "OS",
    "PARAM": "Overall Survival",
    "AVAL": 21.2,
    "CNSR": 0,
    "EVNTDESC": "DEATH",
    "STARTDT": "2020-12-22",
    "ADT": "2022-09-28",
    "ADY": 646,
    "AGE": 70,
    "AGEGR1": ">=65",
    "SEX": false,
    "MMRSTAT": "pMMR",
    "ECOGBL": 0,
    "SAFFL": "Y",
    "ITTFL": "Y",
    "EFFFL": "Y",
    "ANL01FL": "Y"
  },
  {
    "STUDYID": "KN868",
    "USUBJID": "KN868-0006-0022",
    "TRTP": "Pembrolizumab + Chemo",
    "TRTPN": 1,
    "PARAMCD": "PFS",
    "PARAM": "Progression-Free Survival",
    "AVAL": 0.65,
    "CNSR": 0,
    "EVNTDESC": "DISEASE PROGRESSION",
    "STARTDT": "2021-03-26",
    "ADT": "2021-04-15",
    "ADY": 21,
    "AGE": 62,
    "AGEGR1": "<65",
    "SEX": false,
    "MMRSTAT": "pMMR",
    "ECOGBL": 1,
    "SAFFL": "Y",
    "ITTFL": "Y",
    "EFFFL": "Y",
    "ANL01FL": "Y"
  },
  {
    "STUDYID": "KN868",
    "USUBJID": "KN868-0006-0022",
    "TRTP": "Pembrolizumab + Chemo",
    "TRTPN": 1,
    "PARAMCD": "OS",
    "PARAM": "Overall Survival",
    "AVAL": 26.52,
    "CNSR": 0,
    "EVNTDESC": "DEATH",
    "STARTDT": "2021-03-26",
    "ADT": "2023-06-11",
    "ADY": 808,
    "AGE": 62,
    "AGEGR1": "<65",
    "SEX": false,
    "MMRSTAT": "pMMR",
    "ECOGBL": 1,
    "SAFFL": "Y",
    "ITTFL": "Y",
    "EFFFL": "Y",
    "ANL01FL": "Y"
  },
  {
    "STUDYID": "KN868",
    "USUBJID": "KN868-0006-0023",
    "TRTP": "Placebo + Chemo",
    "TRTPN": 2,
    "PARAMCD": "PFS",
    "PARAM": "Progression-Free Survival",
    "AVAL": 26.77,
    "CNSR": 0,
    "EVNTDESC": "DEATH",
    "STARTDT": "2020-04-04",
    "ADT": "2022-06-28",
    "ADY": 816,
    "AGE": 73,
    "AGEGR1": ">=65",
    "SEX": false,
    "MMRSTAT": "pMMR",
    "ECOGBL": 0,
    "SAFFL": "Y",
    "ITTFL": "Y",
    "EFFFL": "Y",
    "ANL01FL": "Y"
  },
  {
    "STUDYID": "KN868",
    "USUBJID": "KN868-0006-0023",
    "TRTP": "Placebo + Chemo",
    "TRTPN": 2,
    "PARAMCD": "OS",
    "PARAM": "Overall Survival",
    "AVAL": 36.85,
    "CNSR": 0,
    "EVNTDESC": "DEATH",
    "STARTDT": "2020-04-04",
    "ADT": "2023-05-01",
    "ADY": 1123,
    "AGE": 73,
    "AGEGR1": ">=65",
    "SEX": false,
    "MMRSTAT": "pMMR",
    "ECOGBL": 0,
    "SAFFL": "Y",
    "ITTFL": "Y",
    "EFFFL": "Y",
    "ANL01FL": "Y"
  },
  {
    "STUDYID": "KN868",
    "USUBJID": "KN868-0006-0024",
    "TRTP": "Placebo + Chemo",
    "TRTPN": 2,
    "PARAMCD": "OS",
    "PARAM": "Overall Survival",
    "AVAL": 26.46,
    "CNSR": 0,
    "EVNTDESC": "DEATH",
    "STARTDT": "2021-06-14",
    "ADT": "2023-08-28",
    "ADY": 806,
    "AGE": 58,
    "AGEGR1": "<65",
    "SEX": false,
    "MMRSTAT": "pMMR",
    "ECOGBL": 1,
    "SAFFL": "Y",
    "ITTFL": "Y",
    "EFFFL": "Y",
    "ANL01FL": "Y"
  },
  {
    "STUDYID": "KN868",
    "USUBJID": "KN868-0006-0024",
    "TRTP": "Placebo + Chemo",
    "TRTPN": 2,
    "PARAMCD": "PFS",
    "PARAM": "Progression-Free Survival",
    "AVAL": 6.54,
    "CNSR": 0,
    "EVNTDESC": "DISEASE PROGRESSION",
    "STARTDT": "2021-06-14",
    "ADT": "2021-12-30",
    "ADY": 200,
    "AGE": 58,
    "AGEGR1": "<65",
    "SEX": false,
    "MMRSTAT": "pMMR",
    "ECOGBL": 1,
    "SAFFL": "Y",
    "ITTFL": "Y",
    "EFFFL": "Y",
    "ANL01FL": "Y"
  },
  {
    "STUDYID": "KN868",
    "USUBJID": "KN868-0006-0025",
    "TRTP": "Pembrolizumab + Chemo",
    "TRTPN": 1,
    "PARAMCD": "PFS",
    "PARAM": "Progression-Free Survival",
    "AVAL": 21.58,
    "CNSR": 0,
    "EVNTDESC": "DISEASE PROGRESSION",
    "STARTDT": "2020-03-07",
    "ADT": "2021-12-24",
    "ADY": 658,
    "AGE": 60,
    "AGEGR1": "<65",
    "SEX": false,
    "MMRSTAT": "pMMR",
    "ECOGBL": 0,
    "SAFFL": "Y",
    "ITTFL": "Y",
    "EFFFL": "Y",
    "ANL01FL": "Y"
  },
  {
    "STUDYID": "KN868",
    "USUBJID": "KN868-0006-0025",
    "TRTP": "Pembrolizumab + Chemo",
    "TRTPN": 1,
    "PARAMCD": "OS",
    "PARAM": "Overall Survival",
    "AVAL": 35.5,
    "CNSR": 0,
    "EVNTDESC": "DEATH",
    "STARTDT": "2020-03-07",
    "ADT": "2023-02-21",
    "ADY": 1082,
    "AGE": 60,
    "AGEGR1": "<65",
    "SEX": false,
    "MMRSTAT": "pMMR",
    "ECOGBL": 0,
    "SAFFL": "Y",
    "ITTFL": "Y",
    "EFFFL": "Y",
    "ANL01FL": "Y"
  },
  {
    "STUDYID": "KN868",
    "USUBJID": "KN868-0006-0026",
    "TRTP": "Pembrolizumab + Chemo",
    "TRTPN": 1,
    "PARAMCD": "PFS",
    "PARAM": "Progression-Free Survival",
    "AVAL": 8.98,
    "CNSR": 0,
    "EVNTDESC": "DEATH",
    "STARTDT": "2021-09-26",
    "ADT": "2022-06-26",
    "ADY": 274,
    "AGE": 73,
    "AGEGR1": ">=65",
    "SEX": false,
    "MMRSTAT": "pMMR",
    "ECOGBL": 0,
    "SAFFL": "Y",
    "ITTFL": "Y",
    "EFFFL": "Y",
    "ANL01FL": "Y"
  },
  {
    "STUDYID": "KN868",
    "USUBJID": "KN868-0006-0026",
    "TRTP": "Pembrolizumab + Chemo",
    "TRTPN": 1,
    "PARAMCD": "OS",
    "PARAM": "Overall Survival",
    "AVAL": 21.23,
    "CNSR": 0,
    "EVNTDESC": "DEATH",
    "STARTDT": "2021-09-26",
    "ADT": "2023-07-04",
    "ADY": 647,
    "AGE": 73,
    "AGEGR1": ">=65",
    "SEX": false,
    "MMRSTAT": "pMMR",
    "ECOGBL": 0,
    "SAFFL": "Y",
    "ITTFL": "Y",
    "EFFFL": "Y",
    "ANL01FL": "Y"
  },
  {
    "STUDYID": "KN868",
    "USUBJID": "KN868-0006-0027",
    "TRTP": "Placebo + Chemo",
    "TRTPN": 2,
    "PARAMCD": "PFS",
    "PARAM": "Progression-Free Survival",
    "AVAL": 3.83,
    "CNSR": 0,
    "EVNTDESC": "DISEASE PROGRESSION",
    "STARTDT": "2021-06-11",
    "ADT": "2021-10-06",
    "ADY": 118,
    "AGE": 55,
    "AGEGR1": "<65",
    "SEX": false,
    "MMRSTAT": "pMMR",
    "ECOGBL": 1,
    "SAFFL": "Y",
    "ITTFL": "Y",
    "EFFFL": "Y",
    "ANL01FL": "Y"
  },
  {
    "STUDYID": "KN868",
    "USUBJID": "KN868-0006-0027",
    "TRTP": "Placebo + Chemo",
    "TRTPN": 2,
    "PARAMCD": "OS",
    "PARAM": "Overall Survival",
    "AVAL": 7.96,
    "CNSR": 0,
    "EVNTDESC": "DEATH",
    "STARTDT": "2021-06-11",
    "ADT": "2022-02-08",
    "ADY": 243,
    "AGE": 55,
    "AGEGR1": "<65",
    "SEX": false,
    "MMRSTAT": "pMMR",
    "ECOGBL": 1,
    "SAFFL": "Y",
    "ITTFL": "Y",
    "EFFFL": "Y",
    "ANL01FL": "Y"
  },
  {
    "STUDYID": "KN868",
    "USUBJID": "KN868-0006-0028",
    "TRTP": "Placebo + Chemo",
    "TRTPN": 2,
    "PARAMCD": "OS",
    "PARAM": "Overall Survival",
    "AVAL": 24.1,
    "CNSR": 0,
    "EVNTDESC": "DEATH",
    "STARTDT": "2021-05-20",
    "ADT": "2023-05-24",
    "ADY": 735,
    "AGE": 60,
    "AGEGR1": "<65",
    "SEX": false,
    "MMRSTAT": "pMMR",
    "ECOGBL": 1,
    "SAFFL": "Y",
    "ITTFL": "Y",
    "EFFFL": "Y",
    "ANL01FL": "Y"
  },
  {
    "STUDYID": "KN868",
    "USUBJID": "KN868-0006-0028",
    "TRTP": "Placebo + Chemo",
    "TRTPN": 2,
    "PARAMCD": "PFS",
    "PARAM": "Progression-Free Survival",
    "AVAL": 13.79,
    "CNSR": 0,
    "EVNTDESC": "DISEASE PROGRESSION",
    "STARTDT": "2021-05-20",
    "ADT": "2022-07-14",
    "ADY": 421,
    "AGE": 60,
    "AGEGR1": "<65",
    "SEX": false,
    "MMRSTAT": "pMMR",
    "ECOGBL": 1,
    "SAFFL": "Y",
    "ITTFL": "Y",
    "EFFFL": "Y",
    "ANL01FL": "Y"
  },
  {
    "STUDYID": "KN868",
    "USUBJID": "KN868-0006-0029",
    "TRTP": "Pembrolizumab + Chemo",
    "TRTPN": 1,
    "PARAMCD": "OS",
    "PARAM": "Overall Survival",
    "AVAL": 30.29,
    "CNSR": 1,
    "EVNTDESC": "CENSORED",
    "STARTDT": "2021-03-28",
    "ADT": "2023-10-06",
    "ADY": 923,
    "AGE": 56,
    "AGEGR1": "<65",
    "SEX": false,
    "MMRSTAT": "pMMR",
    "ECOGBL": 1,
    "SAFFL": "Y",
    "ITTFL": "Y",
    "EFFFL": "Y",
    "ANL01FL": "Y"
  },
  {
    "STUDYID": "KN868",
    "USUBJID": "KN868-0006-0029",
    "TRTP": "Pembrolizumab + Chemo",
    "TRTPN": 1,
    "PARAMCD": "PFS",
    "PARAM": "Progression-Free Survival",
    "AVAL": 2.38,
    "CNSR": 0,
    "EVNTDESC": "DEATH",
    "STARTDT": "2021-03-28",
    "ADT": "2021-06-08",
    "ADY": 73,
    "AGE": 56,
    "AGEGR1": "<65",
    "SEX": false,
    "MMRSTAT": "pMMR",
    "ECOGBL": 1,
    "SAFFL": "Y",
    "ITTFL": "Y",
    "EFFFL": "Y",
    "ANL01FL": "Y"
  },
  {
    "STUDYID": "KN868",
    "USUBJID": "KN868-0006-0030",
    "TRTP": "Pembrolizumab + Chemo",
    "TRTPN": 1,
    "PARAMCD": "PFS",
    "PARAM": "Progression-Free Survival",
    "AVAL": 9.02,
    "CNSR": 0,
    "EVNTDESC": "DISEASE PROGRESSION",
    "STARTDT": "2020-04-27",
    "ADT": "2021-01-27",
    "ADY": 276,
    "AGE": 76,
    "AGEGR1": ">=65",
    "SEX": false,
    "MMRSTAT": "pMMR",
    "ECOGBL": 0,
    "SAFFL": "Y",
    "ITTFL": "Y",
    "EFFFL": "Y",
    "ANL01FL": "Y"
  },
  {
    "STUDYID": "KN868",
    "USUBJID": "KN868-0006-0030",
    "TRTP": "Pembrolizumab + Chemo",
    "TRTPN": 1,
    "PARAMCD": "OS",
    "PARAM": "Overall Survival",
    "AVAL": 9.32,
    "CNSR": 0,
    "EVNTDESC": "DEATH",
    "STARTDT": "2020-04-27",
    "ADT": "2021-02-05",
    "ADY": 285,
    "AGE": 76,
    "AGEGR1": ">=65",
    "SEX": false,
    "MMRSTAT": "pMMR",
    "ECOGBL": 0,
    "SAFFL": "Y",
    "ITTFL": "Y",
    "EFFFL": "Y",
    "ANL01FL": "Y"
  },
  {
    "STUDYID": "KN868",
    "USUBJID": "KN868-0007-0001",
    "TRTP": "Pembrolizumab + Chemo",
    "TRTPN": 1,
    "PARAMCD": "PFS",
    "PARAM": "Progression-Free Survival",
    "AVAL": 15.47,
    "CNSR": 0,
    "EVNTDESC": "DISEASE PROGRESSION",
    "STARTDT": "2021-11-20",
    "ADT": "2023-03-06",
    "ADY": 472,
    "AGE": 58,
    "AGEGR1": "<65",
    "SEX": false,
    "MMRSTAT": "pMMR",
    "ECOGBL": 1,
    "SAFFL": "Y",
    "ITTFL": "Y",
    "EFFFL": "Y",
    "ANL01FL": "Y"
  },
  {
    "STUDYID": "KN868",
    "USUBJID": "KN868-0007-0001",
    "TRTP": "Pembrolizumab + Chemo",
    "TRTPN": 1,
    "PARAMCD": "OS",
    "PARAM": "Overall Survival",
    "AVAL": 22.44,
    "CNSR": 1,
    "EVNTDESC": "CENSORED",
    "STARTDT": "2021-11-20",
    "ADT": "2023-10-04",
    "ADY": 684,
    "AGE": 58,
    "AGEGR1": "<65",
    "SEX": false,
    "MMRSTAT": "pMMR",
    "ECOGBL": 1,
    "SAFFL": "Y",
    "ITTFL": "Y",
    "EFFFL": "Y",
    "ANL01FL": "Y"
  },
  {
    "STUDYID": "KN868",
    "USUBJID": "KN868-0007-0002",
    "TRTP": "Pembrolizumab + Chemo",
    "TRTPN": 1,
    "PARAMCD": "PFS",
    "PARAM": "Progression-Free Survival",
    "AVAL": 19.48,
    "CNSR": 0,
    "EVNTDESC": "DISEASE PROGRESSION",
    "STARTDT": "2021-05-26",
    "ADT": "2023-01-09",
    "ADY": 594,
    "AGE": 64,
    "AGEGR1": "<65",
    "SEX": false,
    "MMRSTAT": "pMMR",
    "ECOGBL": 0,
    "SAFFL": "Y",
    "ITTFL": "Y",
    "EFFFL": "Y",
    "ANL01FL": "Y"
  },
  {
    "STUDYID": "KN868",
    "USUBJID": "KN868-0007-0002",
    "TRTP": "Pembrolizumab + Chemo",
    "TRTPN": 1,
    "PARAMCD": "OS",
    "PARAM": "Overall Survival",
    "AVAL": 28.29,
    "CNSR": 1,
    "EVNTDESC": "CENSORED",
    "STARTDT": "2021-05-26",
    "ADT": "2023-10-04",
    "ADY": 862,
    "AGE": 64,
    "AGEGR1": "<65",
    "SEX": false,
    "MMRSTAT": "pMMR",
    "ECOGBL": 0,
    "SAFFL": "Y",
    "ITTFL": "Y",
    "EFFFL": "Y",
    "ANL01FL": "Y"
  },
  {
    "STUDYID": "KN868",
    "USUBJID": "KN868-0007-0003",
    "TRTP": "Placebo + Chemo",
    "TRTPN": 2,
    "PARAMCD": "OS",
    "PARAM": "Overall Survival",
    "AVAL": 1.15,
    "CNSR": 0,
    "EVNTDESC": "DEATH",
    "STARTDT": "2021-02-26",
    "ADT": "2021-04-02",
    "ADY": 36,
    "AGE": 66,
    "AGEGR1": ">=65",
    "SEX": false,
    "MMRSTAT": "pMMR",
    "ECOGBL": 0,
    "SAFFL": "Y",
    "ITTFL": "Y",
    "EFFFL": "Y",
    "ANL01FL": "Y"
  },
  {
    "STUDYID": "KN868",
    "USUBJID": "KN868-0007-0003",
    "TRTP": "Placebo + Chemo",
    "TRTPN": 2,
    "PARAMCD": "PFS",
    "PARAM": "Progression-Free Survival",
    "AVAL": 1.15,
    "CNSR": 0,
    "EVNTDESC": "DISEASE PROGRESSION",
    "STARTDT": "2021-02-26",
    "ADT": "2021-04-02",
    "ADY": 36,
    "AGE": 66,
    "AGEGR1": ">=65",
    "SEX": false,
    "MMRSTAT": "pMMR",
    "ECOGBL": 0,
    "SAFFL": "Y",
    "ITTFL": "Y",
    "EFFFL": "Y",
    "ANL01FL": "Y"
  },
  {
    "STUDYID": "KN868",
    "USUBJID": "KN868-0007-0004",
    "TRTP": "Placebo + Chemo",
    "TRTPN": 2,
    "PARAMCD": "PFS",
    "PARAM": "Progression-Free Survival",
    "AVAL": 7.02,
    "CNSR": 0,
    "EVNTDESC": "DISEASE PROGRESSION",
    "STARTDT": "2020-03-28",
    "ADT": "2020-10-28",
    "ADY": 215,
    "AGE": 76,
    "AGEGR1": ">=65",
    "SEX": false,
    "MMRSTAT": "pMMR",
    "ECOGBL": 1,
    "SAFFL": "Y",
    "ITTFL": "Y",
    "EFFFL": "Y",
    "ANL01FL": "Y"
  },
  {
    "STUDYID": "KN868",
    "USUBJID": "KN868-0007-0004",
    "TRTP": "Placebo + Chemo",
    "TRTPN": 2,
    "PARAMCD": "OS",
    "PARAM": "Overall Survival",
    "AVAL": 7.82,
    "CNSR": 0,
    "EVNTDESC": "DEATH",
    "STARTDT": "2020-03-28",
    "ADT": "2020-11-21",
    "ADY": 239,
    "AGE": 76,
    "AGEGR1": ">=65",
    "SEX": false,
    "MMRSTAT": "pMMR",
    "ECOGBL": 1,
    "SAFFL": "Y",
    "ITTFL": "Y",
    "EFFFL": "Y",
    "ANL01FL": "Y"
  },
  {
    "STUDYID": "KN868",
    "USUBJID": "KN868-0007-0005",
    "TRTP": "Placebo + Chemo",
    "TRTPN": 2,
    "PARAMCD": "PFS",
    "PARAM": "Progression-Free Survival",
    "AVAL": 2.83,
    "CNSR": 0,
    "EVNTDESC": "DISEASE PROGRESSION",
    "STARTDT": "2020-08-04",
    "ADT": "2020-10-29",
    "ADY": 87,
    "AGE": 58,
    "AGEGR1": "<65",
    "SEX": false,
    "MMRSTAT": "pMMR",
    "ECOGBL": 1,
    "SAFFL": "Y",
    "ITTFL": "Y",
    "EFFFL": "Y",
    "ANL01FL": "Y"
  },
  {
    "STUDYID": "KN868",
    "USUBJID": "KN868-0007-0005",
    "TRTP": "Placebo + Chemo",
    "TRTPN": 2,
    "PARAMCD": "OS",
    "PARAM": "Overall Survival",
    "AVAL": 3.69,
    "CNSR": 0,
    "EVNTDESC": "DEATH",
    "STARTDT": "2020-08-04",
    "ADT": "2020-11-24",
    "ADY": 113,
    "AGE": 58,
    "AGEGR1": "<65",
    "SEX": false,
    "MMRSTAT": "pMMR",
    "ECOGBL": 1,
    "SAFFL": "Y",
    "ITTFL": "Y",
    "EFFFL": "Y",
    "ANL01FL": "Y"
  },
  {
    "STUDYID": "KN868",
    "USUBJID": "KN868-0007-0006",
    "TRTP": "Pembrolizumab + Chemo",
    "TRTPN": 1,
    "PARAMCD": "PFS",
    "PARAM": "Progression-Free Survival",
    "AVAL": 10.8,
    "CNSR": 0,
    "EVNTDESC": "DISEASE PROGRESSION",
    "STARTDT": "2020-06-01",
    "ADT": "2021-04-26",
    "ADY": 330,
    "AGE": 82,
    "AGEGR1": ">=65",
    "SEX": false,
    "MMRSTAT": "pMMR",
    "ECOGBL": 1,
    "SAFFL": "Y",
    "ITTFL": "Y",
    "EFFFL": "Y",
    "ANL01FL": "Y"
  },
  {
    "STUDYID": "KN868",
    "USUBJID": "KN868-0007-0006",
    "TRTP": "Pembrolizumab + Chemo",
    "TRTPN": 1,
    "PARAMCD": "OS",
    "PARAM": "Overall Survival",
    "AVAL": 28.23,
    "CNSR": 0,
    "EVNTDESC": "DEATH",
    "STARTDT": "2020-06-01",
    "ADT": "2022-10-08",
    "ADY": 860,
    "AGE": 82,
    "AGEGR1": ">=65",
    "SEX": false,
    "MMRSTAT": "pMMR",
    "ECOGBL": 1,
    "SAFFL": "Y",
    "ITTFL": "Y",
    "EFFFL": "Y",
    "ANL01FL": "Y"
  },
  {
    "STUDYID": "KN868",
    "USUBJID": "KN868-0007-0007",
    "TRTP": "Placebo + Chemo",
    "TRTPN": 2,
    "PARAMCD": "OS",
    "PARAM": "Overall Survival",
    "AVAL": 20.76,
    "CNSR": 0,
    "EVNTDESC": "DEATH",
    "STARTDT": "2020-05-02",
    "ADT": "2022-01-24",
    "ADY": 633,
    "AGE": 47,
    "AGEGR1": "<65",
    "SEX": false,
    "MMRSTAT": "dMMR",
    "ECOGBL": 1,
    "SAFFL": "Y",
    "ITTFL": "Y",
    "EFFFL": "Y",
    "ANL01FL": "Y"
  },
  {
    "STUDYID": "KN868",
    "USUBJID": "KN868-0007-0007",
    "TRTP": "Placebo + Chemo",
    "TRTPN": 2,
    "PARAMCD": "PFS",
    "PARAM": "Progression-Free Survival",
    "AVAL": 13.53,
    "CNSR": 0,
    "EVNTDESC": "DISEASE PROGRESSION",
    "STARTDT": "2020-05-02",
    "ADT": "2021-06-18",
    "ADY": 413,
    "AGE": 47,
    "AGEGR1": "<65",
    "SEX": false,
    "MMRSTAT": "dMMR",
    "ECOGBL": 1,
    "SAFFL": "Y",
    "ITTFL": "Y",
    "EFFFL": "Y",
    "ANL01FL": "Y"
  },
  {
    "STUDYID": "KN868",
    "USUBJID": "KN868-0007-0008",
    "TRTP": "Pembrolizumab + Chemo",
    "TRTPN": 1,
    "PARAMCD": "PFS",
    "PARAM": "Progression-Free Survival",
    "AVAL": 0.7,
    "CNSR": 0,
    "EVNTDESC": "DISEASE PROGRESSION",
    "STARTDT": "2020-07-17",
    "ADT": "2020-08-07",
    "ADY": 22,
    "AGE": 55,
    "AGEGR1": "<65",
    "SEX": false,
    "MMRSTAT": "pMMR",
    "ECOGBL": 0,
    "SAFFL": "Y",
    "ITTFL": "Y",
    "EFFFL": "Y",
    "ANL01FL": "Y"
  },
  {
    "STUDYID": "KN868",
    "USUBJID": "KN868-0007-0008",
    "TRTP": "Pembrolizumab + Chemo",
    "TRTPN": 1,
    "PARAMCD": "OS",
    "PARAM": "Overall Survival",
    "AVAL": 15.5,
    "CNSR": 0,
    "EVNTDESC": "DEATH",
    "STARTDT": "2020-07-17",
    "ADT": "2021-11-01",
    "ADY": 473,
    "AGE": 55,
    "AGEGR1": "<65",
    "SEX": false,
    "MMRSTAT": "pMMR",
    "ECOGBL": 0,
    "SAFFL": "Y",
    "ITTFL": "Y",
    "EFFFL": "Y",
    "ANL01FL": "Y"
  },
  {
    "STUDYID": "KN868",
    "USUBJID": "KN868-0007-0009",
    "TRTP": "Pembrolizumab + Chemo",
    "TRTPN": 1,
    "PARAMCD": "PFS",
    "PARAM": "Progression-Free Survival",
    "AVAL": 21.78,
    "CNSR": 0,
    "EVNTDESC": "DISEASE PROGRESSION",
    "STARTDT": "2021-04-10",
    "ADT": "2023-02-02",
    "ADY": 664,
    "AGE": 87,
    "AGEGR1": ">=65",
    "SEX": false,
    "MMRSTAT": "dMMR",
    "ECOGBL": 0,
    "SAFFL": "Y",
    "ITTFL": "Y",
    "EFFFL": "Y",
    "ANL01FL": "Y"
  },
  {
    "STUDYID": "KN868",
    "USUBJID": "KN868-0007-0009",
    "TRTP": "Pembrolizumab + Chemo",
    "TRTPN": 1,
    "PARAMCD": "OS",
    "PARAM": "Overall Survival",
    "AVAL": 29.76,
    "CNSR": 1,
    "EVNTDESC": "CENSORED",
    "STARTDT": "2021-04-10",
    "ADT": "2023-10-03",
    "ADY": 907,
    "AGE": 87,
    "AGEGR1": ">=65",
    "SEX": false,
    "MMRSTAT": "dMMR",
    "ECOGBL": 0,
    "SAFFL": "Y",
    "ITTFL": "Y",
    "EFFFL": "Y",
    "ANL01FL": "Y"
  },
  {
    "STUDYID": "KN868",
    "USUBJID": "KN868-0007-0010",
    "TRTP": "Pembrolizumab + Chemo",
    "TRTPN": 1,
    "PARAMCD": "PFS",
    "PARAM": "Progression-Free Survival",
    "AVAL": 2.61,
    "CNSR": 1,
    "EVNTDESC": "CENSORED",
    "STARTDT": "2020-10-09",
    "ADT": "2020-12-27",
    "ADY": 80,
    "AGE": 67,
    "AGEGR1": ">=65",
    "SEX": false,
    "MMRSTAT": "pMMR",
    "ECOGBL": 1,
    "SAFFL": "Y",
    "ITTFL": "Y",
    "EFFFL": "Y",
    "ANL01FL": "Y"
  },
  {
    "STUDYID": "KN868",
    "USUBJID": "KN868-0007-0010",
    "TRTP": "Pembrolizumab + Chemo",
    "TRTPN": 1,
    "PARAMCD": "OS",
    "PARAM": "Overall Survival",
    "AVAL": 20.92,
    "CNSR": 0,
    "EVNTDESC": "DEATH",
    "STARTDT": "2020-10-09",
    "ADT": "2022-07-08",
    "ADY": 638,
    "AGE": 67,
    "AGEGR1": ">=65",
    "SEX": false,
    "MMRSTAT": "pMMR",
    "ECOGBL": 1,
    "SAFFL": "Y",
    "ITTFL": "Y",
    "EFFFL": "Y",
    "ANL01FL": "Y"
  },
  {
    "STUDYID": "KN868",
    "USUBJID": "KN868-0007-0011",
    "TRTP": "Pembrolizumab + Chemo",
    "TRTPN": 1,
    "PARAMCD": "OS",
    "PARAM": "Overall Survival",
    "AVAL": 24.87,
    "CNSR": 1,
    "EVNTDESC": "CENSORED",
    "STARTDT": "2021-09-06",
    "ADT": "2023-10-03",
    "ADY": 758,
    "AGE": 56,
    "AGEGR1": "<65",
    "SEX": false,
    "MMRSTAT": "dMMR",
    "ECOGBL": 1,
    "SAFFL": "Y",
    "ITTFL": "Y",
    "EFFFL": "Y",
    "ANL01FL": "Y"
  },
  {
    "STUDYID": "KN868",
    "USUBJID": "KN868-0007-0011",
    "TRTP": "Pembrolizumab + Chemo",
    "TRTPN": 1,
    "PARAMCD": "PFS",
    "PARAM": "Progression-Free Survival",
    "AVAL": 24.87,
    "CNSR": 1,
    "EVNTDESC": "CENSORED",
    "STARTDT": "2021-09-06",
    "ADT": "2023-10-03",
    "ADY": 758,
    "AGE": 56,
    "AGEGR1": "<65",
    "SEX": false,
    "MMRSTAT": "dMMR",
    "ECOGBL": 1,
    "SAFFL": "Y",
    "ITTFL": "Y",
    "EFFFL": "Y",
    "ANL01FL": "Y"
  },
  {
    "STUDYID": "KN868",
    "USUBJID": "KN868-0007-0012",
    "TRTP": "Placebo + Chemo",
    "TRTPN": 2,
    "PARAMCD": "PFS",
    "PARAM": "Progression-Free Survival",
    "AVAL": 20.6,
    "CNSR": 1,
    "EVNTDESC": "CENSORED",
    "STARTDT": "2022-01-16",
    "ADT": "2023-10-05",
    "ADY": 628,
    "AGE": 77,
    "AGEGR1": ">=65",
    "SEX": false,
    "MMRSTAT": "pMMR",
    "ECOGBL": 1,
    "SAFFL": "Y",
    "ITTFL": "Y",
    "EFFFL": "Y",
    "ANL01FL": "Y"
  },
  {
    "STUDYID": "KN868",
    "USUBJID": "KN868-0007-0012",
    "TRTP": "Placebo + Chemo",
    "TRTPN": 2,
    "PARAMCD": "OS",
    "PARAM": "Overall Survival",
    "AVAL": 20.6,
    "CNSR": 1,
    "EVNTDESC": "CENSORED",
    "STARTDT": "2022-01-16",
    "ADT": "2023-10-05",
    "ADY": 628,
    "AGE": 77,
    "AGEGR1": ">=65",
    "SEX": false,
    "MMRSTAT": "pMMR",
    "ECOGBL": 1,
    "SAFFL": "Y",
    "ITTFL": "Y",
    "EFFFL": "Y",
    "ANL01FL": "Y"
  },
  {
    "STUDYID": "KN868",
    "USUBJID": "KN868-0007-0013",
    "TRTP": "Placebo + Chemo",
    "TRTPN": 2,
    "PARAMCD": "OS",
    "PARAM": "Overall Survival",
    "AVAL": 31.41,
    "CNSR": 1,
    "EVNTDESC": "CENSORED",
    "STARTDT": "2021-02-17",
    "ADT": "2023-10-01",
    "ADY": 957,
    "AGE": 67,
    "AGEGR1": ">=65",
    "SEX": false,
    "MMRSTAT": "pMMR",
    "ECOGBL": 0,
    "SAFFL": "Y",
    "ITTFL": "Y",
    "EFFFL": "Y",
    "ANL01FL": "Y"
  },
  {
    "STUDYID": "KN868",
    "USUBJID": "KN868-0007-0013",
    "TRTP": "Placebo + Chemo",
    "TRTPN": 2,
    "PARAMCD": "PFS",
    "PARAM": "Progression-Free Survival",
    "AVAL": 16.76,
    "CNSR": 0,
    "EVNTDESC": "DISEASE PROGRESSION",
    "STARTDT": "2021-02-17",
    "ADT": "2022-07-12",
    "ADY": 511,
    "AGE": 67,
    "AGEGR1": ">=65",
    "SEX": false,
    "MMRSTAT": "pMMR",
    "ECOGBL": 0,
    "SAFFL": "Y",
    "ITTFL": "Y",
    "EFFFL": "Y",
    "ANL01FL": "Y"
  },
  {
    "STUDYID": "KN868",
    "USUBJID": "KN868-0007-0014",
    "TRTP": "Pembrolizumab + Chemo",
    "TRTPN": 1,
    "PARAMCD": "PFS",
    "PARAM": "Progression-Free Survival",
    "AVAL": 1.55,
    "CNSR": 0,
    "EVNTDESC": "DISEASE PROGRESSION",
    "STARTDT": "2020-11-01",
    "ADT": "2020-12-18",
    "ADY": 48,
    "AGE": 42,
    "AGEGR1": "<65",
    "SEX": false,
    "MMRSTAT": "pMMR",
    "ECOGBL": 0,
    "SAFFL": "Y",
    "ITTFL": "Y",
    "EFFFL": "Y",
    "ANL01FL": "Y"
  },
  {
    "STUDYID": "KN868",
    "USUBJID": "KN868-0007-0014",
    "TRTP": "Pembrolizumab + Chemo",
    "TRTPN": 1,
    "PARAMCD": "OS",
    "PARAM": "Overall Survival",
    "AVAL": 35.12,
    "CNSR": 1,
    "EVNTDESC": "CENSORED",
    "STARTDT": "2020-11-01",
    "ADT": "2023-10-06",
    "ADY": 1070,
    "AGE": 42,
    "AGEGR1": "<65",
    "SEX": false,
    "MMRSTAT": "pMMR",
    "ECOGBL": 0,
    "SAFFL": "Y",
    "ITTFL": "Y",
    "EFFFL": "Y",
    "ANL01FL": "Y"
  },
  {
    "STUDYID": "KN868",
    "USUBJID": "KN868-0007-0015",
    "TRTP": "Placebo + Chemo",
    "TRTPN": 2,
    "PARAMCD": "PFS",
    "PARAM": "Progression-Free Survival",
    "AVAL": 5.95,
    "CNSR": 0,
    "EVNTDESC": "DISEASE PROGRESSION",
    "STARTDT": "2020-12-31",
    "ADT": "2021-06-30",
    "ADY": 182,
    "AGE": 57,
    "AGEGR1": "<65",
    "SEX": false,
    "MMRSTAT": "pMMR",
    "ECOGBL": 0,
    "SAFFL": "Y",
    "ITTFL": "Y",
    "EFFFL": "Y",
    "ANL01FL": "Y"
  },
  {
    "STUDYID": "KN868",
    "USUBJID": "KN868-0007-0015",
    "TRTP": "Placebo + Chemo",
    "TRTPN": 2,
    "PARAMCD": "OS",
    "PARAM": "Overall Survival",
    "AVAL": 10.22,
    "CNSR": 0,
    "EVNTDESC": "DEATH",
    "STARTDT": "2020-12-31",
    "ADT": "2021-11-07",
    "ADY": 312,
    "AGE": 57,
    "AGEGR1": "<65",
    "SEX": false,
    "MMRSTAT": "pMMR",
    "ECOGBL": 0,
    "SAFFL": "Y",
    "ITTFL": "Y",
    "EFFFL": "Y",
    "ANL01FL": "Y"
  },
  {
    "STUDYID": "KN868",
    "USUBJID": "KN868-0007-0016",
    "TRTP": "Pembrolizumab + Chemo",
    "TRTPN": 1,
    "PARAMCD": "PFS",
    "PARAM": "Progression-Free Survival",
    "AVAL": 40.63,
    "CNSR": 0,
    "EVNTDESC": "DISEASE PROGRESSION",
    "STARTDT": "2020-05-02",
    "ADT": "2023-09-21",
    "ADY": 1238,
    "AGE": 51,
    "AGEGR1": "<65",
    "SEX": false,
    "MMRSTAT": "dMMR",
    "ECOGBL": 0,
    "SAFFL": "Y",
    "ITTFL": "Y",
    "EFFFL": "Y",
    "ANL01FL": "Y"
  },
  {
    "STUDYID": "KN868",
    "USUBJID": "KN868-0007-0016",
    "TRTP": "Pembrolizumab + Chemo",
    "TRTPN": 1,
    "PARAMCD": "OS",
    "PARAM": "Overall Survival",
    "AVAL": 41.1,
    "CNSR": 1,
    "EVNTDESC": "CENSORED",
    "STARTDT": "2020-05-02",
    "ADT": "2023-10-05",
    "ADY": 1252,
    "AGE": 51,
    "AGEGR1": "<65",
    "SEX": false,
    "MMRSTAT": "dMMR",
    "ECOGBL": 0,
    "SAFFL": "Y",
    "ITTFL": "Y",
    "EFFFL": "Y",
    "ANL01FL": "Y"
  },
  {
    "STUDYID": "KN868",
    "USUBJID": "KN868-0007-0017",
    "TRTP": "Placebo + Chemo",
    "TRTPN": 2,
    "PARAMCD": "OS",
    "PARAM": "Overall Survival",
    "AVAL": 15.52,
    "CNSR": 0,
    "EVNTDESC": "DEATH",
    "STARTDT": "2020-08-08",
    "ADT": "2021-11-23",
    "ADY": 473,
    "AGE": 73,
    "AGEGR1": ">=65",
    "SEX": false,
    "MMRSTAT": "dMMR",
    "ECOGBL": 0,
    "SAFFL": "Y",
    "ITTFL": "Y",
    "EFFFL": "Y",
    "ANL01FL": "Y"
  },
  {
    "STUDYID": "KN868",
    "USUBJID": "KN868-0007-0017",
    "TRTP": "Placebo + Chemo",
    "TRTPN": 2,
    "PARAMCD": "PFS",
    "PARAM": "Progression-Free Survival",
    "AVAL": 1.86,
    "CNSR": 1,
    "EVNTDESC": "CENSORED",
    "STARTDT": "2020-08-08",
    "ADT": "2020-10-04",
    "ADY": 58,
    "AGE": 73,
    "AGEGR1": ">=65",
    "SEX": false,
    "MMRSTAT": "dMMR",
    "ECOGBL": 0,
    "SAFFL": "Y",
    "ITTFL": "Y",
    "EFFFL": "Y",
    "ANL01FL": "Y"
  },
  {
    "STUDYID": "KN868",
    "USUBJID": "KN868-0007-0018",
    "TRTP": "Placebo + Chemo",
    "TRTPN": 2,
    "PARAMCD": "PFS",
    "PARAM": "Progression-Free Survival",
    "AVAL": 40.24,
    "CNSR": 1,
    "EVNTDESC": "CENSORED",
    "STARTDT": "2020-05-26",
    "ADT": "2023-10-03",
    "ADY": 1226,
    "AGE": 84,
    "AGEGR1": ">=65",
    "SEX": false,
    "MMRSTAT": "pMMR",
    "ECOGBL": 0,
    "SAFFL": "Y",
    "ITTFL": "Y",
    "EFFFL": "Y",
    "ANL01FL": "Y"
  },
  {
    "STUDYID": "KN868",
    "USUBJID": "KN868-0007-0018",
    "TRTP": "Placebo + Chemo",
    "TRTPN": 2,
    "PARAMCD": "OS",
    "PARAM": "Overall Survival",
    "AVAL": 40.24,
    "CNSR": 1,
    "EVNTDESC": "CENSORED",
    "STARTDT": "2020-05-26",
    "ADT": "2023-10-03",
    "ADY": 1226,
    "AGE": 84,
    "AGEGR1": ">=65",
    "SEX": false,
    "MMRSTAT": "pMMR",
    "ECOGBL": 0,
    "SAFFL": "Y",
    "ITTFL": "Y",
    "EFFFL": "Y",
    "ANL01FL": "Y"
  },
  {
    "STUDYID": "KN868",
    "USUBJID": "KN868-0007-0019",
    "TRTP": "Placebo + Chemo",
    "TRTPN": 2,
    "PARAMCD": "PFS",
    "PARAM": "Progression-Free Survival",
    "AVAL": 4.02,
    "CNSR": 0,
    "EVNTDESC": "DISEASE PROGRESSION",
    "STARTDT": "2020-07-14",
    "ADT": "2020-11-13",
    "ADY": 123,
    "AGE": 69,
    "AGEGR1": ">=65",
    "SEX": false,
    "MMRSTAT": "pMMR",
    "ECOGBL": 0,
    "SAFFL": "Y",
    "ITTFL": "Y",
    "EFFFL": "Y",
    "ANL01FL": "Y"
  },
  {
    "STUDYID": "KN868",
    "USUBJID": "KN868-0007-0019",
    "TRTP": "Placebo + Chemo",
    "TRTPN": 2,
    "PARAMCD": "OS",
    "PARAM": "Overall Survival",
    "AVAL": 25.34,
    "CNSR": 0,
    "EVNTDESC": "DEATH",
    "STARTDT": "2020-07-14",
    "ADT": "2022-08-24",
    "ADY": 772,
    "AGE": 69,
    "AGEGR1": ">=65",
    "SEX": false,
    "MMRSTAT": "pMMR",
    "ECOGBL": 0,
    "SAFFL": "Y",
    "ITTFL": "Y",
    "EFFFL": "Y",
    "ANL01FL": "Y"
  },
  {
    "STUDYID": "KN868",
    "USUBJID": "KN868-0007-0020",
    "TRTP": "Placebo + Chemo",
    "TRTPN": 2,
    "PARAMCD": "PFS",
    "PARAM": "Progression-Free Survival",
    "AVAL": 7.4,
    "CNSR": 0,
    "EVNTDESC": "DISEASE PROGRESSION",
    "STARTDT": "2021-06-24",
    "ADT": "2022-02-04",
    "ADY": 226,
    "AGE": 55,
    "AGEGR1": "<65",
    "SEX": false,
    "MMRSTAT": "pMMR",
    "ECOGBL": 0,
    "SAFFL": "Y",
    "ITTFL": "Y",
    "EFFFL": "Y",
    "ANL01FL": "Y"
  },
  {
    "STUDYID": "KN868",
    "USUBJID": "KN868-0007-0020",
    "TRTP": "Placebo + Chemo",
    "TRTPN": 2,
    "PARAMCD": "OS",
    "PARAM": "Overall Survival",
    "AVAL": 14.91,
    "CNSR": 0,
    "EVNTDESC": "DEATH",
    "STARTDT": "2021-06-24",
    "ADT": "2022-09-21",
    "ADY": 455,
    "AGE": 55,
    "AGEGR1": "<65",
    "SEX": false,
    "MMRSTAT": "pMMR",
    "ECOGBL": 0,
    "SAFFL": "Y",
    "ITTFL": "Y",
    "EFFFL": "Y",
    "ANL01FL": "Y"
  },
  {
    "STUDYID": "KN868",
    "USUBJID": "KN868-0007-0021",
    "TRTP": "Placebo + Chemo",
    "TRTPN": 2,
    "PARAMCD": "OS",
    "PARAM": "Overall Survival",
    "AVAL": 27.33,
    "CNSR": 0,
    "EVNTDESC": "DEATH",
    "STARTDT": "2020-06-13",
    "ADT": "2022-09-23",
    "ADY": 833,
    "AGE": 62,
    "AGEGR1": "<65",
    "SEX": false,
    "MMRSTAT": "dMMR",
    "ECOGBL": 1,
    "SAFFL": "Y",
    "ITTFL": "Y",
    "EFFFL": "Y",
    "ANL01FL": "Y"
  },
  {
    "STUDYID": "KN868",
    "USUBJID": "KN868-0007-0021",
    "TRTP": "Placebo + Chemo",
    "TRTPN": 2,
    "PARAMCD": "PFS",
    "PARAM": "Progression-Free Survival",
    "AVAL": 0.61,
    "CNSR": 0,
    "EVNTDESC": "DISEASE PROGRESSION",
    "STARTDT": "2020-06-13",
    "ADT": "2020-07-02",
    "ADY": 20,
    "AGE": 62,
    "AGEGR1": "<65",
    "SEX": false,
    "MMRSTAT": "dMMR",
    "ECOGBL": 1,
    "SAFFL": "Y",
    "ITTFL": "Y",
    "EFFFL": "Y",
    "ANL01FL": "Y"
  },
  {
    "STUDYID": "KN868",
    "USUBJID": "KN868-0007-0022",
    "TRTP": "Placebo + Chemo",
    "TRTPN": 2,
    "PARAMCD": "PFS",
    "PARAM": "Progression-Free Survival",
    "AVAL": 3.67,
    "CNSR": 0,
    "EVNTDESC": "DISEASE PROGRESSION",
    "STARTDT": "2021-12-13",
    "ADT": "2022-04-04",
    "ADY": 113,
    "AGE": 56,
    "AGEGR1": "<65",
    "SEX": false,
    "MMRSTAT": "pMMR",
    "ECOGBL": 0,
    "SAFFL": "Y",
    "ITTFL": "Y",
    "EFFFL": "Y",
    "ANL01FL": "Y"
  },
  {
    "STUDYID": "KN868",
    "USUBJID": "KN868-0007-0022",
    "TRTP": "Placebo + Chemo",
    "TRTPN": 2,
    "PARAMCD": "OS",
    "PARAM": "Overall Survival",
    "AVAL": 4.85,
    "CNSR": 0,
    "EVNTDESC": "DEATH",
    "STARTDT": "2021-12-13",
    "ADT": "2022-05-10",
    "ADY": 149,
    "AGE": 56,
    "AGEGR1": "<65",
    "SEX": false,
    "MMRSTAT": "pMMR",
    "ECOGBL": 0,
    "SAFFL": "Y",
    "ITTFL": "Y",
    "EFFFL": "Y",
    "ANL01FL": "Y"
  },
  {
    "STUDYID": "KN868",
    "USUBJID": "KN868-0007-0023",
    "TRTP": "Pembrolizumab + Chemo",
    "TRTPN": 1,
    "PARAMCD": "PFS",
    "PARAM": "Progression-Free Survival",
    "AVAL": 11.47,
    "CNSR": 0,
    "EVNTDESC": "DISEASE PROGRESSION",
    "STARTDT": "2021-06-05",
    "ADT": "2022-05-20",
    "ADY": 350,
    "AGE": 53,
    "AGEGR1": "<65",
    "SEX": false,
    "MMRSTAT": "pMMR",
    "ECOGBL": 1,
    "SAFFL": "Y",
    "ITTFL": "Y",
    "EFFFL": "Y",
    "ANL01FL": "Y"
  },
  {
    "STUDYID": "KN868",
    "USUBJID": "KN868-0007-0023",
    "TRTP": "Pembrolizumab + Chemo",
    "TRTPN": 1,
    "PARAMCD": "OS",
    "PARAM": "Overall Survival",
    "AVAL": 27.95,
    "CNSR": 0,
    "EVNTDESC": "DEATH",
    "STARTDT": "2021-06-05",
    "ADT": "2023-10-04",
    "ADY": 852,
    "AGE": 53,
    "AGEGR1": "<65",
    "SEX": false,
    "MMRSTAT": "pMMR",
    "ECOGBL": 1,
    "SAFFL": "Y",
    "ITTFL": "Y",
    "EFFFL": "Y",
    "ANL01FL": "Y"
  },
  {
    "STUDYID": "KN868",
    "USUBJID": "KN868-0007-0024",
    "TRTP": "Pembrolizumab + Chemo",
    "TRTPN": 1,
    "PARAMCD": "PFS",
    "PARAM": "Progression-Free Survival",
    "AVAL": 0.39,
    "CNSR": 0,
    "EVNTDESC": "DISEASE PROGRESSION",
    "STARTDT": "2021-08-29",
    "ADT": "2021-09-10",
    "ADY": 13,
    "AGE": 62,
    "AGEGR1": "<65",
    "SEX": false,
    "MMRSTAT": "pMMR",
    "ECOGBL": 1,
    "SAFFL": "Y",
    "ITTFL": "Y",
    "EFFFL": "Y",
    "ANL01FL": "Y"
  },
  {
    "STUDYID": "KN868",
    "USUBJID": "KN868-0007-0024",
    "TRTP": "Pembrolizumab + Chemo",
    "TRTPN": 1,
    "PARAMCD": "OS",
    "PARAM": "Overall Survival",
    "AVAL": 25.26,
    "CNSR": 1,
    "EVNTDESC": "CENSORED",
    "STARTDT": "2021-08-29",
    "ADT": "2023-10-07",
    "ADY": 770,
    "AGE": 62,
    "AGEGR1": "<65",
    "SEX": false,
    "MMRSTAT": "pMMR",
    "ECOGBL": 1,
    "SAFFL": "Y",
    "ITTFL": "Y",
    "EFFFL": "Y",
    "ANL01FL": "Y"
  },
  {
    "STUDYID": "KN868",
    "USUBJID": "KN868-0007-0025",
    "TRTP": "Placebo + Chemo",
    "TRTPN": 2,
    "PARAMCD": "OS",
    "PARAM": "Overall Survival",
    "AVAL": 35.81,
    "CNSR": 1,
    "EVNTDESC": "CENSORED",
    "STARTDT": "2020-10-09",
    "ADT": "2023-10-04",
    "ADY": 1091,
    "AGE": 72,
    "AGEGR1": ">=65",
    "SEX": false,
    "MMRSTAT": "pMMR",
    "ECOGBL": 1,
    "SAFFL": "Y",
    "ITTFL": "Y",
    "EFFFL": "Y",
    "ANL01FL": "Y"
  },
  {
    "STUDYID": "KN868",
    "USUBJID": "KN868-0007-0025",
    "TRTP": "Placebo + Chemo",
    "TRTPN": 2,
    "PARAMCD": "PFS",
    "PARAM": "Progression-Free Survival",
    "AVAL": 10.85,
    "CNSR": 0,
    "EVNTDESC": "DISEASE PROGRESSION",
    "STARTDT": "2020-10-09",
    "ADT": "2021-09-04",
    "ADY": 331,
    "AGE": 72,
    "AGEGR1": ">=65",
    "SEX": false,
    "MMRSTAT": "pMMR",
    "ECOGBL": 1,
    "SAFFL": "Y",
    "ITTFL": "Y",
    "EFFFL": "Y",
    "ANL01FL": "Y"
  },
  {
    "STUDYID": "KN868",
    "USUBJID": "KN868-0007-0026",
    "TRTP": "Placebo + Chemo",
    "TRTPN": 2,
    "PARAMCD": "OS",
    "PARAM": "Overall Survival",
    "AVAL": 33.51,
    "CNSR": 1,
    "EVNTDESC": "CENSORED",
    "STARTDT": "2020-12-15",
    "ADT": "2023-10-01",
    "ADY": 1021,
    "AGE": 69,
    "AGEGR1": ">=65",
    "SEX": false,
    "MMRSTAT": "dMMR",
    "ECOGBL": 1,
    "SAFFL": "Y",
    "ITTFL": "Y",
    "EFFFL": "Y",
    "ANL01FL": "Y"
  },
  {
    "STUDYID": "KN868",
    "USUBJID": "KN868-0007-0026",
    "TRTP": "Placebo + Chemo",
    "TRTPN": 2,
    "PARAMCD": "PFS",
    "PARAM": "Progression-Free Survival",
    "AVAL": 21.04,
    "CNSR": 0,
    "EVNTDESC": "DISEASE PROGRESSION",
    "STARTDT": "2020-12-15",
    "ADT": "2022-09-16",
    "ADY": 641,
    "AGE": 69,
    "AGEGR1": ">=65",
    "SEX": false,
    "MMRSTAT": "dMMR",
    "ECOGBL": 1,
    "SAFFL": "Y",
    "ITTFL": "Y",
    "EFFFL": "Y",
    "ANL01FL": "Y"
  },
  {
    "STUDYID": "KN868",
    "USUBJID": "KN868-0007-0027",
    "TRTP": "Placebo + Chemo",
    "TRTPN": 2,
    "PARAMCD": "PFS",
    "PARAM": "Progression-Free Survival",
    "AVAL": 20.77,
    "CNSR": 0,
    "EVNTDESC": "DISEASE PROGRESSION",
    "STARTDT": "2021-11-12",
    "ADT": "2023-08-06",
    "ADY": 633,
    "AGE": 79,
    "AGEGR1": ">=65",
    "SEX": false,
    "MMRSTAT": "dMMR",
    "ECOGBL": 0,
    "SAFFL": "Y",
    "ITTFL": "Y",
    "EFFFL": "Y",
    "ANL01FL": "Y"
  },
  {
    "STUDYID": "KN868",
    "USUBJID": "KN868-0007-0027",
    "TRTP": "Placebo + Chemo",
    "TRTPN": 2,
    "PARAMCD": "OS",
    "PARAM": "Overall Survival",
    "AVAL": 22.7,
    "CNSR": 1,
    "EVNTDESC": "CENSORED",
    "STARTDT": "2021-11-12",
    "ADT": "2023-10-04",
    "ADY": 692,
    "AGE": 79,
    "AGEGR1": ">=65",
    "SEX": false,
    "MMRSTAT": "dMMR",
    "ECOGBL": 0,
    "SAFFL": "Y",
    "ITTFL": "Y",
    "EFFFL": "Y",
    "ANL01FL": "Y"
  },
  {
    "STUDYID": "KN868",
    "USUBJID": "KN868-0007-0028",
    "TRTP": "Pembrolizumab + Chemo",
    "TRTPN": 1,
    "PARAMCD": "PFS",
    "PARAM": "Progression-Free Survival",
    "AVAL": 40.47,
    "CNSR": 1,
    "EVNTDESC": "CENSORED",
    "STARTDT": "2020-05-23",
    "ADT": "2023-10-07",
    "ADY": 1233,
    "AGE": 57,
    "AGEGR1": "<65",
    "SEX": false,
    "MMRSTAT": "dMMR",
    "ECOGBL": 0,
    "SAFFL": "Y",
    "ITTFL": "Y",
    "EFFFL": "Y",
    "ANL01FL": "Y"
  },
  {
    "STUDYID": "KN868",
    "USUBJID": "KN868-0007-0028",
    "TRTP": "Pembrolizumab + Chemo",
    "TRTPN": 1,
    "PARAMCD": "OS",
    "PARAM": "Overall Survival",
    "AVAL": 40.47,
    "CNSR": 1,
    "EVNTDESC": "CENSORED",
    "STARTDT": "2020-05-23",
    "ADT": "2023-10-07",
    "ADY": 1233,
    "AGE": 57,
    "AGEGR1": "<65",
    "SEX": false,
    "MMRSTAT": "dMMR",
    "ECOGBL": 0,
    "SAFFL": "Y",
    "ITTFL": "Y",
    "EFFFL": "Y",
    "ANL01FL": "Y"
  },
  {
    "STUDYID": "KN868",
    "USUBJID": "KN868-0007-0029",
    "TRTP": "Pembrolizumab + Chemo",
    "TRTPN": 1,
    "PARAMCD": "PFS",
    "PARAM": "Progression-Free Survival",
    "AVAL": 38.55,
    "CNSR": 0,
    "EVNTDESC": "DEATH",
    "STARTDT": "2020-03-06",
    "ADT": "2023-05-23",
    "ADY": 1174,
    "AGE": 71,
    "AGEGR1": ">=65",
    "SEX": false,
    "MMRSTAT": "dMMR",
    "ECOGBL": 1,
    "SAFFL": "Y",
    "ITTFL": "Y",
    "EFFFL": "Y",
    "ANL01FL": "Y"
  },
  {
    "STUDYID": "KN868",
    "USUBJID": "KN868-0007-0029",
    "TRTP": "Pembrolizumab + Chemo",
    "TRTPN": 1,
    "PARAMCD": "OS",
    "PARAM": "Overall Survival",
    "AVAL": 42.97,
    "CNSR": 1,
    "EVNTDESC": "CENSORED",
    "STARTDT": "2020-03-06",
    "ADT": "2023-10-05",
    "ADY": 1309,
    "AGE": 71,
    "AGEGR1": ">=65",
    "SEX": false,
    "MMRSTAT": "dMMR",
    "ECOGBL": 1,
    "SAFFL": "Y",
    "ITTFL": "Y",
    "EFFFL": "Y",
    "ANL01FL": "Y"
  },
  {
    "STUDYID": "KN868",
    "USUBJID": "KN868-0007-0030",
    "TRTP": "Placebo + Chemo",
    "TRTPN": 2,
    "PARAMCD": "OS",
    "PARAM": "Overall Survival",
    "AVAL": 27.78,
    "CNSR": 0,
    "EVNTDESC": "DEATH",
    "STARTDT": "2020-09-12",
    "ADT": "2023-01-06",
    "ADY": 847,
    "AGE": 58,
    "AGEGR1": "<65",
    "SEX": false,
    "MMRSTAT": "pMMR",
    "ECOGBL": 1,
    "SAFFL": "Y",
    "ITTFL": "Y",
    "EFFFL": "Y",
    "ANL01FL": "Y"
  },
  {
    "STUDYID": "KN868",
    "USUBJID": "KN868-0007-0030",
    "TRTP": "Placebo + Chemo",
    "TRTPN": 2,
    "PARAMCD": "PFS",
    "PARAM": "Progression-Free Survival",
    "AVAL": 23.25,
    "CNSR": 0,
    "EVNTDESC": "DISEASE PROGRESSION",
    "STARTDT": "2020-09-12",
    "ADT": "2022-08-21",
    "ADY": 709,
    "AGE": 58,
    "AGEGR1": "<65",
    "SEX": false,
    "MMRSTAT": "pMMR",
    "ECOGBL": 1,
    "SAFFL": "Y",
    "ITTFL": "Y",
    "EFFFL": "Y",
    "ANL01FL": "Y"
  },
  {
    "STUDYID": "KN868",
    "USUBJID": "KN868-0007-0031",
    "TRTP": "Placebo + Chemo",
    "TRTPN": 2,
    "PARAMCD": "PFS",
    "PARAM": "Progression-Free Survival",
    "AVAL": 15.99,
    "CNSR": 0,
    "EVNTDESC": "DISEASE PROGRESSION",
    "STARTDT": "2020-08-17",
    "ADT": "2021-12-17",
    "ADY": 488,
    "AGE": 84,
    "AGEGR1": ">=65",
    "SEX": false,
    "MMRSTAT": "pMMR",
    "ECOGBL": 1,
    "SAFFL": "Y",
    "ITTFL": "Y",
    "EFFFL": "Y",
    "ANL01FL": "Y"
  },
  {
    "STUDYID": "KN868",
    "USUBJID": "KN868-0007-0031",
    "TRTP": "Placebo + Chemo",
    "TRTPN": 2,
    "PARAMCD": "OS",
    "PARAM": "Overall Survival",
    "AVAL": 21.2,
    "CNSR": 0,
    "EVNTDESC": "DEATH",
    "STARTDT": "2020-08-17",
    "ADT": "2022-05-24",
    "ADY": 646,
    "AGE": 84,
    "AGEGR1": ">=65",
    "SEX": false,
    "MMRSTAT": "pMMR",
    "ECOGBL": 1,
    "SAFFL": "Y",
    "ITTFL": "Y",
    "EFFFL": "Y",
    "ANL01FL": "Y"
  },
  {
    "STUDYID": "KN868",
    "USUBJID": "KN868-0007-0032",
    "TRTP": "Pembrolizumab + Chemo",
    "TRTPN": 1,
    "PARAMCD": "PFS",
    "PARAM": "Progression-Free Survival",
    "AVAL": 23.49,
    "CNSR": 1,
    "EVNTDESC": "CENSORED",
    "STARTDT": "2021-10-16",
    "ADT": "2023-10-01",
    "ADY": 716,
    "AGE": 53,
    "AGEGR1": "<65",
    "SEX": false,
    "MMRSTAT": "dMMR",
    "ECOGBL": 0,
    "SAFFL": "Y",
    "ITTFL": "Y",
    "EFFFL": "Y",
    "ANL01FL": "Y"
  },
  {
    "STUDYID": "KN868",
    "USUBJID": "KN868-0007-0032",
    "TRTP": "Pembrolizumab + Chemo",
    "TRTPN": 1,
    "PARAMCD": "OS",
    "PARAM": "Overall Survival",
    "AVAL": 23.49,
    "CNSR": 1,
    "EVNTDESC": "CENSORED",
    "STARTDT": "2021-10-16",
    "ADT": "2023-10-01",
    "ADY": 716,
    "AGE": 53,
    "AGEGR1": "<65",
    "SEX": false,
    "MMRSTAT": "dMMR",
    "ECOGBL": 0,
    "SAFFL": "Y",
    "ITTFL": "Y",
    "EFFFL": "Y",
    "ANL01FL": "Y"
  },
  {
    "STUDYID": "KN868",
    "USUBJID": "KN868-0007-0033",
    "TRTP": "Placebo + Chemo",
    "TRTPN": 2,
    "PARAMCD": "PFS",
    "PARAM": "Progression-Free Survival",
    "AVAL": 1.86,
    "CNSR": 0,
    "EVNTDESC": "DISEASE PROGRESSION",
    "STARTDT": "2021-05-27",
    "ADT": "2021-07-23",
    "ADY": 58,
    "AGE": 66,
    "AGEGR1": ">=65",
    "SEX": false,
    "MMRSTAT": "dMMR",
    "ECOGBL": 0,
    "SAFFL": "Y",
    "ITTFL": "Y",
    "EFFFL": "Y",
    "ANL01FL": "Y"
  },
  {
    "STUDYID": "KN868",
    "USUBJID": "KN868-0007-0033",
    "TRTP": "Placebo + Chemo",
    "TRTPN": 2,
    "PARAMCD": "OS",
    "PARAM": "Overall Survival",
    "AVAL": 8.44,
    "CNSR": 0,
    "EVNTDESC": "DEATH",
    "STARTDT": "2021-05-27",
    "ADT": "2022-02-08",
    "ADY": 258,
    "AGE": 66,
    "AGEGR1": ">=65",
    "SEX": false,
    "MMRSTAT": "dMMR",
    "ECOGBL": 0,
    "SAFFL": "Y",
    "ITTFL": "Y",
    "EFFFL": "Y",
    "ANL01FL": "Y"
  },
  {
    "STUDYID": "KN868",
    "USUBJID": "KN868-0008-0001",
    "TRTP": "Pembrolizumab + Chemo",
    "TRTPN": 1,
    "PARAMCD": "OS",
    "PARAM": "Overall Survival",
    "AVAL": 12.76,
    "CNSR": 0,
    "EVNTDESC": "DEATH",
    "STARTDT": "2020-08-25",
    "ADT": "2021-09-17",
    "ADY": 389,
    "AGE": 48,
    "AGEGR1": "<65",
    "SEX": false,
    "MMRSTAT": "pMMR",
    "ECOGBL": 0,
    "SAFFL": "Y",
    "ITTFL": "Y",
    "EFFFL": "Y",
    "ANL01FL": "Y"
  },
  {
    "STUDYID": "KN868",
    "USUBJID": "KN868-0008-0001",
    "TRTP": "Pembrolizumab + Chemo",
    "TRTPN": 1,
    "PARAMCD": "PFS",
    "PARAM": "Progression-Free Survival",
    "AVAL": 7.49,
    "CNSR": 0,
    "EVNTDESC": "DISEASE PROGRESSION",
    "STARTDT": "2020-08-25",
    "ADT": "2021-04-10",
    "ADY": 229,
    "AGE": 48,
    "AGEGR1": "<65",
    "SEX": false,
    "MMRSTAT": "pMMR",
    "ECOGBL": 0,
    "SAFFL": "Y",
    "ITTFL": "Y",
    "EFFFL": "Y",
    "ANL01FL": "Y"
  },
  {
    "STUDYID": "KN868",
    "USUBJID": "KN868-0008-0002",
    "TRTP": "Placebo + Chemo",
    "TRTPN": 2,
    "PARAMCD": "PFS",
    "PARAM": "Progression-Free Survival",
    "AVAL": 0.73,
    "CNSR": 0,
    "EVNTDESC": "DISEASE PROGRESSION",
    "STARTDT": "2022-01-13",
    "ADT": "2022-02-04",
    "ADY": 23,
    "AGE": 57,
    "AGEGR1": "<65",
    "SEX": false,
    "MMRSTAT": "dMMR",
    "ECOGBL": 0,
    "SAFFL": "Y",
    "ITTFL": "Y",
    "EFFFL": "Y",
    "ANL01FL": "Y"
  },
  {
    "STUDYID": "KN868",
    "USUBJID": "KN868-0008-0002",
    "TRTP": "Placebo + Chemo",
    "TRTPN": 2,
    "PARAMCD": "OS",
    "PARAM": "Overall Survival",
    "AVAL": 20.6,
    "CNSR": 1,
    "EVNTDESC": "CENSORED",
    "STARTDT": "2022-01-13",
    "ADT": "2023-10-02",
    "ADY": 628,
    "AGE": 57,
    "AGEGR1": "<65",
    "SEX": false,
    "MMRSTAT": "dMMR",
    "ECOGBL": 0,
    "SAFFL": "Y",
    "ITTFL": "Y",
    "EFFFL": "Y",
    "ANL01FL": "Y"
  },
  {
    "STUDYID": "KN868",
    "USUBJID": "KN868-0008-0003",
    "TRTP": "Pembrolizumab + Chemo",
    "TRTPN": 1,
    "PARAMCD": "PFS",
    "PARAM": "Progression-Free Survival",
    "AVAL": 27.22,
    "CNSR": 0,
    "EVNTDESC": "DISEASE PROGRESSION",
    "STARTDT": "2021-03-01",
    "ADT": "2023-06-08",
    "ADY": 830,
    "AGE": 69,
    "AGEGR1": ">=65",
    "SEX": false,
    "MMRSTAT": "dMMR",
    "ECOGBL": 1,
    "SAFFL": "Y",
    "ITTFL": "Y",
    "EFFFL": "Y",
    "ANL01FL": "Y"
  },
  {
    "STUDYID": "KN868",
    "USUBJID": "KN868-0008-0003",
    "TRTP": "Pembrolizumab + Chemo",
    "TRTPN": 1,
    "PARAMCD": "OS",
    "PARAM": "Overall Survival",
    "AVAL": 31.18,
    "CNSR": 1,
    "EVNTDESC": "CENSORED",
    "STARTDT": "2021-03-01",
    "ADT": "2023-10-06",
    "ADY": 950,
    "AGE": 69,
    "AGEGR1": ">=65",
    "SEX": false,
    "MMRSTAT": "dMMR",
    "ECOGBL": 1,
    "SAFFL": "Y",
    "ITTFL": "Y",
    "EFFFL": "Y",
    "ANL01FL": "Y"
  },
  {
    "STUDYID": "KN868",
    "USUBJID": "KN868-0008-0004",
    "TRTP": "Placebo + Chemo",
    "TRTPN": 2,
    "PARAMCD": "PFS",
    "PARAM": "Progression-Free Survival",
    "AVAL": 2.24,
    "CNSR": 0,
    "EVNTDESC": "DISEASE PROGRESSION",
    "STARTDT": "2021-12-28",
    "ADT": "2022-03-06",
    "ADY": 69,
    "AGE": 56,
    "AGEGR1": "<65",
    "SEX": false,
    "MMRSTAT": "dMMR",
    "ECOGBL": 0,
    "SAFFL": "Y",
    "ITTFL": "Y",
    "EFFFL": "Y",
    "ANL01FL": "Y"
  },
  {
    "STUDYID": "KN868",
    "USUBJID": "KN868-0008-0004",
    "TRTP": "Placebo + Chemo",
    "TRTPN": 2,
    "PARAMCD": "OS",
    "PARAM": "Overall Survival",
    "AVAL": 21.29,
    "CNSR": 1,
    "EVNTDESC": "CENSORED",
    "STARTDT": "2021-12-28",
    "ADT": "2023-10-07",
    "ADY": 649,
    "AGE": 56,
    "AGEGR1": "<65",
    "SEX": false,
    "MMRSTAT": "dMMR",
    "ECOGBL": 0,
    "SAFFL": "Y",
    "ITTFL": "Y",
    "EFFFL": "Y",
    "ANL01FL": "Y"
  },
  {
    "STUDYID": "KN868",
    "USUBJID": "KN868-0008-0005",
    "TRTP": "Placebo + Chemo",
    "TRTPN": 2,
    "PARAMCD": "OS",
    "PARAM": "Overall Survival",
    "AVAL": 11.45,
    "CNSR": 0,
    "EVNTDESC": "DEATH",
    "STARTDT": "2020-08-22",
    "ADT": "2021-08-06",
    "ADY": 350,
    "AGE": 78,
    "AGEGR1": ">=65",
    "SEX": false,
    "MMRSTAT": "pMMR",
    "ECOGBL": 1,
    "SAFFL": "Y",
    "ITTFL": "Y",
    "EFFFL": "Y",
    "ANL01FL": "Y"
  },
  {
    "STUDYID": "KN868",
    "USUBJID": "KN868-0008-0005",
    "TRTP": "Placebo + Chemo",
    "TRTPN": 2,
    "PARAMCD": "PFS",
    "PARAM": "Progression-Free Survival",
    "AVAL": 0.7,
    "CNSR": 0,
    "EVNTDESC": "DISEASE PROGRESSION",
    "STARTDT": "2020-08-22",
    "ADT": "2020-09-12",
    "ADY": 22,
    "AGE": 78,
    "AGEGR1": ">=65",
    "SEX": false,
    "MMRSTAT": "pMMR",
    "ECOGBL": 1,
    "SAFFL": "Y",
    "ITTFL": "Y",
    "EFFFL": "Y",
    "ANL01FL": "Y"
  },
  {
    "STUDYID": "KN868",
    "USUBJID": "KN868-0008-0006",
    "TRTP": "Placebo + Chemo",
    "TRTPN": 2,
    "PARAMCD": "OS",
    "PARAM": "Overall Survival",
    "AVAL": 6.17,
    "CNSR": 0,
    "EVNTDESC": "DEATH",
    "STARTDT": "2021-12-14",
    "ADT": "2022-06-20",
    "ADY": 189,
    "AGE": 71,
    "AGEGR1": ">=65",
    "SEX": false,
    "MMRSTAT": "pMMR",
    "ECOGBL": 1,
    "SAFFL": "Y",
    "ITTFL": "Y",
    "EFFFL": "Y",
    "ANL01FL": "Y"
  },
  {
    "STUDYID": "KN868",
    "USUBJID": "KN868-0008-0006",
    "TRTP": "Placebo + Chemo",
    "TRTPN": 2,
    "PARAMCD": "PFS",
    "PARAM": "Progression-Free Survival",
    "AVAL": 4.12,
    "CNSR": 0,
    "EVNTDESC": "DEATH",
    "STARTDT": "2021-12-14",
    "ADT": "2022-04-18",
    "ADY": 126,
    "AGE": 71,
    "AGEGR1": ">=65",
    "SEX": false,
    "MMRSTAT": "pMMR",
    "ECOGBL": 1,
    "SAFFL": "Y",
    "ITTFL": "Y",
    "EFFFL": "Y",
    "ANL01FL": "Y"
  },
  {
    "STUDYID": "KN868",
    "USUBJID": "KN868-0008-0007",
    "TRTP": "Pembrolizumab + Chemo",
    "TRTPN": 1,
    "PARAMCD": "PFS",
    "PARAM": "Progression-Free Survival",
    "AVAL": 28.75,
    "CNSR": 0,
    "EVNTDESC": "DISEASE PROGRESSION",
    "STARTDT": "2021-03-19",
    "ADT": "2023-08-11",
    "ADY": 876,
    "AGE": 73,
    "AGEGR1": ">=65",
    "SEX": false,
    "MMRSTAT": "pMMR",
    "ECOGBL": 1,
    "SAFFL": "Y",
    "ITTFL": "Y",
    "EFFFL": "Y",
    "ANL01FL": "Y"
  },
  {
    "STUDYID": "KN868",
    "USUBJID": "KN868-0008-0007",
    "TRTP": "Pembrolizumab + Chemo",
    "TRTPN": 1,
    "PARAMCD": "OS",
    "PARAM": "Overall Survival",
    "AVAL": 30.55,
    "CNSR": 1,
    "EVNTDESC": "CENSORED",
    "STARTDT": "2021-03-19",
    "ADT": "2023-10-05",
    "ADY": 931,
    "AGE": 73,
    "AGEGR1": ">=65",
    "SEX": false,
    "MMRSTAT": "pMMR",
    "ECOGBL": 1,
    "SAFFL": "Y",
    "ITTFL": "Y",
    "EFFFL": "Y",
    "ANL01FL": "Y"
  },
  {
    "STUDYID": "KN868",
    "USUBJID": "KN868-0008-0008",
    "TRTP": "Pembrolizumab + Chemo",
    "TRTPN": 1,
    "PARAMCD": "PFS",
    "PARAM": "Progression-Free Survival",
    "AVAL": 25.09,
    "CNSR": 0,
    "EVNTDESC": "DEATH",
    "STARTDT": "2021-03-07",
    "ADT": "2023-04-10",
    "ADY": 765,
    "AGE": 65,
    "AGEGR1": ">=65",
    "SEX": false,
    "MMRSTAT": "dMMR",
    "ECOGBL": 0,
    "SAFFL": "Y",
    "ITTFL": "Y",
    "EFFFL": "Y",
    "ANL01FL": "Y"
  },
  {
    "STUDYID": "KN868",
    "USUBJID": "KN868-0008-0008",
    "TRTP": "Pembrolizumab + Chemo",
    "TRTPN": 1,
    "PARAMCD": "OS",
    "PARAM": "Overall Survival",
    "AVAL": 30.91,
    "CNSR": 1,
    "EVNTDESC": "CENSORED",
    "STARTDT": "2021-03-07",
    "ADT": "2023-10-04",
    "ADY": 942,
    "AGE": 65,
    "AGEGR1": ">=65",
    "SEX": false,
    "MMRSTAT": "dMMR",
    "ECOGBL": 0,
    "SAFFL": "Y",
    "ITTFL": "Y",
    "EFFFL": "Y",
    "ANL01FL": "Y"
  },
  {
    "STUDYID": "KN868",
    "USUBJID": "KN868-0008-0009",
    "TRTP": "Pembrolizumab + Chemo",
    "TRTPN": 1,
    "PARAMCD": "PFS",
    "PARAM": "Progression-Free Survival",
    "AVAL": 29.89,
    "CNSR": 1,
    "EVNTDESC": "CENSORED",
    "STARTDT": "2021-04-05",
    "ADT": "2023-10-02",
    "ADY": 911,
    "AGE": 53,
    "AGEGR1": "<65",
    "SEX": false,
    "MMRSTAT": "pMMR",
    "ECOGBL": 0,
    "SAFFL": "Y",
    "ITTFL": "Y",
    "EFFFL": "Y",
    "ANL01FL": "Y"
  },
  {
    "STUDYID": "KN868",
    "USUBJID": "KN868-0008-0009",
    "TRTP": "Pembrolizumab + Chemo",
    "TRTPN": 1,
    "PARAMCD": "OS",
    "PARAM": "Overall Survival",
    "AVAL": 29.89,
    "CNSR": 1,
    "EVNTDESC": "CENSORED",
    "STARTDT": "2021-04-05",
    "ADT": "2023-10-02",
    "ADY": 911,
    "AGE": 53,
    "AGEGR1": "<65",
    "SEX": false,
    "MMRSTAT": "pMMR",
    "ECOGBL": 0,
    "SAFFL": "Y",
    "ITTFL": "Y",
    "EFFFL": "Y",
    "ANL01FL": "Y"
  },
  {
    "STUDYID": "KN868",
    "USUBJID": "KN868-0008-0010",
    "TRTP": "Placebo + Chemo",
    "TRTPN": 2,
    "PARAMCD": "OS",
    "PARAM": "Overall Survival",
    "AVAL": 24.38,
    "CNSR": 0,
    "EVNTDESC": "DEATH",
    "STARTDT": "2020-10-15",
    "ADT": "2022-10-27",
    "ADY": 743,
    "AGE": 63,
    "AGEGR1": "<65",
    "SEX": false,
    "MMRSTAT": "pMMR",
    "ECOGBL": 1,
    "SAFFL": "Y",
    "ITTFL": "Y",
    "EFFFL": "Y",
    "ANL01FL": "Y"
  },
  {
    "STUDYID": "KN868",
    "USUBJID": "KN868-0008-0010",
    "TRTP": "Placebo + Chemo",
    "TRTPN": 2,
    "PARAMCD": "PFS",
    "PARAM": "Progression-Free Survival",
    "AVAL": 18.52,
    "CNSR": 0,
    "EVNTDESC": "DISEASE PROGRESSION",
    "STARTDT": "2020-10-15",
    "ADT": "2022-05-02",
    "ADY": 565,
    "AGE": 63,
    "AGEGR1": "<65",
    "SEX": false,
    "MMRSTAT": "pMMR",
    "ECOGBL": 1,
    "SAFFL": "Y",
    "ITTFL": "Y",
    "EFFFL": "Y",
    "ANL01FL": "Y"
  },
  {
    "STUDYID": "KN868",
    "USUBJID": "KN868-0008-0011",
    "TRTP": "Pembrolizumab + Chemo",
    "TRTPN": 1,
    "PARAMCD": "PFS",
    "PARAM": "Progression-Free Survival",
    "AVAL": 36.37,
    "CNSR": 1,
    "EVNTDESC": "CENSORED",
    "STARTDT": "2020-09-19",
    "ADT": "2023-10-01",
    "ADY": 1108,
    "AGE": 86,
    "AGEGR1": ">=65",
    "SEX": false,
    "MMRSTAT": "pMMR",
    "ECOGBL": 1,
    "SAFFL": "Y",
    "ITTFL": "Y",
    "EFFFL": "Y",
    "ANL01FL": "Y"
  },
  {
    "STUDYID": "KN868",
    "USUBJID": "KN868-0008-0011",
    "TRTP": "Pembrolizumab + Chemo",
    "TRTPN": 1,
    "PARAMCD": "OS",
    "PARAM": "Overall Survival",
    "AVAL": 36.37,
    "CNSR": 1,
    "EVNTDESC": "CENSORED",
    "STARTDT": "2020-09-19",
    "ADT": "2023-10-01",
    "ADY": 1108,
    "AGE": 86,
    "AGEGR1": ">=65",
    "SEX": false,
    "MMRSTAT": "pMMR",
    "ECOGBL": 1,
    "SAFFL": "Y",
    "ITTFL": "Y",
    "EFFFL": "Y",
    "ANL01FL": "Y"
  },
  {
    "STUDYID": "KN868",
    "USUBJID": "KN868-0008-0012",
    "TRTP": "Pembrolizumab + Chemo",
    "TRTPN": 1,
    "PARAMCD": "PFS",
    "PARAM": "Progression-Free Survival",
    "AVAL": 33.21,
    "CNSR": 1,
    "EVNTDESC": "CENSORED",
    "STARTDT": "2020-12-28",
    "ADT": "2023-10-05",
    "ADY": 1012,
    "AGE": 59,
    "AGEGR1": "<65",
    "SEX": false,
    "MMRSTAT": "pMMR",
    "ECOGBL": 1,
    "SAFFL": "Y",
    "ITTFL": "Y",
    "EFFFL": "Y",
    "ANL01FL": "Y"
  },
  {
    "STUDYID": "KN868",
    "USUBJID": "KN868-0008-0012",
    "TRTP": "Pembrolizumab + Chemo",
    "TRTPN": 1,
    "PARAMCD": "OS",
    "PARAM": "Overall Survival",
    "AVAL": 33.21,
    "CNSR": 1,
    "EVNTDESC": "CENSORED",
    "STARTDT": "2020-12-28",
    "ADT": "2023-10-05",
    "ADY": 1012,
    "AGE": 59,
    "AGEGR1": "<65",
    "SEX": false,
    "MMRSTAT": "pMMR",
    "ECOGBL": 1,
    "SAFFL": "Y",
    "ITTFL": "Y",
    "EFFFL": "Y",
    "ANL01FL": "Y"
  },
  {
    "STUDYID": "KN868",
    "USUBJID": "KN868-0008-0013",
    "TRTP": "Pembrolizumab + Chemo",
    "TRTPN": 1,
    "PARAMCD": "PFS",
    "PARAM": "Progression-Free Survival",
    "AVAL": 3.32,
    "CNSR": 0,
    "EVNTDESC": "DISEASE PROGRESSION",
    "STARTDT": "2022-02-26",
    "ADT": "2022-06-07",
    "ADY": 102,
    "AGE": 64,
    "AGEGR1": "<65",
    "SEX": false,
    "MMRSTAT": "pMMR",
    "ECOGBL": 1,
    "SAFFL": "Y",
    "ITTFL": "Y",
    "EFFFL": "Y",
    "ANL01FL": "Y"
  },
  {
    "STUDYID": "KN868",
    "USUBJID": "KN868-0008-0013",
    "TRTP": "Pembrolizumab + Chemo",
    "TRTPN": 1,
    "PARAMCD": "OS",
    "PARAM": "Overall Survival",
    "AVAL": 4.86,
    "CNSR": 0,
    "EVNTDESC": "DEATH",
    "STARTDT": "2022-02-26",
    "ADT": "2022-07-24",
    "ADY": 149,
    "AGE": 64,
    "AGEGR1": "<65",
    "SEX": false,
    "MMRSTAT": "pMMR",
    "ECOGBL": 1,
    "SAFFL": "Y",
    "ITTFL": "Y",
    "EFFFL": "Y",
    "ANL01FL": "Y"
  },
  {
    "STUDYID": "KN868",
    "USUBJID": "KN868-0008-0014",
    "TRTP": "Placebo + Chemo",
    "TRTPN": 2,
    "PARAMCD": "OS",
    "PARAM": "Overall Survival",
    "AVAL": 11.73,
    "CNSR": 0,
    "EVNTDESC": "DEATH",
    "STARTDT": "2021-10-20",
    "ADT": "2022-10-12",
    "ADY": 358,
    "AGE": 55,
    "AGEGR1": "<65",
    "SEX": false,
    "MMRSTAT": "dMMR",
    "ECOGBL": 0,
    "SAFFL": "Y",
    "ITTFL": "Y",
    "EFFFL": "Y",
    "ANL01FL": "Y"
  },
  {
    "STUDYID": "KN868",
    "USUBJID": "KN868-0008-0014",
    "TRTP": "Placebo + Chemo",
    "TRTPN": 2,
    "PARAMCD": "PFS",
    "PARAM": "Progression-Free Survival",
    "AVAL": 6.82,
    "CNSR": 0,
    "EVNTDESC": "DEATH",
    "STARTDT": "2021-10-20",
    "ADT": "2022-05-16",
    "ADY": 209,
    "AGE": 55,
    "AGEGR1": "<65",
    "SEX": false,
    "MMRSTAT": "dMMR",
    "ECOGBL": 0,
    "SAFFL": "Y",
    "ITTFL": "Y",
    "EFFFL": "Y",
    "ANL01FL": "Y"
  },
  {
    "STUDYID": "KN868",
    "USUBJID": "KN868-0008-0015",
    "TRTP": "Placebo + Chemo",
    "TRTPN": 2,
    "PARAMCD": "PFS",
    "PARAM": "Progression-Free Survival",
    "AVAL": 2.16,
    "CNSR": 0,
    "EVNTDESC": "DISEASE PROGRESSION",
    "STARTDT": "2020-06-15",
    "ADT": "2020-08-20",
    "ADY": 67,
    "AGE": 62,
    "AGEGR1": "<65",
    "SEX": false,
    "MMRSTAT": "pMMR",
    "ECOGBL": 0,
    "SAFFL": "Y",
    "ITTFL": "Y",
    "EFFFL": "Y",
    "ANL01FL": "Y"
  },
  {
    "STUDYID": "KN868",
    "USUBJID": "KN868-0008-0015",
    "TRTP": "Placebo + Chemo",
    "TRTPN": 2,
    "PARAMCD": "OS",
    "PARAM": "Overall Survival",
    "AVAL": 18.13,
    "CNSR": 0,
    "EVNTDESC": "DEATH",
    "STARTDT": "2020-06-15",
    "ADT": "2021-12-19",
    "ADY": 553,
    "AGE": 62,
    "AGEGR1": "<65",
    "SEX": false,
    "MMRSTAT": "pMMR",
    "ECOGBL": 0,
    "SAFFL": "Y",
    "ITTFL": "Y",
    "EFFFL": "Y",
    "ANL01FL": "Y"
  },
  {
    "STUDYID": "KN868",
    "USUBJID": "KN868-0008-0016",
    "TRTP": "Pembrolizumab + Chemo",
    "TRTPN": 1,
    "PARAMCD": "PFS",
    "PARAM": "Progression-Free Survival",
    "AVAL": 11.47,
    "CNSR": 0,
    "EVNTDESC": "DISEASE PROGRESSION",
    "STARTDT": "2021-02-09",
    "ADT": "2022-01-24",
    "ADY": 350,
    "AGE": 62,
    "AGEGR1": "<65",
    "SEX": false,
    "MMRSTAT": "pMMR",
    "ECOGBL": 0,
    "SAFFL": "Y",
    "ITTFL": "Y",
    "EFFFL": "Y",
    "ANL01FL": "Y"
  },
  {
    "STUDYID": "KN868",
    "USUBJID": "KN868-0008-0016",
    "TRTP": "Pembrolizumab + Chemo",
    "TRTPN": 1,
    "PARAMCD": "OS",
    "PARAM": "Overall Survival",
    "AVAL": 31.87,
    "CNSR": 1,
    "EVNTDESC": "CENSORED",
    "STARTDT": "2021-02-09",
    "ADT": "2023-10-07",
    "ADY": 971,
    "AGE": 62,
    "AGEGR1": "<65",
    "SEX": false,
    "MMRSTAT": "pMMR",
    "ECOGBL": 0,
    "SAFFL": "Y",
    "ITTFL": "Y",
    "EFFFL": "Y",
    "ANL01FL": "Y"
  },
  {
    "STUDYID": "KN868",
    "USUBJID": "KN868-0008-0017",
    "TRTP": "Pembrolizumab + Chemo",
    "TRTPN": 1,
    "PARAMCD": "PFS",
    "PARAM": "Progression-Free Survival",
    "AVAL": 10.72,
    "CNSR": 0,
    "EVNTDESC": "DISEASE PROGRESSION",
    "STARTDT": "2021-06-07",
    "ADT": "2022-04-29",
    "ADY": 327,
    "AGE": 71,
    "AGEGR1": ">=65",
    "SEX": false,
    "MMRSTAT": "pMMR",
    "ECOGBL": 0,
    "SAFFL": "Y",
    "ITTFL": "Y",
    "EFFFL": "Y",
    "ANL01FL": "Y"
  },
  {
    "STUDYID": "KN868",
    "USUBJID": "KN868-0008-0017",
    "TRTP": "Pembrolizumab + Chemo",
    "TRTPN": 1,
    "PARAMCD": "OS",
    "PARAM": "Overall Survival",
    "AVAL": 27.89,
    "CNSR": 1,
    "EVNTDESC": "CENSORED",
    "STARTDT": "2021-06-07",
    "ADT": "2023-10-04",
    "ADY": 850,
    "AGE": 71,
    "AGEGR1": ">=65",
    "SEX": false,
    "MMRSTAT": "pMMR",
    "ECOGBL": 0,
    "SAFFL": "Y",
    "ITTFL": "Y",
    "EFFFL": "Y",
    "ANL01FL": "Y"
  },
  {
    "STUDYID": "KN868",
    "USUBJID": "KN868-0008-0018",
    "TRTP": "Placebo + Chemo",
    "TRTPN": 2,
    "PARAMCD": "OS",
    "PARAM": "Overall Survival",
    "AVAL": 18.01,
    "CNSR": 0,
    "EVNTDESC": "DEATH",
    "STARTDT": "2020-04-28",
    "ADT": "2021-10-28",
    "ADY": 549,
    "AGE": 68,
    "AGEGR1": ">=65",
    "SEX": false,
    "MMRSTAT": "pMMR",
    "ECOGBL": 0,
    "SAFFL": "Y",
    "ITTFL": "Y",
    "EFFFL": "Y",
    "ANL01FL": "Y"
  },
  {
    "STUDYID": "KN868",
    "USUBJID": "KN868-0008-0018",
    "TRTP": "Placebo + Chemo",
    "TRTPN": 2,
    "PARAMCD": "PFS",
    "PARAM": "Progression-Free Survival",
    "AVAL": 10.44,
    "CNSR": 0,
    "EVNTDESC": "DISEASE PROGRESSION",
    "STARTDT": "2020-04-28",
    "ADT": "2021-03-12",
    "ADY": 319,
    "AGE": 68,
    "AGEGR1": ">=65",
    "SEX": false,
    "MMRSTAT": "pMMR",
    "ECOGBL": 0,
    "SAFFL": "Y",
    "ITTFL": "Y",
    "EFFFL": "Y",
    "ANL01FL": "Y"
  },
  {
    "STUDYID": "KN868",
    "USUBJID": "KN868-0008-0019",
    "TRTP": "Placebo + Chemo",
    "TRTPN": 2,
    "PARAMCD": "PFS",
    "PARAM": "Progression-Free Survival",
    "AVAL": 4.63,
    "CNSR": 0,
    "EVNTDESC": "DEATH",
    "STARTDT": "2021-01-30",
    "ADT": "2021-06-20",
    "ADY": 142,
    "AGE": 81,
    "AGEGR1": ">=65",
    "SEX": false,
    "MMRSTAT": "pMMR",
    "ECOGBL": 0,
    "SAFFL": "Y",
    "ITTFL": "Y",
    "EFFFL": "Y",
    "ANL01FL": "Y"
  },
  {
    "STUDYID": "KN868",
    "USUBJID": "KN868-0008-0019",
    "TRTP": "Placebo + Chemo",
    "TRTPN": 2,
    "PARAMCD": "OS",
    "PARAM": "Overall Survival",
    "AVAL": 7.06,
    "CNSR": 0,
    "EVNTDESC": "DEATH",
    "STARTDT": "2021-01-30",
    "ADT": "2021-09-02",
    "ADY": 216,
    "AGE": 81,
    "AGEGR1": ">=65",
    "SEX": false,
    "MMRSTAT": "pMMR",
    "ECOGBL": 0,
    "SAFFL": "Y",
    "ITTFL": "Y",
    "EFFFL": "Y",
    "ANL01FL": "Y"
  },
  {
    "STUDYID": "KN868",
    "USUBJID": "KN868-0008-0020",
    "TRTP": "Pembrolizumab + Chemo",
    "TRTPN": 1,
    "PARAMCD": "OS",
    "PARAM": "Overall Survival",
    "AVAL": 12.61,
    "CNSR": 0,
    "EVNTDESC": "DEATH",
    "STARTDT": "2021-05-10",
    "ADT": "2022-05-29",
    "ADY": 385,
    "AGE": 48,
    "AGEGR1": "<65",
    "SEX": false,
    "MMRSTAT": "pMMR",
    "ECOGBL": 1,
    "SAFFL": "Y",
    "ITTFL": "Y",
    "EFFFL": "Y",
    "ANL01FL": "Y"
  },
  {
    "STUDYID": "KN868",
    "USUBJID": "KN868-0008-0020",
    "TRTP": "Pembrolizumab + Chemo",
    "TRTPN": 1,
    "PARAMCD": "PFS",
    "PARAM": "Progression-Free Survival",
    "AVAL": 7.91,
    "CNSR": 0,
    "EVNTDESC": "DISEASE PROGRESSION",
    "STARTDT": "2021-05-10",
    "ADT": "2022-01-06",
    "ADY": 242,
    "AGE": 48,
    "AGEGR1": "<65",
    "SEX": false,
    "MMRSTAT": "pMMR",
    "ECOGBL": 1,
    "SAFFL": "Y",
    "ITTFL": "Y",
    "EFFFL": "Y",
    "ANL01FL": "Y"
  },
  {
    "STUDYID": "KN868",
    "USUBJID": "KN868-0008-0021",
    "TRTP": "Pembrolizumab + Chemo",
    "TRTPN": 1,
    "PARAMCD": "PFS",
    "PARAM": "Progression-Free Survival",
    "AVAL": 33.34,
    "CNSR": 1,
    "EVNTDESC": "CENSORED",
    "STARTDT": "2020-12-20",
    "ADT": "2023-10-01",
    "ADY": 1016,
    "AGE": 64,
    "AGEGR1": "<65",
    "SEX": false,
    "MMRSTAT": "pMMR",
    "ECOGBL": 1,
    "SAFFL": "Y",
    "ITTFL": "Y",
    "EFFFL": "Y",
    "ANL01FL": "Y"
  },
  {
    "STUDYID": "KN868",
    "USUBJID": "KN868-0008-0021",
    "TRTP": "Pembrolizumab + Chemo",
    "TRTPN": 1,
    "PARAMCD": "OS",
    "PARAM": "Overall Survival",
    "AVAL": 33.34,
    "CNSR": 1,
    "EVNTDESC": "CENSORED",
    "STARTDT": "2020-12-20",
    "ADT": "2023-10-01",
    "ADY": 1016,
    "AGE": 64,
    "AGEGR1": "<65",
    "SEX": false,
    "MMRSTAT": "pMMR",
    "ECOGBL": 1,
    "SAFFL": "Y",
    "ITTFL": "Y",
    "EFFFL": "Y",
    "ANL01FL": "Y"
  },
  {
    "STUDYID": "KN868",
    "USUBJID": "KN868-0008-0022",
    "TRTP": "Placebo + Chemo",
    "TRTPN": 2,
    "PARAMCD": "PFS",
    "PARAM": "Progression-Free Survival",
    "AVAL": 26.48,
    "CNSR": 0,
    "EVNTDESC": "DEATH",
    "STARTDT": "2020-05-01",
    "ADT": "2022-07-16",
    "ADY": 807,
    "AGE": 63,
    "AGEGR1": "<65",
    "SEX": false,
    "MMRSTAT": "pMMR",
    "ECOGBL": 0,
    "SAFFL": "Y",
    "ITTFL": "Y",
    "EFFFL": "Y",
    "ANL01FL": "Y"
  },
  {
    "STUDYID": "KN868",
    "USUBJID": "KN868-0008-0022",
    "TRTP": "Placebo + Chemo",
    "TRTPN": 2,
    "PARAMCD": "OS",
    "PARAM": "Overall Survival",
    "AVAL": 27.34,
    "CNSR": 0,
    "EVNTDESC": "DEATH",
    "STARTDT": "2020-05-01",
    "ADT": "2022-08-11",
    "ADY": 833,
    "AGE": 63,
    "AGEGR1": "<65",
    "SEX": false,
    "MMRSTAT": "pMMR",
    "ECOGBL": 0,
    "SAFFL": "Y",
    "ITTFL": "Y",
    "EFFFL": "Y",
    "ANL01FL": "Y"
  },
  {
    "STUDYID": "KN868",
    "USUBJID": "KN868-0008-0023",
    "TRTP": "Placebo + Chemo",
    "TRTPN": 2,
    "PARAMCD": "PFS",
    "PARAM": "Progression-Free Survival",
    "AVAL": 0.14,
    "CNSR": 0,
    "EVNTDESC": "DISEASE PROGRESSION",
    "STARTDT": "2021-03-03",
    "ADT": "2021-03-07",
    "ADY": 5,
    "AGE": 70,
    "AGEGR1": ">=65",
    "SEX": false,
    "MMRSTAT": "pMMR",
    "ECOGBL": 1,
    "SAFFL": "Y",
    "ITTFL": "Y",
    "EFFFL": "Y",
    "ANL01FL": "Y"
  },
  {
    "STUDYID": "KN868",
    "USUBJID": "KN868-0008-0023",
    "TRTP": "Placebo + Chemo",
    "TRTPN": 2,
    "PARAMCD": "OS",
    "PARAM": "Overall Survival",
    "AVAL": 4.21,
    "CNSR": 0,
    "EVNTDESC": "DEATH",
    "STARTDT": "2021-03-03",
    "ADT": "2021-07-09",
    "ADY": 129,
    "AGE": 70,
    "AGEGR1": ">=65",
    "SEX": false,
    "MMRSTAT": "pMMR",
    "ECOGBL": 1,
    "SAFFL": "Y",
    "ITTFL": "Y",
    "EFFFL": "Y",
    "ANL01FL": "Y"
  },
  {
    "STUDYID": "KN868",
    "USUBJID": "KN868-0009-0001",
    "TRTP": "Pembrolizumab + Chemo",
    "TRTPN": 1,
    "PARAMCD": "PFS",
    "PARAM": "Progression-Free Survival",
    "AVAL": 7.36,
    "CNSR": 0,
    "EVNTDESC": "DISEASE PROGRESSION",
    "STARTDT": "2020-06-27",
    "ADT": "2021-02-06",
    "ADY": 225,
    "AGE": 70,
    "AGEGR1": ">=65",
    "SEX": false,
    "MMRSTAT": "pMMR",
    "ECOGBL": 1,
    "SAFFL": "Y",
    "ITTFL": "Y",
    "EFFFL": "Y",
    "ANL01FL": "Y"
  },
  {
    "STUDYID": "KN868",
    "USUBJID": "KN868-0009-0001",
    "TRTP": "Pembrolizumab + Chemo",
    "TRTPN": 1,
    "PARAMCD": "OS",
    "PARAM": "Overall Survival",
    "AVAL": 34.1,
    "CNSR": 0,
    "EVNTDESC": "DEATH",
    "STARTDT": "2020-06-27",
    "ADT": "2023-05-01",
    "ADY": 1039,
    "AGE": 70,
    "AGEGR1": ">=65",
    "SEX": false,
    "MMRSTAT": "pMMR",
    "ECOGBL": 1,
    "SAFFL": "Y",
    "ITTFL": "Y",
    "EFFFL": "Y",
    "ANL01FL": "Y"
  },
  {
    "STUDYID": "KN868",
    "USUBJID": "KN868-0009-0002",
    "TRTP": "Placebo + Chemo",
    "TRTPN": 2,
    "PARAMCD": "PFS",
    "PARAM": "Progression-Free Survival",
    "AVAL": 7.86,
    "CNSR": 0,
    "EVNTDESC": "DEATH",
    "STARTDT": "2021-11-04",
    "ADT": "2022-07-01",
    "ADY": 240,
    "AGE": 69,
    "AGEGR1": ">=65",
    "SEX": false,
    "MMRSTAT": "pMMR",
    "ECOGBL": 0,
    "SAFFL": "Y",
    "ITTFL": "Y",
    "EFFFL": "Y",
    "ANL01FL": "Y"
  },
  {
    "STUDYID": "KN868",
    "USUBJID": "KN868-0009-0002",
    "TRTP": "Placebo + Chemo",
    "TRTPN": 2,
    "PARAMCD": "OS",
    "PARAM": "Overall Survival",
    "AVAL": 10.51,
    "CNSR": 0,
    "EVNTDESC": "DEATH",
    "STARTDT": "2021-11-04",
    "ADT": "2022-09-20",
    "ADY": 321,
    "AGE": 69,
    "AGEGR1": ">=65",
    "SEX": false,
    "MMRSTAT": "pMMR",
    "ECOGBL": 0,
    "SAFFL": "Y",
    "ITTFL": "Y",
    "EFFFL": "Y",
    "ANL01FL": "Y"
  },
  {
    "STUDYID": "KN868",
    "USUBJID": "KN868-0009-0003",
    "TRTP": "Placebo + Chemo",
    "TRTPN": 2,
    "PARAMCD": "PFS",
    "PARAM": "Progression-Free Survival",
    "AVAL": 0.95,
    "CNSR": 0,
    "EVNTDESC": "DISEASE PROGRESSION",
    "STARTDT": "2020-07-28",
    "ADT": "2020-08-26",
    "ADY": 30,
    "AGE": 62,
    "AGEGR1": "<65",
    "SEX": false,
    "MMRSTAT": "pMMR",
    "ECOGBL": 0,
    "SAFFL": "Y",
