[
  {
    "STUDYID": "CDISCPILOT01",
    "DOMAIN": "DM",
    "USUBJID": "01-701-001",
    "SUBJID": "001",
    "SITEID": "701",
    "RFSTDTC": "2013-06-18",
    "RFXSTDTC": "2013-06-18",
    "AGE": 70,
    "AGEU": "YEARS",
    "SEX": "F",
    "RACE": "WHITE",
    "ARMCD": "Xan_Lo",
    "ARM": "Xanomeline Low Dose",
    "ACTARMCD": "Xan_Lo",
    "ACTARM": "Xanomeline Low Dose",
    "COUNTRY": "USA",
    "ETHNIC": "NOT HISPANIC OR LATINO"
  },
  {
    "STUDYID": "CDISCPILOT01",
    "DOMAIN": "DM",
    "USUBJID": "01-701-002",
    "SUBJID": "002",
    "SITEID": "701",
    "RFSTDTC": "2013-03-31",
    "RFXSTDTC": "2013-03-31",
    "AGE": 68,
    "AGEU": "YEARS",
    "SEX": "F",
    "RACE": "BLACK OR AFRICAN AMERICAN",
    "ARMCD": "Xan_Lo",
    "ARM": "Xanomeline Low Dose",
    "ACTARMCD": "Xan_Lo",
    "ACTARM": "Xanomeline Low Dose",
    "COUNTRY": "USA",
    "ETHNIC": "NOT HISPANIC OR LATINO"
  },
  {
    "STUDYID": "CDISCPILOT01",
    "DOMAIN": "DM",
    "USUBJID": "01-701-003",
    "SUBJID": "003",
    "SITEID": "701",
    "RFSTDTC": "2013-01-01",
    "RFXSTDTC": "2013-01-01",
    "AGE": 82,
    "AGEU": "YEARS",
    "SEX": "F",
    "RACE": "WHITE",
    "ARMCD": "Pbo",
    "ARM": "Placebo",
    "ACTARMCD": "Pbo",
    "ACTARM": "Placebo",
    "COUNTRY": "USA",
    "ETHNIC": "NOT HISPANIC OR LATINO"
  },
  {
    "STUDYID": "CDISCPILOT01",
    "DOMAIN": "DM",
    "USUBJID": "01-701-004",
    "SUBJID": "004",
    "SITEID": "701",
    "RFSTDTC": "2013-08-24",
    "RFXSTDTC": "2013-08-24",
    "AGE": 87,
    "AGEU": "YEARS",
    "SEX": "F",
    "RACE": "HISPANIC OR LATINO",
    "ARMCD": "Xan_Hi",
    "ARM": "Xanomeline High Dose",
    "ACTARMCD": "Xan_Hi",
    "ACTARM": "Xanomeline High Dose",
    "COUNTRY": "USA",
    "ETHNIC": "NOT HISPANIC OR LATINO"
  },
  {
    "STUDYID": "CDISCPILOT01",
    "DOMAIN": "DM",
    "USUBJID": "01-701-005",
    "SUBJID": "005",
    "SITEID": "701",
    "RFSTDTC": "2013-02-07",
    "RFXSTDTC": "2013-02-07",
    "AGE": 89,
    "AGEU": "YEARS",
    "SEX": "F",
    "RACE": "WHITE",
    "ARMCD": "Pbo",
    "ARM": "Placebo",
    "ACTARMCD": "Pbo",
    "ACTARM": "Placebo",
    "COUNTRY": "USA",
    "ETHNIC": "HISPANIC OR LATINO"
  },
  {
    "STUDYID": "CDISCPILOT01",
    "DOMAIN": "DM",
    "USUBJID": "01-701-006",
    "SUBJID": "006",
    "SITEID": "701",
    "RFSTDTC": "2013-06-27",
    "RFXSTDTC": "2013-06-27",
    "AGE": 76,
    "AGEU": "YEARS",
    "SEX": "F",
    "RACE": "WHITE",
    "ARMCD": "Pbo",
    "ARM": "Placebo",
    "ACTARMCD": "Pbo",
    "ACTARM": "Placebo",
    "COUNTRY": "USA",
    "ETHNIC": "HISPANIC OR LATINO"
  },
  {
    "STUDYID": "CDISCPILOT01",
    "DOMAIN": "DM",
    "USUBJID": "01-701-007",
    "SUBJID": "007",
    "SITEID": "701",
    "RFSTDTC": "2013-07-16",
    "RFXSTDTC": "2013-07-16",
    "AGE": 65,
    "AGEU": "YEARS",
    "SEX": "F",
    "RACE": "WHITE",
    "ARMCD": "Pbo",
    "ARM": "Placebo",
    "ACTARMCD": "Pbo",
    "ACTARM": "Placebo",
    "COUNTRY": "USA",
    "ETHNIC": "NOT HISPANIC OR LATINO"
  },
  {
    "STUDYID": "CDISCPILOT01",
    "DOMAIN": "DM",
    "USUBJID": "01-701-008",
    "SUBJID": "008",
    "SITEID": "701",
    "RFSTDTC": "2013-11-24",
    "RFXSTDTC": "2013-11-24",
    "AGE": 76,
    "AGEU": "YEARS",
    "SEX": "M",
    "RACE": "BLACK OR AFRICAN AMERICAN",
    "ARMCD": "Xan_Lo",
    "ARM": "Xanomeline Low Dose",
    "ACTARMCD": "Xan_Lo",
    "ACTARM": "Xanomeline Low Dose",
    "COUNTRY": "USA",
    "ETHNIC": "NOT HISPANIC OR LATINO"
  },
  {
    "STUDYID": "CDISCPILOT01",
    "DOMAIN": "DM",
    "USUBJID": "01-701-009",
    "SUBJID": "009",
    "SITEID": "701",
    "RFSTDTC": "2013-06-08",
    "RFXSTDTC": "2013-06-08",
    "AGE": 57,
    "AGEU": "YEARS",
    "SEX": "F",
    "RACE": "WHITE",
    "ARMCD": "Xan_Lo",
    "ARM": "Xanomeline Low Dose",
    "ACTARMCD": "Xan_Lo",
    "ACTARM": "Xanomeline Low Dose",
    "COUNTRY": "USA",
    "ETHNIC": "NOT HISPANIC OR LATINO"
  },
  {
    "STUDYID": "CDISCPILOT01",
    "DOMAIN": "DM",
    "USUBJID": "01-701-010",
    "SUBJID": "010",
    "SITEID": "701",
    "RFSTDTC": "2013-12-03",
    "RFXSTDTC": "2013-12-03",
    "AGE": 59,
    "AGEU": "YEARS",
    "SEX": "M",
    "RACE": "WHITE",
    "ARMCD": "Xan_Lo",
    "ARM": "Xanomeline Low Dose",
    "ACTARMCD": "Xan_Lo",
    "ACTARM": "Xanomeline Low Dose",
    "COUNTRY": "USA",
    "ETHNIC": "NOT HISPANIC OR LATINO"
  },
  {
    "STUDYID": "CDISCPILOT01",
    "DOMAIN": "DM",
    "USUBJID": "01-701-011",
    "SUBJID": "011",
    "SITEID": "701",
    "RFSTDTC": "2013-08-01",
    "RFXSTDTC": "2013-08-01",
    "AGE": 76,
    "AGEU": "YEARS",
    "SEX": "F",
    "RACE": "WHITE",
    "ARMCD": "Xan_Hi",
    "ARM": "Xanomeline High Dose",
    "ACTARMCD": "Xan_Hi",
    "ACTARM": "Xanomeline High Dose",
    "COUNTRY": "USA",
    "ETHNIC": "NOT HISPANIC OR LATINO"
  },
  {
    "STUDYID": "CDISCPILOT01",
    "DOMAIN": "DM",
    "USUBJID": "01-701-012",
    "SUBJID": "012",
    "SITEID": "701",
    "RFSTDTC": "2013-03-09",
    "RFXSTDTC": "2013-03-09",
    "AGE": 67,
    "AGEU": "YEARS",
    "SEX": "M",
    "RACE": "WHITE",
    "ARMCD": "Pbo",
    "ARM": "Placebo",
    "ACTARMCD": "Pbo",
    "ACTARM": "Placebo",
    "COUNTRY": "USA",
    "ETHNIC": "NOT HISPANIC OR LATINO"
  },
  {
    "STUDYID": "CDISCPILOT01",
    "DOMAIN": "DM",
    "USUBJID": "01-701-013",
    "SUBJID": "013",
    "SITEID": "701",
    "RFSTDTC": "2013-10-22",
    "RFXSTDTC": "2013-10-22",
    "AGE": 79,
    "AGEU": "YEARS",
    "SEX": "F",
    "RACE": "WHITE",
    "ARMCD": "Xan_Hi",
    "ARM": "Xanomeline High Dose",
    "ACTARMCD": "Xan_Hi",
    "ACTARM": "Xanomeline High Dose",
    "COUNTRY": "USA",
    "ETHNIC": "NOT HISPANIC OR LATINO"
  },
  {
    "STUDYID": "CDISCPILOT01",
    "DOMAIN": "DM",
    "USUBJID": "01-701-014",
    "SUBJID": "014",
    "SITEID": "701",
    "RFSTDTC": "2013-12-08",
    "RFXSTDTC": "2013-12-08",
    "AGE": 79,
    "AGEU": "YEARS",
    "SEX": "F",
    "RACE": "HISPANIC OR LATINO",
    "ARMCD": "Xan_Lo",
    "ARM": "Xanomeline Low Dose",
    "ACTARMCD": "Xan_Lo",
    "ACTARM": "Xanomeline Low Dose",
    "COUNTRY": "USA",
    "ETHNIC": "NOT HISPANIC OR LATINO"
  },
  {
    "STUDYID": "CDISCPILOT01",
    "DOMAIN": "DM",
    "USUBJID": "01-701-015",
    "SUBJID": "015",
    "SITEID": "701",
    "RFSTDTC": "2013-07-01",
    "RFXSTDTC": "2013-07-01",
    "AGE": 80,
    "AGEU": "YEARS",
    "SEX": "M",
    "RACE": "WHITE",
    "ARMCD": "Pbo",
    "ARM": "Placebo",
    "ACTARMCD": "Pbo",
    "ACTARM": "Placebo",
    "COUNTRY": "USA",
    "ETHNIC": "NOT HISPANIC OR LATINO"
  },
  {
    "STUDYID": "CDISCPILOT01",
    "DOMAIN": "DM",
    "USUBJID": "01-701-016",
    "SUBJID": "016",
    "SITEID": "701",
    "RFSTDTC": "2013-09-14",
    "RFXSTDTC": "2013-09-14",
    "AGE": 63,
    "AGEU": "YEARS",
    "SEX": "F",
    "RACE": "WHITE",
    "ARMCD": "Xan_Hi",
    "ARM": "Xanomeline High Dose",
    "ACTARMCD": "Xan_Hi",
    "ACTARM": "Xanomeline High Dose",
    "COUNTRY": "USA",
    "ETHNIC": "NOT HISPANIC OR LATINO"
  },
  {
    "STUDYID": "CDISCPILOT01",
    "DOMAIN": "DM",
    "USUBJID": "01-701-017",
    "SUBJID": "017",
    "SITEID": "701",
    "RFSTDTC": "2013-05-29",
    "RFXSTDTC": "2013-05-29",
    "AGE": 71,
    "AGEU": "YEARS",
    "SEX": "F",
    "RACE": "WHITE",
    "ARMCD": "Pbo",
    "ARM": "Placebo",
    "ACTARMCD": "Pbo",
    "ACTARM": "Placebo",
    "COUNTRY": "USA",
    "ETHNIC": "NOT HISPANIC OR LATINO"
  },
  {
    "STUDYID": "CDISCPILOT01",
    "DOMAIN": "DM",
    "USUBJID": "01-701-018",
    "SUBJID": "018",
    "SITEID": "701",
    "RFSTDTC": "2013-04-14",
    "RFXSTDTC": "2013-04-14",
    "AGE": 69,
    "AGEU": "YEARS",
    "SEX": "F",
    "RACE": "WHITE",
    "ARMCD": "Pbo",
    "ARM": "Placebo",
    "ACTARMCD": "Pbo",
    "ACTARM": "Placebo",
    "COUNTRY": "USA",
    "ETHNIC": "NOT HISPANIC OR LATINO"
  },
  {
    "STUDYID": "CDISCPILOT01",
    "DOMAIN": "DM",
    "USUBJID": "01-701-019",
    "SUBJID": "019",
    "SITEID": "701",
    "RFSTDTC": "2013-04-14",
    "RFXSTDTC": "2013-04-14",
    "AGE": 84,
    "AGEU": "YEARS",
    "SEX": "F",
    "RACE": "WHITE",
    "ARMCD": "Xan_Hi",
    "ARM": "Xanomeline High Dose",
    "ACTARMCD": "Xan_Hi",
    "ACTARM": "Xanomeline High Dose",
    "COUNTRY": "USA",
    "ETHNIC": "NOT HISPANIC OR LATINO"
  },
  {
    "STUDYID": "CDISCPILOT01",
    "DOMAIN": "DM",
    "USUBJID": "01-701-020",
    "SUBJID": "020",
    "SITEID": "701",
    "RFSTDTC": "2013-04-10",
    "RFXSTDTC": "2013-04-10",
    "AGE": 73,
    "AGEU": "YEARS",
    "SEX": "F",
    "RACE": "WHITE",
    "ARMCD": "Xan_Lo",
    "ARM": "Xanomeline Low Dose",
    "ACTARMCD": "Xan_Lo",
    "ACTARM": "Xanomeline Low Dose",
    "COUNTRY": "USA",
    "ETHNIC": "NOT HISPANIC OR LATINO"
  },
  {
    "STUDYID": "CDISCPILOT01",
    "DOMAIN": "DM",
    "USUBJID": "01-701-021",
    "SUBJID": "021",
    "SITEID": "701",
    "RFSTDTC": "2013-04-13",
    "RFXSTDTC": "2013-04-13",
    "AGE": 62,
    "AGEU": "YEARS",
    "SEX": "M",
    "RACE": "WHITE",
    "ARMCD": "Pbo",
    "ARM": "Placebo",
    "ACTARMCD": "Pbo",
    "ACTARM": "Placebo",
    "COUNTRY": "USA",
    "ETHNIC": "HISPANIC OR LATINO"
  },
  {
    "STUDYID": "CDISCPILOT01",
    "DOMAIN": "DM",
    "USUBJID": "01-701-022",
    "SUBJID": "022",
    "SITEID": "701",
    "RFSTDTC": "2013-09-30",
    "RFXSTDTC": "2013-09-30",
    "AGE": 82,
    "AGEU": "YEARS",
    "SEX": "F",
    "RACE": "WHITE",
    "ARMCD": "Xan_Hi",
    "ARM": "Xanomeline High Dose",
    "ACTARMCD": "Xan_Hi",
    "ACTARM": "Xanomeline High Dose",
    "COUNTRY": "USA",
    "ETHNIC": "NOT HISPANIC OR LATINO"
  },
  {
    "STUDYID": "CDISCPILOT01",
    "DOMAIN": "DM",
    "USUBJID": "01-701-023",
    "SUBJID": "023",
    "SITEID": "701",
    "RFSTDTC": "2013-07-26",
    "RFXSTDTC": "2013-07-26",
    "AGE": 73,
    "AGEU": "YEARS",
    "SEX": "M",
    "RACE": "WHITE",
    "ARMCD": "Xan_Hi",
    "ARM": "Xanomeline High Dose",
    "ACTARMCD": "Xan_Hi",
    "ACTARM": "Xanomeline High Dose",
    "COUNTRY": "USA",
    "ETHNIC": "NOT HISPANIC OR LATINO"
  },
  {
    "STUDYID": "CDISCPILOT01",
    "DOMAIN": "DM",
    "USUBJID": "01-701-024",
    "SUBJID": "024",
    "SITEID": "701",
    "RFSTDTC": "2013-12-20",
    "RFXSTDTC": "2013-12-20",
    "AGE": 83,
    "AGEU": "YEARS",
    "SEX": "M",
    "RACE": "WHITE",
    "ARMCD": "Pbo",
    "ARM": "Placebo",
    "ACTARMCD": "Pbo",
    "ACTARM": "Placebo",
    "COUNTRY": "USA",
    "ETHNIC": "NOT HISPANIC OR LATINO"
  },
  {
    "STUDYID": "CDISCPILOT01",
    "DOMAIN": "DM",
    "USUBJID": "01-701-025",
    "SUBJID": "025",
    "SITEID": "701",
    "RFSTDTC": "2013-11-23",
    "RFXSTDTC": "2013-11-23",
    "AGE": 58,
    "AGEU": "YEARS",
    "SEX": "F",
    "RACE": "HISPANIC OR LATINO",
    "ARMCD": "Pbo",
    "ARM": "Placebo",
    "ACTARMCD": "Pbo",
    "ACTARM": "Placebo",
    "COUNTRY": "USA",
    "ETHNIC": "NOT HISPANIC OR LATINO"
  },
  {
    "STUDYID": "CDISCPILOT01",
    "DOMAIN": "DM",
    "USUBJID": "01-701-026",
    "SUBJID": "026",
    "SITEID": "701",
    "RFSTDTC": "2013-03-06",
    "RFXSTDTC": "2013-03-06",
    "AGE": 84,
    "AGEU": "YEARS",
    "SEX": "F",
    "RACE": "WHITE",
    "ARMCD": "Xan_Lo",
    "ARM": "Xanomeline Low Dose",
    "ACTARMCD": "Xan_Lo",
    "ACTARM": "Xanomeline Low Dose",
    "COUNTRY": "USA",
    "ETHNIC": "NOT HISPANIC OR LATINO"
  },
  {
    "STUDYID": "CDISCPILOT01",
    "DOMAIN": "DM",
    "USUBJID": "01-701-027",
    "SUBJID": "027",
    "SITEID": "701",
    "RFSTDTC": "2013-11-28",
    "RFXSTDTC": "2013-11-28",
    "AGE": 83,
    "AGEU": "YEARS",
    "SEX": "M",
    "RACE": "WHITE",
    "ARMCD": "Xan_Hi",
    "ARM": "Xanomeline High Dose",
    "ACTARMCD": "Xan_Hi",
    "ACTARM": "Xanomeline High Dose",
    "COUNTRY": "USA",
    "ETHNIC": "NOT HISPANIC OR LATINO"
  },
  {
    "STUDYID": "CDISCPILOT01",
    "DOMAIN": "DM",
    "USUBJID": "01-701-028",
    "SUBJID": "028",
    "SITEID": "701",
    "RFSTDTC": "2013-07-27",
    "RFXSTDTC": "2013-07-27",
    "AGE": 68,
    "AGEU": "YEARS",
    "SEX": "F",
    "RACE": "WHITE",
    "ARMCD": "Xan_Hi",
    "ARM": "Xanomeline High Dose",
    "ACTARMCD": "Xan_Hi",
    "ACTARM": "Xanomeline High Dose",
    "COUNTRY": "USA",
    "ETHNIC": "HISPANIC OR LATINO"
  },
  {
    "STUDYID": "CDISCPILOT01",
    "DOMAIN": "DM",
    "USUBJID": "01-701-029",
    "SUBJID": "029",
    "SITEID": "701",
    "RFSTDTC": "2013-10-29",
    "RFXSTDTC": "2013-10-29",
    "AGE": 74,
    "AGEU": "YEARS",
    "SEX": "F",
    "RACE": "WHITE",
    "ARMCD": "Xan_Hi",
    "ARM": "Xanomeline High Dose",
    "ACTARMCD": "Xan_Hi",
    "ACTARM": "Xanomeline High Dose",
    "COUNTRY": "USA",
    "ETHNIC": "NOT HISPANIC OR LATINO"
  },
  {
    "STUDYID": "CDISCPILOT01",
    "DOMAIN": "DM",
    "USUBJID": "01-701-030",
    "SUBJID": "030",
    "SITEID": "701",
    "RFSTDTC": "2013-06-30",
    "RFXSTDTC": "2013-06-30",
    "AGE": 72,
    "AGEU": "YEARS",
    "SEX": "F",
    "RACE": "WHITE",
    "ARMCD": "Xan_Lo",
    "ARM": "Xanomeline Low Dose",
    "ACTARMCD": "Xan_Lo",
    "ACTARM": "Xanomeline Low Dose",
    "COUNTRY": "USA",
    "ETHNIC": "NOT HISPANIC OR LATINO"
  },
  {
    "STUDYID": "CDISCPILOT01",
    "DOMAIN": "DM",
    "USUBJID": "01-701-031",
    "SUBJID": "031",
    "SITEID": "701",
    "RFSTDTC": "2013-09-16",
    "RFXSTDTC": "2013-09-16",
    "AGE": 79,
    "AGEU": "YEARS",
    "SEX": "F",
    "RACE": "HISPANIC OR LATINO",
    "ARMCD": "Xan_Hi",
    "ARM": "Xanomeline High Dose",
    "ACTARMCD": "Xan_Hi",
    "ACTARM": "Xanomeline High Dose",
    "COUNTRY": "USA",
    "ETHNIC": "NOT HISPANIC OR LATINO"
  },
  {
    "STUDYID": "CDISCPILOT01",
    "DOMAIN": "DM",
    "USUBJID": "01-701-032",
    "SUBJID": "032",
    "SITEID": "701",
    "RFSTDTC": "2013-03-15",
    "RFXSTDTC": "2013-03-15",
    "AGE": 74,
    "AGEU": "YEARS",
    "SEX": "M",
    "RACE": "WHITE",
    "ARMCD": "Xan_Hi",
    "ARM": "Xanomeline High Dose",
    "ACTARMCD": "Xan_Hi",
    "ACTARM": "Xanomeline High Dose",
    "COUNTRY": "USA",
    "ETHNIC": "NOT HISPANIC OR LATINO"
  },
  {
    "STUDYID": "CDISCPILOT01",
    "DOMAIN": "DM",
    "USUBJID": "01-701-033",
    "SUBJID": "033",
    "SITEID": "701",
    "RFSTDTC": "2013-11-06",
    "RFXSTDTC": "2013-11-06",
    "AGE": 60,
    "AGEU": "YEARS",
    "SEX": "F",
    "RACE": "WHITE",
    "ARMCD": "Xan_Lo",
    "ARM": "Xanomeline Low Dose",
    "ACTARMCD": "Xan_Lo",
    "ACTARM": "Xanomeline Low Dose",
    "COUNTRY": "USA",
    "ETHNIC": "NOT HISPANIC OR LATINO"
  },
  {
    "STUDYID": "CDISCPILOT01",
    "DOMAIN": "DM",
    "USUBJID": "01-701-034",
    "SUBJID": "034",
    "SITEID": "701",
    "RFSTDTC": "2013-08-15",
    "RFXSTDTC": "2013-08-15",
    "AGE": 83,
    "AGEU": "YEARS",
    "SEX": "F",
    "RACE": "WHITE",
    "ARMCD": "Xan_Lo",
    "ARM": "Xanomeline Low Dose",
    "ACTARMCD": "Xan_Lo",
    "ACTARM": "Xanomeline Low Dose",
    "COUNTRY": "USA",
    "ETHNIC": "NOT HISPANIC OR LATINO"
  },
  {
    "STUDYID": "CDISCPILOT01",
    "DOMAIN": "DM",
    "USUBJID": "01-701-035",
    "SUBJID": "035",
    "SITEID": "701",
    "RFSTDTC": "2013-04-25",
    "RFXSTDTC": "2013-04-25",
    "AGE": 79,
    "AGEU": "YEARS",
    "SEX": "F",
    "RACE": "WHITE",
    "ARMCD": "Xan_Hi",
    "ARM": "Xanomeline High Dose",
    "ACTARMCD": "Xan_Hi",
    "ACTARM": "Xanomeline High Dose",
    "COUNTRY": "USA",
    "ETHNIC": "NOT HISPANIC OR LATINO"
  },
  {
    "STUDYID": "CDISCPILOT01",
    "DOMAIN": "DM",
    "USUBJID": "01-701-036",
    "SUBJID": "036",
    "SITEID": "701",
    "RFSTDTC": "2013-08-16",
    "RFXSTDTC": "2013-08-16",
    "AGE": 76,
    "AGEU": "YEARS",
    "SEX": "F",
    "RACE": "WHITE",
    "ARMCD": "Xan_Lo",
    "ARM": "Xanomeline Low Dose",
    "ACTARMCD": "Xan_Lo",
    "ACTARM": "Xanomeline Low Dose",
    "COUNTRY": "USA",
    "ETHNIC": "NOT HISPANIC OR LATINO"
  },
  {
    "STUDYID": "CDISCPILOT01",
    "DOMAIN": "DM",
    "USUBJID": "01-701-037",
    "SUBJID": "037",
    "SITEID": "701",
    "RFSTDTC": "2013-01-05",
    "RFXSTDTC": "2013-01-05",
    "AGE": 70,
    "AGEU": "YEARS",
    "SEX": "M",
    "RACE": "WHITE",
    "ARMCD": "Xan_Lo",
    "ARM": "Xanomeline Low Dose",
    "ACTARMCD": "Xan_Lo",
    "ACTARM": "Xanomeline Low Dose",
    "COUNTRY": "USA",
    "ETHNIC": "NOT HISPANIC OR LATINO"
  },
  {
    "STUDYID": "CDISCPILOT01",
    "DOMAIN": "DM",
    "USUBJID": "01-701-038",
    "SUBJID": "038",
    "SITEID": "701",
    "RFSTDTC": "2013-06-14",
    "RFXSTDTC": "2013-06-14",
    "AGE": 68,
    "AGEU": "YEARS",
    "SEX": "M",
    "RACE": "WHITE",
    "ARMCD": "Xan_Hi",
    "ARM": "Xanomeline High Dose",
    "ACTARMCD": "Xan_Hi",
    "ACTARM": "Xanomeline High Dose",
    "COUNTRY": "USA",
    "ETHNIC": "NOT HISPANIC OR LATINO"
  },
  {
    "STUDYID": "CDISCPILOT01",
    "DOMAIN": "DM",
    "USUBJID": "01-701-039",
    "SUBJID": "039",
    "SITEID": "701",
    "RFSTDTC": "2013-04-27",
    "RFXSTDTC": "2013-04-27",
    "AGE": 75,
    "AGEU": "YEARS",
    "SEX": "M",
    "RACE": "WHITE",
    "ARMCD": "Xan_Hi",
    "ARM": "Xanomeline High Dose",
    "ACTARMCD": "Xan_Hi",
    "ACTARM": "Xanomeline High Dose",
    "COUNTRY": "USA",
    "ETHNIC": "NOT HISPANIC OR LATINO"
  },
  {
    "STUDYID": "CDISCPILOT01",
    "DOMAIN": "DM",
    "USUBJID": "01-701-040",
    "SUBJID": "040",
    "SITEID": "701",
    "RFSTDTC": "2013-10-03",
    "RFXSTDTC": "2013-10-03",
    "AGE": 82,
    "AGEU": "YEARS",
    "SEX": "F",
    "RACE": "WHITE",
    "ARMCD": "Xan_Lo",
    "ARM": "Xanomeline Low Dose",
    "ACTARMCD": "Xan_Lo",
    "ACTARM": "Xanomeline Low Dose",
    "COUNTRY": "USA",
    "ETHNIC": "NOT HISPANIC OR LATINO"
  },
  {
    "STUDYID": "CDISCPILOT01",
    "DOMAIN": "DM",
    "USUBJID": "01-701-041",
    "SUBJID": "041",
    "SITEID": "701",
    "RFSTDTC": "2013-11-06",
    "RFXSTDTC": "2013-11-06",
    "AGE": 64,
    "AGEU": "YEARS",
    "SEX": "M",
    "RACE": "WHITE",
    "ARMCD": "Xan_Hi",
    "ARM": "Xanomeline High Dose",
    "ACTARMCD": "Xan_Hi",
    "ACTARM": "Xanomeline High Dose",
    "COUNTRY": "USA",
    "ETHNIC": "NOT HISPANIC OR LATINO"
  },
  {
    "STUDYID": "CDISCPILOT01",
    "DOMAIN": "DM",
    "USUBJID": "01-701-042",
    "SUBJID": "042",
    "SITEID": "701",
    "RFSTDTC": "2013-09-03",
    "RFXSTDTC": "2013-09-03",
    "AGE": 72,
    "AGEU": "YEARS",
    "SEX": "M",
    "RACE": "WHITE",
    "ARMCD": "Pbo",
    "ARM": "Placebo",
    "ACTARMCD": "Pbo",
    "ACTARM": "Placebo",
    "COUNTRY": "USA",
    "ETHNIC": "NOT HISPANIC OR LATINO"
  },
  {
    "STUDYID": "CDISCPILOT01",
    "DOMAIN": "DM",
    "USUBJID": "01-701-043",
    "SUBJID": "043",
    "SITEID": "701",
    "RFSTDTC": "2013-06-15",
    "RFXSTDTC": "2013-06-15",
    "AGE": 80,
    "AGEU": "YEARS",
    "SEX": "F",
    "RACE": "WHITE",
    "ARMCD": "Xan_Hi",
    "ARM": "Xanomeline High Dose",
    "ACTARMCD": "Xan_Hi",
    "ACTARM": "Xanomeline High Dose",
    "COUNTRY": "USA",
    "ETHNIC": "NOT HISPANIC OR LATINO"
  },
  {
    "STUDYID": "CDISCPILOT01",
    "DOMAIN": "DM",
    "USUBJID": "01-703-001",
    "SUBJID": "001",
    "SITEID": "703",
    "RFSTDTC": "2013-01-12",
    "RFXSTDTC": "2013-01-12",
    "AGE": 70,
    "AGEU": "YEARS",
    "SEX": "M",
    "RACE": "WHITE",
    "ARMCD": "Pbo",
    "ARM": "Placebo",
    "ACTARMCD": "Pbo",
    "ACTARM": "Placebo",
    "COUNTRY": "USA",
    "ETHNIC": "NOT HISPANIC OR LATINO"
  },
  {
    "STUDYID": "CDISCPILOT01",
    "DOMAIN": "DM",
    "USUBJID": "01-703-002",
    "SUBJID": "002",
    "SITEID": "703",
    "RFSTDTC": "2013-02-03",
    "RFXSTDTC": "2013-02-03",
    "AGE": 72,
    "AGEU": "YEARS",
    "SEX": "F",
    "RACE": "WHITE",
    "ARMCD": "Xan_Hi",
    "ARM": "Xanomeline High Dose",
    "ACTARMCD": "Xan_Hi",
    "ACTARM": "Xanomeline High Dose",
    "COUNTRY": "USA",
    "ETHNIC": "NOT HISPANIC OR LATINO"
  },
  {
    "STUDYID": "CDISCPILOT01",
    "DOMAIN": "DM",
    "USUBJID": "01-703-003",
    "SUBJID": "003",
    "SITEID": "703",
    "RFSTDTC": "2013-08-12",
    "RFXSTDTC": "2013-08-12",
    "AGE": 78,
    "AGEU": "YEARS",
    "SEX": "F",
    "RACE": "WHITE",
    "ARMCD": "Xan_Hi",
    "ARM": "Xanomeline High Dose",
    "ACTARMCD": "Xan_Hi",
    "ACTARM": "Xanomeline High Dose",
    "COUNTRY": "USA",
    "ETHNIC": "NOT HISPANIC OR LATINO"
  },
  {
    "STUDYID": "CDISCPILOT01",
    "DOMAIN": "DM",
    "USUBJID": "01-703-004",
    "SUBJID": "004",
    "SITEID": "703",
    "RFSTDTC": "2013-07-30",
    "RFXSTDTC": "2013-07-30",
    "AGE": 75,
    "AGEU": "YEARS",
    "SEX": "F",
    "RACE": "WHITE",
    "ARMCD": "Pbo",
    "ARM": "Placebo",
    "ACTARMCD": "Pbo",
    "ACTARM": "Placebo",
    "COUNTRY": "USA",
    "ETHNIC": "NOT HISPANIC OR LATINO"
  },
  {
    "STUDYID": "CDISCPILOT01",
    "DOMAIN": "DM",
    "USUBJID": "01-703-005",
    "SUBJID": "005",
    "SITEID": "703",
    "RFSTDTC": "2013-03-05",
    "RFXSTDTC": "2013-03-05",
    "AGE": 66,
    "AGEU": "YEARS",
    "SEX": "M",
    "RACE": "WHITE",
    "ARMCD": "Xan_Lo",
    "ARM": "Xanomeline Low Dose",
    "ACTARMCD": "Xan_Lo",
    "ACTARM": "Xanomeline Low Dose",
    "COUNTRY": "USA",
    "ETHNIC": "NOT HISPANIC OR LATINO"
  },
  {
    "STUDYID": "CDISCPILOT01",
    "DOMAIN": "DM",
    "USUBJID": "01-703-006",
    "SUBJID": "006",
    "SITEID": "703",
    "RFSTDTC": "2013-07-24",
    "RFXSTDTC": "2013-07-24",
    "AGE": 85,
    "AGEU": "YEARS",
    "SEX": "F",
    "RACE": "WHITE",
    "ARMCD": "Pbo",
    "ARM": "Placebo",
    "ACTARMCD": "Pbo",
    "ACTARM": "Placebo",
    "COUNTRY": "USA",
    "ETHNIC": "NOT HISPANIC OR LATINO"
  },
  {
    "STUDYID": "CDISCPILOT01",
    "DOMAIN": "DM",
    "USUBJID": "01-703-007",
    "SUBJID": "007",
    "SITEID": "703",
    "RFSTDTC": "2013-02-21",
    "RFXSTDTC": "2013-02-21",
    "AGE": 76,
    "AGEU": "YEARS",
    "SEX": "F",
    "RACE": "WHITE",
    "ARMCD": "Pbo",
    "ARM": "Placebo",
    "ACTARMCD": "Pbo",
    "ACTARM": "Placebo",
    "COUNTRY": "USA",
    "ETHNIC": "NOT HISPANIC OR LATINO"
  },
  {
    "STUDYID": "CDISCPILOT01",
    "DOMAIN": "DM",
    "USUBJID": "01-703-008",
    "SUBJID": "008",
    "SITEID": "703",
    "RFSTDTC": "2014-01-01",
    "RFXSTDTC": "2014-01-01",
    "AGE": 54,
    "AGEU": "YEARS",
    "SEX": "F",
    "RACE": "WHITE",
    "ARMCD": "Xan_Lo",
    "ARM": "Xanomeline Low Dose",
    "ACTARMCD": "Xan_Lo",
    "ACTARM": "Xanomeline Low Dose",
    "COUNTRY": "USA",
    "ETHNIC": "NOT HISPANIC OR LATINO"
  },
  {
    "STUDYID": "CDISCPILOT01",
    "DOMAIN": "DM",
    "USUBJID": "01-703-009",
    "SUBJID": "009",
    "SITEID": "703",
    "RFSTDTC": "2013-06-04",
    "RFXSTDTC": "2013-06-04",
    "AGE": 75,
    "AGEU": "YEARS",
    "SEX": "F",
    "RACE": "WHITE",
    "ARMCD": "Xan_Hi",
    "ARM": "Xanomeline High Dose",
    "ACTARMCD": "Xan_Hi",
    "ACTARM": "Xanomeline High Dose",
    "COUNTRY": "USA",
    "ETHNIC": "NOT HISPANIC OR LATINO"
  },
  {
    "STUDYID": "CDISCPILOT01",
    "DOMAIN": "DM",
    "USUBJID": "01-703-010",
    "SUBJID": "010",
    "SITEID": "703",
    "RFSTDTC": "2013-07-02",
    "RFXSTDTC": "2013-07-02",
    "AGE": 68,
    "AGEU": "YEARS",
    "SEX": "M",
    "RACE": "WHITE",
    "ARMCD": "Pbo",
    "ARM": "Placebo",
    "ACTARMCD": "Pbo",
    "ACTARM": "Placebo",
    "COUNTRY": "USA",
    "ETHNIC": "NOT HISPANIC OR LATINO"
  },
  {
    "STUDYID": "CDISCPILOT01",
    "DOMAIN": "DM",
    "USUBJID": "01-703-011",
    "SUBJID": "011",
    "SITEID": "703",
    "RFSTDTC": "2013-12-22",
    "RFXSTDTC": "2013-12-22",
    "AGE": 89,
    "AGEU": "YEARS",
    "SEX": "M",
    "RACE": "WHITE",
    "ARMCD": "Xan_Hi",
    "ARM": "Xanomeline High Dose",
    "ACTARMCD": "Xan_Hi",
    "ACTARM": "Xanomeline High Dose",
    "COUNTRY": "USA",
    "ETHNIC": "NOT HISPANIC OR LATINO"
  },
  {
    "STUDYID": "CDISCPILOT01",
    "DOMAIN": "DM",
    "USUBJID": "01-703-012",
    "SUBJID": "012",
    "SITEID": "703",
    "RFSTDTC": "2013-02-06",
    "RFXSTDTC": "2013-02-06",
    "AGE": 70,
    "AGEU": "YEARS",
    "SEX": "F",
    "RACE": "WHITE",
    "ARMCD": "Xan_Hi",
    "ARM": "Xanomeline High Dose",
    "ACTARMCD": "Xan_Hi",
    "ACTARM": "Xanomeline High Dose",
    "COUNTRY": "USA",
    "ETHNIC": "NOT HISPANIC OR LATINO"
  },
  {
    "STUDYID": "CDISCPILOT01",
    "DOMAIN": "DM",
    "USUBJID": "01-703-013",
    "SUBJID": "013",
    "SITEID": "703",
    "RFSTDTC": "2013-04-28",
    "RFXSTDTC": "2013-04-28",
    "AGE": 78,
    "AGEU": "YEARS",
    "SEX": "M",
    "RACE": "WHITE",
    "ARMCD": "Xan_Lo",
    "ARM": "Xanomeline Low Dose",
    "ACTARMCD": "Xan_Lo",
    "ACTARM": "Xanomeline Low Dose",
    "COUNTRY": "USA",
    "ETHNIC": "NOT HISPANIC OR LATINO"
  },
  {
    "STUDYID": "CDISCPILOT01",
    "DOMAIN": "DM",
    "USUBJID": "01-703-014",
    "SUBJID": "014",
    "SITEID": "703",
    "RFSTDTC": "2013-07-17",
    "RFXSTDTC": "2013-07-17",
    "AGE": 70,
    "AGEU": "YEARS",
    "SEX": "F",
    "RACE": "WHITE",
    "ARMCD": "Xan_Lo",
    "ARM": "Xanomeline Low Dose",
    "ACTARMCD": "Xan_Lo",
    "ACTARM": "Xanomeline Low Dose",
    "COUNTRY": "USA",
    "ETHNIC": "NOT HISPANIC OR LATINO"
  },
  {
    "STUDYID": "CDISCPILOT01",
    "DOMAIN": "DM",
    "USUBJID": "01-703-015",
    "SUBJID": "015",
    "SITEID": "703",
    "RFSTDTC": "2013-02-11",
    "RFXSTDTC": "2013-02-11",
    "AGE": 87,
    "AGEU": "YEARS",
    "SEX": "F",
    "RACE": "WHITE",
    "ARMCD": "Xan_Lo",
    "ARM": "Xanomeline Low Dose",
    "ACTARMCD": "Xan_Lo",
    "ACTARM": "Xanomeline Low Dose",
    "COUNTRY": "USA",
    "ETHNIC": "NOT HISPANIC OR LATINO"
  },
  {
    "STUDYID": "CDISCPILOT01",
    "DOMAIN": "DM",
    "USUBJID": "01-703-016",
    "SUBJID": "016",
    "SITEID": "703",
    "RFSTDTC": "2013-05-02",
    "RFXSTDTC": "2013-05-02",
    "AGE": 85,
    "AGEU": "YEARS",
    "SEX": "F",
    "RACE": "WHITE",
    "ARMCD": "Pbo",
    "ARM": "Placebo",
    "ACTARMCD": "Pbo",
    "ACTARM": "Placebo",
    "COUNTRY": "USA",
    "ETHNIC": "HISPANIC OR LATINO"
  },
  {
    "STUDYID": "CDISCPILOT01",
    "DOMAIN": "DM",
    "USUBJID": "01-703-017",
    "SUBJID": "017",
    "SITEID": "703",
    "RFSTDTC": "2013-11-18",
    "RFXSTDTC": "2013-11-18",
    "AGE": 61,
    "AGEU": "YEARS",
    "SEX": "F",
    "RACE": "WHITE",
    "ARMCD": "Xan_Lo",
    "ARM": "Xanomeline Low Dose",
    "ACTARMCD": "Xan_Lo",
    "ACTARM": "Xanomeline Low Dose",
    "COUNTRY": "USA",
    "ETHNIC": "NOT HISPANIC OR LATINO"
  },
  {
    "STUDYID": "CDISCPILOT01",
    "DOMAIN": "DM",
    "USUBJID": "01-703-018",
    "SUBJID": "018",
    "SITEID": "703",
    "RFSTDTC": "2013-08-23",
    "RFXSTDTC": "2013-08-23",
    "AGE": 75,
    "AGEU": "YEARS",
    "SEX": "M",
    "RACE": "WHITE",
    "ARMCD": "Xan_Lo",
    "ARM": "Xanomeline Low Dose",
    "ACTARMCD": "Xan_Lo",
    "ACTARM": "Xanomeline Low Dose",
    "COUNTRY": "USA",
    "ETHNIC": "NOT HISPANIC OR LATINO"
  },
  {
    "STUDYID": "CDISCPILOT01",
    "DOMAIN": "DM",
    "USUBJID": "01-703-019",
    "SUBJID": "019",
    "SITEID": "703",
    "RFSTDTC": "2013-11-03",
    "RFXSTDTC": "2013-11-03",
    "AGE": 62,
    "AGEU": "YEARS",
    "SEX": "F",
    "RACE": "BLACK OR AFRICAN AMERICAN",
    "ARMCD": "Xan_Hi",
    "ARM": "Xanomeline High Dose",
    "ACTARMCD": "Xan_Hi",
    "ACTARM": "Xanomeline High Dose",
    "COUNTRY": "USA",
    "ETHNIC": "NOT HISPANIC OR LATINO"
  },
  {
    "STUDYID": "CDISCPILOT01",
    "DOMAIN": "DM",
    "USUBJID": "01-703-020",
    "SUBJID": "020",
    "SITEID": "703",
    "RFSTDTC": "2013-07-07",
    "RFXSTDTC": "2013-07-07",
    "AGE": 72,
    "AGEU": "YEARS",
    "SEX": "F",
    "RACE": "WHITE",
    "ARMCD": "Xan_Lo",
    "ARM": "Xanomeline Low Dose",
    "ACTARMCD": "Xan_Lo",
    "ACTARM": "Xanomeline Low Dose",
    "COUNTRY": "USA",
    "ETHNIC": "NOT HISPANIC OR LATINO"
  },
  {
    "STUDYID": "CDISCPILOT01",
    "DOMAIN": "DM",
    "USUBJID": "01-704-001",
    "SUBJID": "001",
    "SITEID": "704",
    "RFSTDTC": "2013-12-14",
    "RFXSTDTC": "2013-12-14",
    "AGE": 79,
    "AGEU": "YEARS",
    "SEX": "F",
    "RACE": "WHITE",
    "ARMCD": "Pbo",
    "ARM": "Placebo",
    "ACTARMCD": "Pbo",
    "ACTARM": "Placebo",
    "COUNTRY": "USA",
    "ETHNIC": "NOT HISPANIC OR LATINO"
  },
  {
    "STUDYID": "CDISCPILOT01",
    "DOMAIN": "DM",
    "USUBJID": "01-704-002",
    "SUBJID": "002",
    "SITEID": "704",
    "RFSTDTC": "2013-02-21",
    "RFXSTDTC": "2013-02-21",
    "AGE": 89,
    "AGEU": "YEARS",
    "SEX": "M",
    "RACE": "WHITE",
    "ARMCD": "Pbo",
    "ARM": "Placebo",
    "ACTARMCD": "Pbo",
    "ACTARM": "Placebo",
    "COUNTRY": "USA",
    "ETHNIC": "NOT HISPANIC OR LATINO"
  },
  {
    "STUDYID": "CDISCPILOT01",
    "DOMAIN": "DM",
    "USUBJID": "01-704-003",
    "SUBJID": "003",
    "SITEID": "704",
    "RFSTDTC": "2013-06-22",
    "RFXSTDTC": "2013-06-22",
    "AGE": 78,
    "AGEU": "YEARS",
    "SEX": "M",
    "RACE": "WHITE",
    "ARMCD": "Xan_Lo",
    "ARM": "Xanomeline Low Dose",
    "ACTARMCD": "Xan_Lo",
    "ACTARM": "Xanomeline Low Dose",
    "COUNTRY": "USA",
    "ETHNIC": "NOT HISPANIC OR LATINO"
  },
  {
    "STUDYID": "CDISCPILOT01",
    "DOMAIN": "DM",
    "USUBJID": "01-704-004",
    "SUBJID": "004",
    "SITEID": "704",
    "RFSTDTC": "2013-09-29",
    "RFXSTDTC": "2013-09-29",
    "AGE": 59,
    "AGEU": "YEARS",
    "SEX": "M",
    "RACE": "WHITE",
    "ARMCD": "Xan_Lo",
    "ARM": "Xanomeline Low Dose",
    "ACTARMCD": "Xan_Lo",
    "ACTARM": "Xanomeline Low Dose",
    "COUNTRY": "USA",
    "ETHNIC": "NOT HISPANIC OR LATINO"
  },
  {
    "STUDYID": "CDISCPILOT01",
    "DOMAIN": "DM",
    "USUBJID": "01-704-005",
    "SUBJID": "005",
    "SITEID": "704",
    "RFSTDTC": "2013-11-08",
    "RFXSTDTC": "2013-11-08",
    "AGE": 76,
    "AGEU": "YEARS",
    "SEX": "F",
    "RACE": "WHITE",
    "ARMCD": "Pbo",
    "ARM": "Placebo",
    "ACTARMCD": "Pbo",
    "ACTARM": "Placebo",
    "COUNTRY": "USA",
    "ETHNIC": "NOT HISPANIC OR LATINO"
  },
  {
    "STUDYID": "CDISCPILOT01",
    "DOMAIN": "DM",
    "USUBJID": "01-704-006",
    "SUBJID": "006",
    "SITEID": "704",
    "RFSTDTC": "2013-10-29",
    "RFXSTDTC": "2013-10-29",
    "AGE": 85,
    "AGEU": "YEARS",
    "SEX": "M",
    "RACE": "WHITE",
    "ARMCD": "Pbo",
    "ARM": "Placebo",
    "ACTARMCD": "Pbo",
    "ACTARM": "Placebo",
    "COUNTRY": "USA",
    "ETHNIC": "NOT HISPANIC OR LATINO"
  },
  {
    "STUDYID": "CDISCPILOT01",
    "DOMAIN": "DM",
    "USUBJID": "01-704-007",
    "SUBJID": "007",
    "SITEID": "704",
    "RFSTDTC": "2013-12-16",
    "RFXSTDTC": "2013-12-16",
    "AGE": 73,
    "AGEU": "YEARS",
    "SEX": "F",
    "RACE": "WHITE",
    "ARMCD": "Pbo",
    "ARM": "Placebo",
    "ACTARMCD": "Pbo",
    "ACTARM": "Placebo",
    "COUNTRY": "USA",
    "ETHNIC": "NOT HISPANIC OR LATINO"
  },
  {
    "STUDYID": "CDISCPILOT01",
    "DOMAIN": "DM",
    "USUBJID": "01-704-008",
    "SUBJID": "008",
    "SITEID": "704",
    "RFSTDTC": "2013-07-05",
    "RFXSTDTC": "2013-07-05",
    "AGE": 78,
    "AGEU": "YEARS",
    "SEX": "F",
    "RACE": "WHITE",
    "ARMCD": "Xan_Hi",
    "ARM": "Xanomeline High Dose",
    "ACTARMCD": "Xan_Hi",
    "ACTARM": "Xanomeline High Dose",
    "COUNTRY": "USA",
    "ETHNIC": "NOT HISPANIC OR LATINO"
  },
  {
    "STUDYID": "CDISCPILOT01",
    "DOMAIN": "DM",
    "USUBJID": "01-704-009",
    "SUBJID": "009",
    "SITEID": "704",
    "RFSTDTC": "2013-07-11",
    "RFXSTDTC": "2013-07-11",
    "AGE": 75,
    "AGEU": "YEARS",
    "SEX": "M",
    "RACE": "WHITE",
    "ARMCD": "Xan_Hi",
    "ARM": "Xanomeline High Dose",
    "ACTARMCD": "Xan_Hi",
    "ACTARM": "Xanomeline High Dose",
    "COUNTRY": "USA",
    "ETHNIC": "NOT HISPANIC OR LATINO"
  },
  {
    "STUDYID": "CDISCPILOT01",
    "DOMAIN": "DM",
    "USUBJID": "01-704-010",
    "SUBJID": "010",
    "SITEID": "704",
    "RFSTDTC": "2013-09-21",
    "RFXSTDTC": "2013-09-21",
    "AGE": 72,
    "AGEU": "YEARS",
    "SEX": "F",
    "RACE": "WHITE",
    "ARMCD": "Xan_Hi",
    "ARM": "Xanomeline High Dose",
    "ACTARMCD": "Xan_Hi",
    "ACTARM": "Xanomeline High Dose",
    "COUNTRY": "USA",
    "ETHNIC": "NOT HISPANIC OR LATINO"
  },
  {
    "STUDYID": "CDISCPILOT01",
    "DOMAIN": "DM",
    "USUBJID": "01-704-011",
    "SUBJID": "011",
    "SITEID": "704",
    "RFSTDTC": "2013-11-09",
    "RFXSTDTC": "2013-11-09",
    "AGE": 71,
    "AGEU": "YEARS",
    "SEX": "M",
    "RACE": "WHITE",
    "ARMCD": "Pbo",
    "ARM": "Placebo",
    "ACTARMCD": "Pbo",
    "ACTARM": "Placebo",
    "COUNTRY": "USA",
    "ETHNIC": "NOT HISPANIC OR LATINO"
  },
  {
    "STUDYID": "CDISCPILOT01",
    "DOMAIN": "DM",
    "USUBJID": "01-704-012",
    "SUBJID": "012",
    "SITEID": "704",
    "RFSTDTC": "2013-11-17",
    "RFXSTDTC": "2013-11-17",
    "AGE": 69,
    "AGEU": "YEARS",
    "SEX": "M",
    "RACE": "HISPANIC OR LATINO",
    "ARMCD": "Xan_Lo",
    "ARM": "Xanomeline Low Dose",
    "ACTARMCD": "Xan_Lo",
    "ACTARM": "Xanomeline Low Dose",
    "COUNTRY": "USA",
    "ETHNIC": "NOT HISPANIC OR LATINO"
  },
  {
    "STUDYID": "CDISCPILOT01",
    "DOMAIN": "DM",
    "USUBJID": "01-704-013",
    "SUBJID": "013",
    "SITEID": "704",
    "RFSTDTC": "2013-05-06",
    "RFXSTDTC": "2013-05-06",
    "AGE": 66,
    "AGEU": "YEARS",
    "SEX": "F",
    "RACE": "WHITE",
    "ARMCD": "Pbo",
    "ARM": "Placebo",
    "ACTARMCD": "Pbo",
    "ACTARM": "Placebo",
    "COUNTRY": "USA",
    "ETHNIC": "NOT HISPANIC OR LATINO"
  },
  {
    "STUDYID": "CDISCPILOT01",
    "DOMAIN": "DM",
    "USUBJID": "01-704-014",
    "SUBJID": "014",
    "SITEID": "704",
    "RFSTDTC": "2013-09-04",
    "RFXSTDTC": "2013-09-04",
    "AGE": 67,
    "AGEU": "YEARS",
    "SEX": "M",
    "RACE": "WHITE",
    "ARMCD": "Pbo",
    "ARM": "Placebo",
    "ACTARMCD": "Pbo",
    "ACTARM": "Placebo",
    "COUNTRY": "USA",
    "ETHNIC": "NOT HISPANIC OR LATINO"
  },
  {
    "STUDYID": "CDISCPILOT01",
    "DOMAIN": "DM",
    "USUBJID": "01-704-015",
    "SUBJID": "015",
    "SITEID": "704",
    "RFSTDTC": "2013-05-08",
    "RFXSTDTC": "2013-05-08",
    "AGE": 87,
    "AGEU": "YEARS",
    "SEX": "M",
    "RACE": "WHITE",
    "ARMCD": "Xan_Lo",
    "ARM": "Xanomeline Low Dose",
    "ACTARMCD": "Xan_Lo",
    "ACTARM": "Xanomeline Low Dose",
    "COUNTRY": "USA",
    "ETHNIC": "NOT HISPANIC OR LATINO"
  },
  {
    "STUDYID": "CDISCPILOT01",
    "DOMAIN": "DM",
    "USUBJID": "01-704-016",
    "SUBJID": "016",
    "SITEID": "704",
    "RFSTDTC": "2013-09-02",
    "RFXSTDTC": "2013-09-02",
    "AGE": 89,
    "AGEU": "YEARS",
    "SEX": "M",
    "RACE": "HISPANIC OR LATINO",
    "ARMCD": "Xan_Lo",
    "ARM": "Xanomeline Low Dose",
    "ACTARMCD": "Xan_Lo",
    "ACTARM": "Xanomeline Low Dose",
    "COUNTRY": "USA",
    "ETHNIC": "NOT HISPANIC OR LATINO"
  },
  {
    "STUDYID": "CDISCPILOT01",
    "DOMAIN": "DM",
    "USUBJID": "01-704-017",
    "SUBJID": "017",
    "SITEID": "704",
    "RFSTDTC": "2013-01-11",
    "RFXSTDTC": "2013-01-11",
    "AGE": 62,
    "AGEU": "YEARS",
    "SEX": "F",
    "RACE": "WHITE",
    "ARMCD": "Pbo",
    "ARM": "Placebo",
    "ACTARMCD": "Pbo",
    "ACTARM": "Placebo",
    "COUNTRY": "USA",
    "ETHNIC": "NOT HISPANIC OR LATINO"
  },
  {
    "STUDYID": "CDISCPILOT01",
    "DOMAIN": "DM",
    "USUBJID": "01-704-018",
    "SUBJID": "018",
    "SITEID": "704",
    "RFSTDTC": "2013-06-21",
    "RFXSTDTC": "2013-06-21",
    "AGE": 61,
    "AGEU": "YEARS",
    "SEX": "F",
    "RACE": "WHITE",
    "ARMCD": "Pbo",
    "ARM": "Placebo",
    "ACTARMCD": "Pbo",
    "ACTARM": "Placebo",
    "COUNTRY": "USA",
    "ETHNIC": "NOT HISPANIC OR LATINO"
  },
  {
    "STUDYID": "CDISCPILOT01",
    "DOMAIN": "DM",
    "USUBJID": "01-704-019",
    "SUBJID": "019",
    "SITEID": "704",
    "RFSTDTC": "2013-08-07",
    "RFXSTDTC": "2013-08-07",
    "AGE": 75,
    "AGEU": "YEARS",
    "SEX": "F",
    "RACE": "WHITE",
    "ARMCD": "Xan_Lo",
    "ARM": "Xanomeline Low Dose",
    "ACTARMCD": "Xan_Lo",
    "ACTARM": "Xanomeline Low Dose",
    "COUNTRY": "USA",
    "ETHNIC": "NOT HISPANIC OR LATINO"
  },
  {
    "STUDYID": "CDISCPILOT01",
    "DOMAIN": "DM",
    "USUBJID": "01-704-020",
    "SUBJID": "020",
    "SITEID": "704",
    "RFSTDTC": "2013-02-28",
    "RFXSTDTC": "2013-02-28",
    "AGE": 64,
    "AGEU": "YEARS",
    "SEX": "F",
    "RACE": "WHITE",
    "ARMCD": "Xan_Hi",
    "ARM": "Xanomeline High Dose",
    "ACTARMCD": "Xan_Hi",
    "ACTARM": "Xanomeline High Dose",
    "COUNTRY": "USA",
    "ETHNIC": "NOT HISPANIC OR LATINO"
  },
  {
    "STUDYID": "CDISCPILOT01",
    "DOMAIN": "DM",
    "USUBJID": "01-704-021",
    "SUBJID": "021",
    "SITEID": "704",
    "RFSTDTC": "2013-05-30",
    "RFXSTDTC": "2013-05-30",
    "AGE": 84,
    "AGEU": "YEARS",
    "SEX": "M",
    "RACE": "WHITE",
    "ARMCD": "Pbo",
    "ARM": "Placebo",
    "ACTARMCD": "Pbo",
    "ACTARM": "Placebo",
    "COUNTRY": "USA",
    "ETHNIC": "NOT HISPANIC OR LATINO"
  },
  {
    "STUDYID": "CDISCPILOT01",
    "DOMAIN": "DM",
    "USUBJID": "01-704-022",
    "SUBJID": "022",
    "SITEID": "704",
    "RFSTDTC": "2013-01-29",
    "RFXSTDTC": "2013-01-29",
    "AGE": 74,
    "AGEU": "YEARS",
    "SEX": "M",
    "RACE": "WHITE",
    "ARMCD": "Xan_Lo",
    "ARM": "Xanomeline Low Dose",
    "ACTARMCD": "Xan_Lo",
    "ACTARM": "Xanomeline Low Dose",
    "COUNTRY": "USA",
    "ETHNIC": "NOT HISPANIC OR LATINO"
  },
  {
    "STUDYID": "CDISCPILOT01",
    "DOMAIN": "DM",
    "USUBJID": "01-704-023",
    "SUBJID": "023",
    "SITEID": "704",
    "RFSTDTC": "2013-09-06",
    "RFXSTDTC": "2013-09-06",
    "AGE": 68,
    "AGEU": "YEARS",
    "SEX": "M",
    "RACE": "WHITE",
    "ARMCD": "Xan_Hi",
    "ARM": "Xanomeline High Dose",
    "ACTARMCD": "Xan_Hi",
    "ACTARM": "Xanomeline High Dose",
    "COUNTRY": "USA",
    "ETHNIC": "NOT HISPANIC OR LATINO"
  },
  {
    "STUDYID": "CDISCPILOT01",
    "DOMAIN": "DM",
    "USUBJID": "01-704-024",
    "SUBJID": "024",
    "SITEID": "704",
    "RFSTDTC": "2013-08-18",
    "RFXSTDTC": "2013-08-18",
    "AGE": 74,
    "AGEU": "YEARS",
    "SEX": "F",
    "RACE": "BLACK OR AFRICAN AMERICAN",
    "ARMCD": "Pbo",
    "ARM": "Placebo",
    "ACTARMCD": "Pbo",
    "ACTARM": "Placebo",
    "COUNTRY": "USA",
    "ETHNIC": "HISPANIC OR LATINO"
  },
  {
    "STUDYID": "CDISCPILOT01",
    "DOMAIN": "DM",
    "USUBJID": "01-704-025",
    "SUBJID": "025",
    "SITEID": "704",
    "RFSTDTC": "2013-04-05",
    "RFXSTDTC": "2013-04-05",
    "AGE": 77,
    "AGEU": "YEARS",
    "SEX": "F",
    "RACE": "WHITE",
    "ARMCD": "Pbo",
    "ARM": "Placebo",
    "ACTARMCD": "Pbo",
    "ACTARM": "Placebo",
    "COUNTRY": "USA",
    "ETHNIC": "NOT HISPANIC OR LATINO"
  },
  {
    "STUDYID": "CDISCPILOT01",
    "DOMAIN": "DM",
    "USUBJID": "01-705-001",
    "SUBJID": "001",
    "SITEID": "705",
    "RFSTDTC": "2013-08-02",
    "RFXSTDTC": "2013-08-02",
    "AGE": 62,
    "AGEU": "YEARS",
    "SEX": "M",
    "RACE": "WHITE",
    "ARMCD": "Xan_Hi",
    "ARM": "Xanomeline High Dose",
    "ACTARMCD": "Xan_Hi",
    "ACTARM": "Xanomeline High Dose",
    "COUNTRY": "USA",
    "ETHNIC": "NOT HISPANIC OR LATINO"
  },
  {
    "STUDYID": "CDISCPILOT01",
    "DOMAIN": "DM",
    "USUBJID": "01-705-002",
    "SUBJID": "002",
    "SITEID": "705",
    "RFSTDTC": "2013-08-15",
    "RFXSTDTC": "2013-08-15",
    "AGE": 68,
    "AGEU": "YEARS",
    "SEX": "M",
    "RACE": "WHITE",
    "ARMCD": "Xan_Hi",
    "ARM": "Xanomeline High Dose",
    "ACTARMCD": "Xan_Hi",
    "ACTARM": "Xanomeline High Dose",
    "COUNTRY": "USA",
    "ETHNIC": "NOT HISPANIC OR LATINO"
  },
  {
    "STUDYID": "CDISCPILOT01",
    "DOMAIN": "DM",
    "USUBJID": "01-705-003",
    "SUBJID": "003",
    "SITEID": "705",
    "RFSTDTC": "2013-12-28",
    "RFXSTDTC": "2013-12-28",
    "AGE": 82,
    "AGEU": "YEARS",
    "SEX": "M",
    "RACE": "WHITE",
    "ARMCD": "Xan_Hi",
    "ARM": "Xanomeline High Dose",
    "ACTARMCD": "Xan_Hi",
    "ACTARM": "Xanomeline High Dose",
    "COUNTRY": "USA",
    "ETHNIC": "NOT HISPANIC OR LATINO"
  },
  {
    "STUDYID": "CDISCPILOT01",
    "DOMAIN": "DM",
    "USUBJID": "01-705-004",
    "SUBJID": "004",
    "SITEID": "705",
    "RFSTDTC": "2013-09-08",
    "RFXSTDTC": "2013-09-08",
    "AGE": 76,
    "AGEU": "YEARS",
    "SEX": "F",
    "RACE": "HISPANIC OR LATINO",
    "ARMCD": "Xan_Hi",
    "ARM": "Xanomeline High Dose",
    "ACTARMCD": "Xan_Hi",
    "ACTARM": "Xanomeline High Dose",
    "COUNTRY": "USA",
    "ETHNIC": "NOT HISPANIC OR LATINO"
  },
  {
    "STUDYID": "CDISCPILOT01",
    "DOMAIN": "DM",
    "USUBJID": "01-705-005",
    "SUBJID": "005",
    "SITEID": "705",
    "RFSTDTC": "2013-05-27",
    "RFXSTDTC": "2013-05-27",
    "AGE": 68,
    "AGEU": "YEARS",
    "SEX": "M",
    "RACE": "WHITE",
    "ARMCD": "Xan_Lo",
    "ARM": "Xanomeline Low Dose",
    "ACTARMCD": "Xan_Lo",
    "ACTARM": "Xanomeline Low Dose",
    "COUNTRY": "USA",
    "ETHNIC": "NOT HISPANIC OR LATINO"
  },
  {
    "STUDYID": "CDISCPILOT01",
    "DOMAIN": "DM",
    "USUBJID": "01-705-006",
    "SUBJID": "006",
    "SITEID": "705",
    "RFSTDTC": "2013-12-13",
    "RFXSTDTC": "2013-12-13",
    "AGE": 61,
    "AGEU": "YEARS",
    "SEX": "F",
    "RACE": "BLACK OR AFRICAN AMERICAN",
    "ARMCD": "Xan_Lo",
    "ARM": "Xanomeline Low Dose",
    "ACTARMCD": "Xan_Lo",
    "ACTARM": "Xanomeline Low Dose",
    "COUNTRY": "USA",
    "ETHNIC": "HISPANIC OR LATINO"
  },
  {
    "STUDYID": "CDISCPILOT01",
    "DOMAIN": "DM",
    "USUBJID": "01-705-007",
    "SUBJID": "007",
    "SITEID": "705",
    "RFSTDTC": "2013-10-04",
    "RFXSTDTC": "2013-10-04",
    "AGE": 72,
    "AGEU": "YEARS",
    "SEX": "M",
    "RACE": "BLACK OR AFRICAN AMERICAN",
    "ARMCD": "Xan_Lo",
    "ARM": "Xanomeline Low Dose",
    "ACTARMCD": "Xan_Lo",
    "ACTARM": "Xanomeline Low Dose",
    "COUNTRY": "USA",
    "ETHNIC": "NOT HISPANIC OR LATINO"
  },
  {
    "STUDYID": "CDISCPILOT01",
    "DOMAIN": "DM",
    "USUBJID": "01-705-008",
    "SUBJID": "008",
    "SITEID": "705",
    "RFSTDTC": "2013-05-16",
    "RFXSTDTC": "2013-05-16",
    "AGE": 82,
    "AGEU": "YEARS",
    "SEX": "F",
    "RACE": "WHITE",
    "ARMCD": "Pbo",
    "ARM": "Placebo",
    "ACTARMCD": "Pbo",
    "ACTARM": "Placebo",
    "COUNTRY": "USA",
    "ETHNIC": "NOT HISPANIC OR LATINO"
  },
  {
    "STUDYID": "CDISCPILOT01",
    "DOMAIN": "DM",
    "USUBJID": "01-705-009",
    "SUBJID": "009",
    "SITEID": "705",
    "RFSTDTC": "2013-09-07",
    "RFXSTDTC": "2013-09-07",
    "AGE": 84,
    "AGEU": "YEARS",
    "SEX": "F",
    "RACE": "BLACK OR AFRICAN AMERICAN",
    "ARMCD": "Pbo",
    "ARM": "Placebo",
    "ACTARMCD": "Pbo",
    "ACTARM": "Placebo",
    "COUNTRY": "USA",
    "ETHNIC": "NOT HISPANIC OR LATINO"
  },
  {
    "STUDYID": "CDISCPILOT01",
    "DOMAIN": "DM",
    "USUBJID": "01-705-010",
    "SUBJID": "010",
    "SITEID": "705",
    "RFSTDTC": "2013-08-02",
    "RFXSTDTC": "2013-08-02",
    "AGE": 86,
    "AGEU": "YEARS",
    "SEX": "F",
    "RACE": "WHITE",
    "ARMCD": "Pbo",
    "ARM": "Placebo",
    "ACTARMCD": "Pbo",
    "ACTARM": "Placebo",
    "COUNTRY": "USA",
    "ETHNIC": "NOT HISPANIC OR LATINO"
  },
  {
    "STUDYID": "CDISCPILOT01",
    "DOMAIN": "DM",
    "USUBJID": "01-705-011",
    "SUBJID": "011",
    "SITEID": "705",
    "RFSTDTC": "2013-08-26",
    "RFXSTDTC": "2013-08-26",
    "AGE": 73,
    "AGEU": "YEARS",
    "SEX": "M",
    "RACE": "BLACK OR AFRICAN AMERICAN",
    "ARMCD": "Pbo",
    "ARM": "Placebo",
    "ACTARMCD": "Pbo",
    "ACTARM": "Placebo",
    "COUNTRY": "USA",
    "ETHNIC": "NOT HISPANIC OR LATINO"
  },
  {
    "STUDYID": "CDISCPILOT01",
    "DOMAIN": "DM",
    "USUBJID": "01-705-012",
    "SUBJID": "012",
    "SITEID": "705",
    "RFSTDTC": "2013-08-27",
    "RFXSTDTC": "2013-08-27",
    "AGE": 80,
    "AGEU": "YEARS",
    "SEX": "M",
    "RACE": "WHITE",
    "ARMCD": "Pbo",
    "ARM": "Placebo",
    "ACTARMCD": "Pbo",
    "ACTARM": "Placebo",
    "COUNTRY": "USA",
    "ETHNIC": "NOT HISPANIC OR LATINO"
  },
  {
    "STUDYID": "CDISCPILOT01",
    "DOMAIN": "DM",
    "USUBJID": "01-705-013",
    "SUBJID": "013",
    "SITEID": "705",
    "RFSTDTC": "2013-02-07",
    "RFXSTDTC": "2013-02-07",
    "AGE": 85,
    "AGEU": "YEARS",
    "SEX": "F",
    "RACE": "WHITE",
    "ARMCD": "Pbo",
    "ARM": "Placebo",
    "ACTARMCD": "Pbo",
    "ACTARM": "Placebo",
    "COUNTRY": "USA",
    "ETHNIC": "NOT HISPANIC OR LATINO"
  },
  {
    "STUDYID": "CDISCPILOT01",
    "DOMAIN": "DM",
    "USUBJID": "01-705-014",
    "SUBJID": "014",
    "SITEID": "705",
    "RFSTDTC": "2013-02-23",
    "RFXSTDTC": "2013-02-23",
    "AGE": 77,
    "AGEU": "YEARS",
    "SEX": "F",
    "RACE": "WHITE",
    "ARMCD": "Xan_Hi",
    "ARM": "Xanomeline High Dose",
    "ACTARMCD": "Xan_Hi",
    "ACTARM": "Xanomeline High Dose",
    "COUNTRY": "USA",
    "ETHNIC": "NOT HISPANIC OR LATINO"
  },
  {
    "STUDYID": "CDISCPILOT01",
    "DOMAIN": "DM",
    "USUBJID": "01-706-001",
    "SUBJID": "001",
    "SITEID": "706",
    "RFSTDTC": "2013-01-31",
    "RFXSTDTC": "2013-01-31",
    "AGE": 80,
    "AGEU": "YEARS",
    "SEX": "M",
    "RACE": "WHITE",
    "ARMCD": "Xan_Hi",
    "ARM": "Xanomeline High Dose",
    "ACTARMCD": "Xan_Hi",
    "ACTARM": "Xanomeline High Dose",
    "COUNTRY": "USA",
    "ETHNIC": "NOT HISPANIC OR LATINO"
  },
  {
    "STUDYID": "CDISCPILOT01",
    "DOMAIN": "DM",
    "USUBJID": "01-706-002",
    "SUBJID": "002",
    "SITEID": "706",
    "RFSTDTC": "2013-02-15",
    "RFXSTDTC": "2013-02-15",
    "AGE": 63,
    "AGEU": "YEARS",
    "SEX": "F",
    "RACE": "WHITE",
    "ARMCD": "Pbo",
    "ARM": "Placebo",
    "ACTARMCD": "Pbo",
    "ACTARM": "Placebo",
    "COUNTRY": "USA",
    "ETHNIC": "NOT HISPANIC OR LATINO"
  },
  {
    "STUDYID": "CDISCPILOT01",
    "DOMAIN": "DM",
    "USUBJID": "01-706-003",
    "SUBJID": "003",
    "SITEID": "706",
    "RFSTDTC": "2013-03-10",
    "RFXSTDTC": "2013-03-10",
    "AGE": 69,
    "AGEU": "YEARS",
    "SEX": "M",
    "RACE": "WHITE",
    "ARMCD": "Xan_Lo",
    "ARM": "Xanomeline Low Dose",
    "ACTARMCD": "Xan_Lo",
    "ACTARM": "Xanomeline Low Dose",
    "COUNTRY": "USA",
    "ETHNIC": "NOT HISPANIC OR LATINO"
  },
  {
    "STUDYID": "CDISCPILOT01",
    "DOMAIN": "DM",
    "USUBJID": "01-707-001",
    "SUBJID": "001",
    "SITEID": "707",
    "RFSTDTC": "2013-02-11",
    "RFXSTDTC": "2013-02-11",
    "AGE": 87,
    "AGEU": "YEARS",
    "SEX": "F",
    "RACE": "WHITE",
    "ARMCD": "Xan_Lo",
    "ARM": "Xanomeline Low Dose",
    "ACTARMCD": "Xan_Lo",
    "ACTARM": "Xanomeline Low Dose",
    "COUNTRY": "USA",
    "ETHNIC": "NOT HISPANIC OR LATINO"
  },
  {
    "STUDYID": "CDISCPILOT01",
    "DOMAIN": "DM",
    "USUBJID": "01-707-002",
    "SUBJID": "002",
    "SITEID": "707",
    "RFSTDTC": "2013-08-22",
    "RFXSTDTC": "2013-08-22",
    "AGE": 83,
    "AGEU": "YEARS",
    "SEX": "M",
    "RACE": "WHITE",
    "ARMCD": "Pbo",
    "ARM": "Placebo",
    "ACTARMCD": "Pbo",
    "ACTARM": "Placebo",
    "COUNTRY": "USA",
    "ETHNIC": "NOT HISPANIC OR LATINO"
  },
  {
    "STUDYID": "CDISCPILOT01",
    "DOMAIN": "DM",
    "USUBJID": "01-707-003",
    "SUBJID": "003",
    "SITEID": "707",
    "RFSTDTC": "2013-12-10",
    "RFXSTDTC": "2013-12-10",
    "AGE": 66,
    "AGEU": "YEARS",
    "SEX": "F",
    "RACE": "WHITE",
    "ARMCD": "Pbo",
    "ARM": "Placebo",
    "ACTARMCD": "Pbo",
    "ACTARM": "Placebo",
    "COUNTRY": "USA",
    "ETHNIC": "HISPANIC OR LATINO"
  },
  {
    "STUDYID": "CDISCPILOT01",
    "DOMAIN": "DM",
    "USUBJID": "01-708-001",
    "SUBJID": "001",
    "SITEID": "708",
    "RFSTDTC": "2013-11-10",
    "RFXSTDTC": "2013-11-10",
    "AGE": 87,
    "AGEU": "YEARS",
    "SEX": "F",
    "RACE": "WHITE",
    "ARMCD": "Pbo",
    "ARM": "Placebo",
    "ACTARMCD": "Pbo",
    "ACTARM": "Placebo",
    "COUNTRY": "USA",
    "ETHNIC": "NOT HISPANIC OR LATINO"
  },
  {
    "STUDYID": "CDISCPILOT01",
    "DOMAIN": "DM",
    "USUBJID": "01-708-002",
    "SUBJID": "002",
    "SITEID": "708",
    "RFSTDTC": "2013-08-27",
    "RFXSTDTC": "2013-08-27",
    "AGE": 83,
    "AGEU": "YEARS",
    "SEX": "M",
    "RACE": "WHITE",
    "ARMCD": "Xan_Lo",
    "ARM": "Xanomeline Low Dose",
    "ACTARMCD": "Xan_Lo",
    "ACTARM": "Xanomeline Low Dose",
    "COUNTRY": "USA",
    "ETHNIC": "NOT HISPANIC OR LATINO"
  },
  {
    "STUDYID": "CDISCPILOT01",
    "DOMAIN": "DM",
    "USUBJID": "01-708-003",
    "SUBJID": "003",
    "SITEID": "708",
    "RFSTDTC": "2013-10-28",
    "RFXSTDTC": "2013-10-28",
    "AGE": 67,
    "AGEU": "YEARS",
    "SEX": "M",
    "RACE": "WHITE",
    "ARMCD": "Xan_Hi",
    "ARM": "Xanomeline High Dose",
    "ACTARMCD": "Xan_Hi",
    "ACTARM": "Xanomeline High Dose",
    "COUNTRY": "USA",
    "ETHNIC": "NOT HISPANIC OR LATINO"
  },
  {
    "STUDYID": "CDISCPILOT01",
    "DOMAIN": "DM",
    "USUBJID": "01-708-004",
    "SUBJID": "004",
    "SITEID": "708",
    "RFSTDTC": "2013-01-04",
    "RFXSTDTC": "2013-01-04",
    "AGE": 80,
    "AGEU": "YEARS",
    "SEX": "F",
    "RACE": "WHITE",
    "ARMCD": "Xan_Lo",
    "ARM": "Xanomeline Low Dose",
    "ACTARMCD": "Xan_Lo",
    "ACTARM": "Xanomeline Low Dose",
    "COUNTRY": "USA",
    "ETHNIC": "NOT HISPANIC OR LATINO"
  },
  {
    "STUDYID": "CDISCPILOT01",
    "DOMAIN": "DM",
    "USUBJID": "01-708-005",
    "SUBJID": "005",
    "SITEID": "708",
    "RFSTDTC": "2013-02-03",
    "RFXSTDTC": "2013-02-03",
    "AGE": 63,
    "AGEU": "YEARS",
    "SEX": "F",
    "RACE": "WHITE",
    "ARMCD": "Xan_Lo",
    "ARM": "Xanomeline Low Dose",
    "ACTARMCD": "Xan_Lo",
    "ACTARM": "Xanomeline Low Dose",
    "COUNTRY": "USA",
    "ETHNIC": "NOT HISPANIC OR LATINO"
  },
  {
    "STUDYID": "CDISCPILOT01",
    "DOMAIN": "DM",
    "USUBJID": "01-708-006",
    "SUBJID": "006",
    "SITEID": "708",
    "RFSTDTC": "2013-10-06",
    "RFXSTDTC": "2013-10-06",
    "AGE": 70,
    "AGEU": "YEARS",
    "SEX": "F",
    "RACE": "WHITE",
    "ARMCD": "Xan_Lo",
    "ARM": "Xanomeline Low Dose",
    "ACTARMCD": "Xan_Lo",
    "ACTARM": "Xanomeline Low Dose",
    "COUNTRY": "USA",
    "ETHNIC": "NOT HISPANIC OR LATINO"
  },
  {
    "STUDYID": "CDISCPILOT01",
    "DOMAIN": "DM",
    "USUBJID": "01-708-007",
    "SUBJID": "007",
    "SITEID": "708",
    "RFSTDTC": "2013-05-19",
    "RFXSTDTC": "2013-05-19",
    "AGE": 83,
    "AGEU": "YEARS",
    "SEX": "F",
    "RACE": "WHITE",
    "ARMCD": "Xan_Hi",
    "ARM": "Xanomeline High Dose",
    "ACTARMCD": "Xan_Hi",
    "ACTARM": "Xanomeline High Dose",
    "COUNTRY": "USA",
    "ETHNIC": "NOT HISPANIC OR LATINO"
  },
  {
    "STUDYID": "CDISCPILOT01",
    "DOMAIN": "DM",
    "USUBJID": "01-708-008",
    "SUBJID": "008",
    "SITEID": "708",
    "RFSTDTC": "2013-07-03",
    "RFXSTDTC": "2013-07-03",
    "AGE": 68,
    "AGEU": "YEARS",
    "SEX": "F",
    "RACE": "WHITE",
    "ARMCD": "Xan_Hi",
    "ARM": "Xanomeline High Dose",
    "ACTARMCD": "Xan_Hi",
    "ACTARM": "Xanomeline High Dose",
    "COUNTRY": "USA",
    "ETHNIC": "NOT HISPANIC OR LATINO"
  },
  {
    "STUDYID": "CDISCPILOT01",
    "DOMAIN": "DM",
    "USUBJID": "01-708-009",
    "SUBJID": "009",
    "SITEID": "708",
    "RFSTDTC": "2013-04-16",
    "RFXSTDTC": "2013-04-16",
    "AGE": 70,
    "AGEU": "YEARS",
    "SEX": "F",
    "RACE": "WHITE",
    "ARMCD": "Xan_Lo",
    "ARM": "Xanomeline Low Dose",
    "ACTARMCD": "Xan_Lo",
    "ACTARM": "Xanomeline Low Dose",
    "COUNTRY": "USA",
    "ETHNIC": "NOT HISPANIC OR LATINO"
  },
  {
    "STUDYID": "CDISCPILOT01",
    "DOMAIN": "DM",
    "USUBJID": "01-708-010",
    "SUBJID": "010",
    "SITEID": "708",
    "RFSTDTC": "2013-07-05",
    "RFXSTDTC": "2013-07-05",
    "AGE": 68,
    "AGEU": "YEARS",
    "SEX": "F",
    "RACE": "WHITE",
    "ARMCD": "Xan_Lo",
    "ARM": "Xanomeline Low Dose",
    "ACTARMCD": "Xan_Lo",
    "ACTARM": "Xanomeline Low Dose",
    "COUNTRY": "USA",
    "ETHNIC": "NOT HISPANIC OR LATINO"
  },
  {
    "STUDYID": "CDISCPILOT01",
    "DOMAIN": "DM",
    "USUBJID": "01-708-011",
    "SUBJID": "011",
    "SITEID": "708",
    "RFSTDTC": "2013-12-03",
    "RFXSTDTC": "2013-12-03",
    "AGE": 63,
    "AGEU": "YEARS",
    "SEX": "F",
    "RACE": "WHITE",
    "ARMCD": "Xan_Lo",
    "ARM": "Xanomeline Low Dose",
    "ACTARMCD": "Xan_Lo",
    "ACTARM": "Xanomeline Low Dose",
    "COUNTRY": "USA",
    "ETHNIC": "NOT HISPANIC OR LATINO"
  },
  {
    "STUDYID": "CDISCPILOT01",
    "DOMAIN": "DM",
    "USUBJID": "01-708-012",
    "SUBJID": "012",
    "SITEID": "708",
    "RFSTDTC": "2013-06-08",
    "RFXSTDTC": "2013-06-08",
    "AGE": 89,
    "AGEU": "YEARS",
    "SEX": "F",
    "RACE": "BLACK OR AFRICAN AMERICAN",
    "ARMCD": "Pbo",
    "ARM": "Placebo",
    "ACTARMCD": "Pbo",
    "ACTARM": "Placebo",
    "COUNTRY": "USA",
    "ETHNIC": "NOT HISPANIC OR LATINO"
  },
  {
    "STUDYID": "CDISCPILOT01",
    "DOMAIN": "DM",
    "USUBJID": "01-708-013",
    "SUBJID": "013",
    "SITEID": "708",
    "RFSTDTC": "2013-04-03",
    "RFXSTDTC": "2013-04-03",
    "AGE": 81,
    "AGEU": "YEARS",
    "SEX": "M",
    "RACE": "BLACK OR AFRICAN AMERICAN",
    "ARMCD": "Xan_Hi",
    "ARM": "Xanomeline High Dose",
    "ACTARMCD": "Xan_Hi",
    "ACTARM": "Xanomeline High Dose",
    "COUNTRY": "USA",
    "ETHNIC": "NOT HISPANIC OR LATINO"
  },
  {
    "STUDYID": "CDISCPILOT01",
    "DOMAIN": "DM",
    "USUBJID": "01-708-014",
    "SUBJID": "014",
    "SITEID": "708",
    "RFSTDTC": "2013-07-09",
    "RFXSTDTC": "2013-07-09",
    "AGE": 76,
    "AGEU": "YEARS",
    "SEX": "M",
    "RACE": "HISPANIC OR LATINO",
    "ARMCD": "Xan_Lo",
    "ARM": "Xanomeline Low Dose",
    "ACTARMCD": "Xan_Lo",
    "ACTARM": "Xanomeline Low Dose",
    "COUNTRY": "USA",
    "ETHNIC": "NOT HISPANIC OR LATINO"
  },
  {
    "STUDYID": "CDISCPILOT01",
    "DOMAIN": "DM",
    "USUBJID": "01-708-015",
    "SUBJID": "015",
    "SITEID": "708",
    "RFSTDTC": "2013-10-05",
    "RFXSTDTC": "2013-10-05",
    "AGE": 80,
    "AGEU": "YEARS",
    "SEX": "M",
    "RACE": "WHITE",
    "ARMCD": "Pbo",
    "ARM": "Placebo",
    "ACTARMCD": "Pbo",
    "ACTARM": "Placebo",
    "COUNTRY": "USA",
    "ETHNIC": "NOT HISPANIC OR LATINO"
  },
  {
    "STUDYID": "CDISCPILOT01",
    "DOMAIN": "DM",
    "USUBJID": "01-708-016",
    "SUBJID": "016",
    "SITEID": "708",
    "RFSTDTC": "2013-02-07",
    "RFXSTDTC": "2013-02-07",
    "AGE": 72,
    "AGEU": "YEARS",
    "SEX": "F",
    "RACE": "WHITE",
    "ARMCD": "Xan_Lo",
    "ARM": "Xanomeline Low Dose",
    "ACTARMCD": "Xan_Lo",
    "ACTARM": "Xanomeline Low Dose",
    "COUNTRY": "USA",
    "ETHNIC": "NOT HISPANIC OR LATINO"
  },
  {
    "STUDYID": "CDISCPILOT01",
    "DOMAIN": "DM",
    "USUBJID": "01-708-017",
    "SUBJID": "017",
    "SITEID": "708",
    "RFSTDTC": "2013-10-10",
    "RFXSTDTC": "2013-10-10",
    "AGE": 65,
    "AGEU": "YEARS",
    "SEX": "F",
    "RACE": "WHITE",
    "ARMCD": "Xan_Hi",
    "ARM": "Xanomeline High Dose",
    "ACTARMCD": "Xan_Hi",
    "ACTARM": "Xanomeline High Dose",
    "COUNTRY": "USA",
    "ETHNIC": "NOT HISPANIC OR LATINO"
  },
  {
    "STUDYID": "CDISCPILOT01",
    "DOMAIN": "DM",
    "USUBJID": "01-708-018",
    "SUBJID": "018",
    "SITEID": "708",
    "RFSTDTC": "2013-09-19",
    "RFXSTDTC": "2013-09-19",
    "AGE": 61,
    "AGEU": "YEARS",
    "SEX": "M",
    "RACE": "HISPANIC OR LATINO",
    "ARMCD": "Xan_Hi",
    "ARM": "Xanomeline High Dose",
    "ACTARMCD": "Xan_Hi",
    "ACTARM": "Xanomeline High Dose",
    "COUNTRY": "USA",
    "ETHNIC": "NOT HISPANIC OR LATINO"
  },
  {
    "STUDYID": "CDISCPILOT01",
    "DOMAIN": "DM",
    "USUBJID": "01-708-019",
    "SUBJID": "019",
    "SITEID": "708",
    "RFSTDTC": "2013-08-30",
    "RFXSTDTC": "2013-08-30",
    "AGE": 84,
    "AGEU": "YEARS",
    "SEX": "F",
    "RACE": "WHITE",
    "ARMCD": "Xan_Lo",
    "ARM": "Xanomeline Low Dose",
    "ACTARMCD": "Xan_Lo",
    "ACTARM": "Xanomeline Low Dose",
    "COUNTRY": "USA",
    "ETHNIC": "NOT HISPANIC OR LATINO"
  },
  {
    "STUDYID": "CDISCPILOT01",
    "DOMAIN": "DM",
    "USUBJID": "01-708-020",
    "SUBJID": "020",
    "SITEID": "708",
    "RFSTDTC": "2013-07-26",
    "RFXSTDTC": "2013-07-26",
    "AGE": 73,
    "AGEU": "YEARS",
    "SEX": "F",
    "RACE": "WHITE",
    "ARMCD": "Pbo",
    "ARM": "Placebo",
    "ACTARMCD": "Pbo",
    "ACTARM": "Placebo",
    "COUNTRY": "USA",
    "ETHNIC": "NOT HISPANIC OR LATINO"
  },
  {
    "STUDYID": "CDISCPILOT01",
    "DOMAIN": "DM",
    "USUBJID": "01-709-001",
    "SUBJID": "001",
    "SITEID": "709",
    "RFSTDTC": "2013-12-23",
    "RFXSTDTC": "2013-12-23",
    "AGE": 89,
    "AGEU": "YEARS",
    "SEX": "M",
    "RACE": "WHITE",
    "ARMCD": "Xan_Hi",
    "ARM": "Xanomeline High Dose",
    "ACTARMCD": "Xan_Hi",
    "ACTARM": "Xanomeline High Dose",
    "COUNTRY": "USA",
    "ETHNIC": "NOT HISPANIC OR LATINO"
  },
  {
    "STUDYID": "CDISCPILOT01",
    "DOMAIN": "DM",
    "USUBJID": "01-709-002",
    "SUBJID": "002",
    "SITEID": "709",
    "RFSTDTC": "2013-02-22",
    "RFXSTDTC": "2013-02-22",
    "AGE": 84,
    "AGEU": "YEARS",
    "SEX": "M",
    "RACE": "WHITE",
    "ARMCD": "Pbo",
    "ARM": "Placebo",
    "ACTARMCD": "Pbo",
    "ACTARM": "Placebo",
    "COUNTRY": "USA",
    "ETHNIC": "NOT HISPANIC OR LATINO"
  },
  {
    "STUDYID": "CDISCPILOT01",
    "DOMAIN": "DM",
    "USUBJID": "01-709-003",
    "SUBJID": "003",
    "SITEID": "709",
    "RFSTDTC": "2013-10-20",
    "RFXSTDTC": "2013-10-20",
    "AGE": 69,
    "AGEU": "YEARS",
    "SEX": "F",
    "RACE": "WHITE",
    "ARMCD": "Xan_Hi",
    "ARM": "Xanomeline High Dose",
    "ACTARMCD": "Xan_Hi",
    "ACTARM": "Xanomeline High Dose",
    "COUNTRY": "USA",
    "ETHNIC": "NOT HISPANIC OR LATINO"
  },
  {
    "STUDYID": "CDISCPILOT01",
    "DOMAIN": "DM",
    "USUBJID": "01-709-004",
    "SUBJID": "004",
    "SITEID": "709",
    "RFSTDTC": "2013-10-14",
    "RFXSTDTC": "2013-10-14",
    "AGE": 75,
    "AGEU": "YEARS",
    "SEX": "F",
    "RACE": "WHITE",
    "ARMCD": "Xan_Hi",
    "ARM": "Xanomeline High Dose",
    "ACTARMCD": "Xan_Hi",
    "ACTARM": "Xanomeline High Dose",
    "COUNTRY": "USA",
    "ETHNIC": "NOT HISPANIC OR LATINO"
  },
  {
    "STUDYID": "CDISCPILOT01",
    "DOMAIN": "DM",
    "USUBJID": "01-709-005",
    "SUBJID": "005",
    "SITEID": "709",
    "RFSTDTC": "2013-03-13",
    "RFXSTDTC": "2013-03-13",
    "AGE": 89,
    "AGEU": "YEARS",
    "SEX": "F",
    "RACE": "WHITE",
    "ARMCD": "Xan_Hi",
    "ARM": "Xanomeline High Dose",
    "ACTARMCD": "Xan_Hi",
    "ACTARM": "Xanomeline High Dose",
    "COUNTRY": "USA",
    "ETHNIC": "NOT HISPANIC OR LATINO"
  },
  {
    "STUDYID": "CDISCPILOT01",
    "DOMAIN": "DM",
    "USUBJID": "01-709-006",
    "SUBJID": "006",
    "SITEID": "709",
    "RFSTDTC": "2013-04-09",
    "RFXSTDTC": "2013-04-09",
    "AGE": 60,
    "AGEU": "YEARS",
    "SEX": "M",
    "RACE": "WHITE",
    "ARMCD": "Xan_Lo",
    "ARM": "Xanomeline Low Dose",
    "ACTARMCD": "Xan_Lo",
    "ACTARM": "Xanomeline Low Dose",
    "COUNTRY": "USA",
    "ETHNIC": "NOT HISPANIC OR LATINO"
  },
  {
    "STUDYID": "CDISCPILOT01",
    "DOMAIN": "DM",
    "USUBJID": "01-709-007",
    "SUBJID": "007",
    "SITEID": "709",
    "RFSTDTC": "2013-02-03",
    "RFXSTDTC": "2013-02-03",
    "AGE": 85,
    "AGEU": "YEARS",
    "SEX": "F",
    "RACE": "WHITE",
    "ARMCD": "Xan_Lo",
    "ARM": "Xanomeline Low Dose",
    "ACTARMCD": "Xan_Lo",
    "ACTARM": "Xanomeline Low Dose",
    "COUNTRY": "USA",
    "ETHNIC": "NOT HISPANIC OR LATINO"
  },
  {
    "STUDYID": "CDISCPILOT01",
    "DOMAIN": "DM",
    "USUBJID": "01-709-008",
    "SUBJID": "008",
    "SITEID": "709",
    "RFSTDTC": "2013-06-03",
    "RFXSTDTC": "2013-06-03",
    "AGE": 59,
    "AGEU": "YEARS",
    "SEX": "F",
    "RACE": "HISPANIC OR LATINO",
    "ARMCD": "Pbo",
    "ARM": "Placebo",
    "ACTARMCD": "Pbo",
    "ACTARM": "Placebo",
    "COUNTRY": "USA",
    "ETHNIC": "NOT HISPANIC OR LATINO"
  },
  {
    "STUDYID": "CDISCPILOT01",
    "DOMAIN": "DM",
    "USUBJID": "01-709-009",
    "SUBJID": "009",
    "SITEID": "709",
    "RFSTDTC": "2013-10-30",
    "RFXSTDTC": "2013-10-30",
    "AGE": 77,
    "AGEU": "YEARS",
    "SEX": "F",
    "RACE": "WHITE",
    "ARMCD": "Xan_Lo",
    "ARM": "Xanomeline Low Dose",
    "ACTARMCD": "Xan_Lo",
    "ACTARM": "Xanomeline Low Dose",
    "COUNTRY": "USA",
    "ETHNIC": "NOT HISPANIC OR LATINO"
  },
  {
    "STUDYID": "CDISCPILOT01",
    "DOMAIN": "DM",
    "USUBJID": "01-709-010",
    "SUBJID": "010",
    "SITEID": "709",
    "RFSTDTC": "2013-11-20",
    "RFXSTDTC": "2013-11-20",
    "AGE": 62,
    "AGEU": "YEARS",
    "SEX": "M",
    "RACE": "WHITE",
    "ARMCD": "Pbo",
    "ARM": "Placebo",
    "ACTARMCD": "Pbo",
    "ACTARM": "Placebo",
    "COUNTRY": "USA",
    "ETHNIC": "NOT HISPANIC OR LATINO"
  },
  {
    "STUDYID": "CDISCPILOT01",
    "DOMAIN": "DM",
    "USUBJID": "01-709-011",
    "SUBJID": "011",
    "SITEID": "709",
    "RFSTDTC": "2013-12-10",
    "RFXSTDTC": "2013-12-10",
    "AGE": 70,
    "AGEU": "YEARS",
    "SEX": "F",
    "RACE": "BLACK OR AFRICAN AMERICAN",
    "ARMCD": "Xan_Lo",
    "ARM": "Xanomeline Low Dose",
    "ACTARMCD": "Xan_Lo",
    "ACTARM": "Xanomeline Low Dose",
    "COUNTRY": "USA",
    "ETHNIC": "NOT HISPANIC OR LATINO"
  },
  {
    "STUDYID": "CDISCPILOT01",
    "DOMAIN": "DM",
    "USUBJID": "01-709-012",
    "SUBJID": "012",
    "SITEID": "709",
    "RFSTDTC": "2013-07-01",
    "RFXSTDTC": "2013-07-01",
    "AGE": 79,
    "AGEU": "YEARS",
    "SEX": "M",
    "RACE": "WHITE",
    "ARMCD": "Xan_Lo",
    "ARM": "Xanomeline Low Dose",
    "ACTARMCD": "Xan_Lo",
    "ACTARM": "Xanomeline Low Dose",
    "COUNTRY": "USA",
    "ETHNIC": "NOT HISPANIC OR LATINO"
  },
  {
    "STUDYID": "CDISCPILOT01",
    "DOMAIN": "DM",
    "USUBJID": "01-709-013",
    "SUBJID": "013",
    "SITEID": "709",
    "RFSTDTC": "2013-04-06",
    "RFXSTDTC": "2013-04-06",
    "AGE": 73,
    "AGEU": "YEARS",
    "SEX": "F",
    "RACE": "WHITE",
    "ARMCD": "Xan_Hi",
    "ARM": "Xanomeline High Dose",
    "ACTARMCD": "Xan_Hi",
    "ACTARM": "Xanomeline High Dose",
    "COUNTRY": "USA",
    "ETHNIC": "NOT HISPANIC OR LATINO"
  },
  {
    "STUDYID": "CDISCPILOT01",
    "DOMAIN": "DM",
    "USUBJID": "01-709-014",
    "SUBJID": "014",
    "SITEID": "709",
    "RFSTDTC": "2014-01-02",
    "RFXSTDTC": "2014-01-02",
    "AGE": 82,
    "AGEU": "YEARS",
    "SEX": "M",
    "RACE": "WHITE",
    "ARMCD": "Xan_Lo",
    "ARM": "Xanomeline Low Dose",
    "ACTARMCD": "Xan_Lo",
    "ACTARM": "Xanomeline Low Dose",
    "COUNTRY": "USA",
    "ETHNIC": "NOT HISPANIC OR LATINO"
  },
  {
    "STUDYID": "CDISCPILOT01",
    "DOMAIN": "DM",
    "USUBJID": "01-709-015",
    "SUBJID": "015",
    "SITEID": "709",
    "RFSTDTC": "2013-05-04",
    "RFXSTDTC": "2013-05-04",
    "AGE": 78,
    "AGEU": "YEARS",
    "SEX": "F",
    "RACE": "WHITE",
    "ARMCD": "Xan_Lo",
    "ARM": "Xanomeline Low Dose",
    "ACTARMCD": "Xan_Lo",
    "ACTARM": "Xanomeline Low Dose",
    "COUNTRY": "USA",
    "ETHNIC": "NOT HISPANIC OR LATINO"
  },
  {
    "STUDYID": "CDISCPILOT01",
    "DOMAIN": "DM",
    "USUBJID": "01-709-016",
    "SUBJID": "016",
    "SITEID": "709",
    "RFSTDTC": "2013-04-04",
    "RFXSTDTC": "2013-04-04",
    "AGE": 83,
    "AGEU": "YEARS",
    "SEX": "F",
    "RACE": "WHITE",
    "ARMCD": "Xan_Hi",
    "ARM": "Xanomeline High Dose",
    "ACTARMCD": "Xan_Hi",
    "ACTARM": "Xanomeline High Dose",
    "COUNTRY": "USA",
    "ETHNIC": "NOT HISPANIC OR LATINO"
  },
  {
    "STUDYID": "CDISCPILOT01",
    "DOMAIN": "DM",
    "USUBJID": "01-709-017",
    "SUBJID": "017",
    "SITEID": "709",
    "RFSTDTC": "2013-01-02",
    "RFXSTDTC": "2013-01-02",
    "AGE": 79,
    "AGEU": "YEARS",
    "SEX": "M",
    "RACE": "WHITE",
    "ARMCD": "Xan_Hi",
    "ARM": "Xanomeline High Dose",
    "ACTARMCD": "Xan_Hi",
    "ACTARM": "Xanomeline High Dose",
    "COUNTRY": "USA",
    "ETHNIC": "NOT HISPANIC OR LATINO"
  },
  {
    "STUDYID": "CDISCPILOT01",
    "DOMAIN": "DM",
    "USUBJID": "01-709-018",
    "SUBJID": "018",
    "SITEID": "709",
    "RFSTDTC": "2013-01-30",
    "RFXSTDTC": "2013-01-30",
    "AGE": 74,
    "AGEU": "YEARS",
    "SEX": "F",
    "RACE": "WHITE",
    "ARMCD": "Pbo",
    "ARM": "Placebo",
    "ACTARMCD": "Pbo",
    "ACTARM": "Placebo",
    "COUNTRY": "USA",
    "ETHNIC": "NOT HISPANIC OR LATINO"
  },
  {
    "STUDYID": "CDISCPILOT01",
    "DOMAIN": "DM",
    "USUBJID": "01-709-019",
    "SUBJID": "019",
    "SITEID": "709",
    "RFSTDTC": "2013-11-19",
    "RFXSTDTC": "2013-11-19",
    "AGE": 89,
    "AGEU": "YEARS",
    "SEX": "M",
    "RACE": "WHITE",
    "ARMCD": "Xan_Hi",
    "ARM": "Xanomeline High Dose",
    "ACTARMCD": "Xan_Hi",
    "ACTARM": "Xanomeline High Dose",
    "COUNTRY": "USA",
    "ETHNIC": "HISPANIC OR LATINO"
  },
  {
    "STUDYID": "CDISCPILOT01",
    "DOMAIN": "DM",
    "USUBJID": "01-709-020",
    "SUBJID": "020",
    "SITEID": "709",
    "RFSTDTC": "2013-10-09",
    "RFXSTDTC": "2013-10-09",
    "AGE": 75,
    "AGEU": "YEARS",
    "SEX": "M",
    "RACE": "WHITE",
    "ARMCD": "Xan_Lo",
    "ARM": "Xanomeline Low Dose",
    "ACTARMCD": "Xan_Lo",
    "ACTARM": "Xanomeline Low Dose",
    "COUNTRY": "USA",
    "ETHNIC": "NOT HISPANIC OR LATINO"
  },
  {
    "STUDYID": "CDISCPILOT01",
    "DOMAIN": "DM",
    "USUBJID": "01-709-021",
    "SUBJID": "021",
    "SITEID": "709",
    "RFSTDTC": "2013-04-08",
    "RFXSTDTC": "2013-04-08",
    "AGE": 81,
    "AGEU": "YEARS",
    "SEX": "M",
    "RACE": "WHITE",
    "ARMCD": "Pbo",
    "ARM": "Placebo",
    "ACTARMCD": "Pbo",
    "ACTARM": "Placebo",
    "COUNTRY": "USA",
    "ETHNIC": "NOT HISPANIC OR LATINO"
  },
  {
    "STUDYID": "CDISCPILOT01",
    "DOMAIN": "DM",
    "USUBJID": "01-709-022",
    "SUBJID": "022",
    "SITEID": "709",
    "RFSTDTC": "2013-05-17",
    "RFXSTDTC": "2013-05-17",
    "AGE": 61,
    "AGEU": "YEARS",
    "SEX": "F",
    "RACE": "HISPANIC OR LATINO",
    "ARMCD": "Xan_Lo",
    "ARM": "Xanomeline Low Dose",
    "ACTARMCD": "Xan_Lo",
    "ACTARM": "Xanomeline Low Dose",
    "COUNTRY": "USA",
    "ETHNIC": "NOT HISPANIC OR LATINO"
  },
  {
    "STUDYID": "CDISCPILOT01",
    "DOMAIN": "DM",
    "USUBJID": "01-709-023",
    "SUBJID": "023",
    "SITEID": "709",
    "RFSTDTC": "2013-07-01",
    "RFXSTDTC": "2013-07-01",
    "AGE": 74,
    "AGEU": "YEARS",
    "SEX": "F",
    "RACE": "WHITE",
    "ARMCD": "Xan_Lo",
    "ARM": "Xanomeline Low Dose",
    "ACTARMCD": "Xan_Lo",
    "ACTARM": "Xanomeline Low Dose",
    "COUNTRY": "USA",
    "ETHNIC": "NOT HISPANIC OR LATINO"
  },
  {
    "STUDYID": "CDISCPILOT01",
    "DOMAIN": "DM",
    "USUBJID": "01-710-001",
    "SUBJID": "001",
    "SITEID": "710",
    "RFSTDTC": "2013-03-30",
    "RFXSTDTC": "2013-03-30",
    "AGE": 76,
    "AGEU": "YEARS",
    "SEX": "M",
    "RACE": "WHITE",
    "ARMCD": "Xan_Hi",
    "ARM": "Xanomeline High Dose",
    "ACTARMCD": "Xan_Hi",
    "ACTARM": "Xanomeline High Dose",
    "COUNTRY": "USA",
    "ETHNIC": "NOT HISPANIC OR LATINO"
  },
  {
    "STUDYID": "CDISCPILOT01",
    "DOMAIN": "DM",
    "USUBJID": "01-710-002",
    "SUBJID": "002",
    "SITEID": "710",
    "RFSTDTC": "2013-06-28",
    "RFXSTDTC": "2013-06-28",
    "AGE": 89,
    "AGEU": "YEARS",
    "SEX": "M",
    "RACE": "WHITE",
    "ARMCD": "Pbo",
    "ARM": "Placebo",
    "ACTARMCD": "Pbo",
    "ACTARM": "Placebo",
    "COUNTRY": "USA",
    "ETHNIC": "NOT HISPANIC OR LATINO"
  },
  {
    "STUDYID": "CDISCPILOT01",
    "DOMAIN": "DM",
    "USUBJID": "01-710-003",
    "SUBJID": "003",
    "SITEID": "710",
    "RFSTDTC": "2013-11-24",
    "RFXSTDTC": "2013-11-24",
    "AGE": 77,
    "AGEU": "YEARS",
    "SEX": "M",
    "RACE": "WHITE",
    "ARMCD": "Xan_Lo",
    "ARM": "Xanomeline Low Dose",
    "ACTARMCD": "Xan_Lo",
    "ACTARM": "Xanomeline Low Dose",
    "COUNTRY": "USA",
    "ETHNIC": "HISPANIC OR LATINO"
  },
  {
    "STUDYID": "CDISCPILOT01",
    "DOMAIN": "DM",
    "USUBJID": "01-710-004",
    "SUBJID": "004",
    "SITEID": "710",
    "RFSTDTC": "2013-04-18",
    "RFXSTDTC": "2013-04-18",
    "AGE": 74,
    "AGEU": "YEARS",
    "SEX": "M",
    "RACE": "BLACK OR AFRICAN AMERICAN",
    "ARMCD": "Pbo",
    "ARM": "Placebo",
    "ACTARMCD": "Pbo",
    "ACTARM": "Placebo",
    "COUNTRY": "USA",
    "ETHNIC": "NOT HISPANIC OR LATINO"
  },
  {
    "STUDYID": "CDISCPILOT01",
    "DOMAIN": "DM",
    "USUBJID": "01-710-005",
    "SUBJID": "005",
    "SITEID": "710",
    "RFSTDTC": "2013-01-22",
    "RFXSTDTC": "2013-01-22",
    "AGE": 77,
    "AGEU": "YEARS",
    "SEX": "F",
    "RACE": "WHITE",
    "ARMCD": "Xan_Hi",
    "ARM": "Xanomeline High Dose",
    "ACTARMCD": "Xan_Hi",
    "ACTARM": "Xanomeline High Dose",
    "COUNTRY": "USA",
    "ETHNIC": "NOT HISPANIC OR LATINO"
  },
  {
    "STUDYID": "CDISCPILOT01",
    "DOMAIN": "DM",
    "USUBJID": "01-710-006",
    "SUBJID": "006",
    "SITEID": "710",
    "RFSTDTC": "2013-04-28",
    "RFXSTDTC": "2013-04-28",
    "AGE": 78,
    "AGEU": "YEARS",
    "SEX": "M",
    "RACE": "WHITE",
    "ARMCD": "Pbo",
    "ARM": "Placebo",
    "ACTARMCD": "Pbo",
    "ACTARM": "Placebo",
    "COUNTRY": "USA",
    "ETHNIC": "NOT HISPANIC OR LATINO"
  },
  {
    "STUDYID": "CDISCPILOT01",
    "DOMAIN": "DM",
    "USUBJID": "01-710-007",
    "SUBJID": "007",
    "SITEID": "710",
    "RFSTDTC": "2013-05-06",
    "RFXSTDTC": "2013-05-06",
    "AGE": 64,
    "AGEU": "YEARS",
    "SEX": "F",
    "RACE": "HISPANIC OR LATINO",
    "ARMCD": "Xan_Hi",
    "ARM": "Xanomeline High Dose",
    "ACTARMCD": "Xan_Hi",
    "ACTARM": "Xanomeline High Dose",
    "COUNTRY": "USA",
    "ETHNIC": "NOT HISPANIC OR LATINO"
  },
  {
    "STUDYID": "CDISCPILOT01",
    "DOMAIN": "DM",
    "USUBJID": "01-710-008",
    "SUBJID": "008",
    "SITEID": "710",
    "RFSTDTC": "2013-10-27",
    "RFXSTDTC": "2013-10-27",
    "AGE": 66,
    "AGEU": "YEARS",
    "SEX": "M",
    "RACE": "WHITE",
    "ARMCD": "Xan_Lo",
    "ARM": "Xanomeline Low Dose",
    "ACTARMCD": "Xan_Lo",
    "ACTARM": "Xanomeline Low Dose",
    "COUNTRY": "USA",
    "ETHNIC": "NOT HISPANIC OR LATINO"
  },
  {
    "STUDYID": "CDISCPILOT01",
    "DOMAIN": "DM",
    "USUBJID": "01-710-009",
    "SUBJID": "009",
    "SITEID": "710",
    "RFSTDTC": "2013-10-14",
    "RFXSTDTC": "2013-10-14",
    "AGE": 75,
    "AGEU": "YEARS",
    "SEX": "F",
    "RACE": "WHITE",
    "ARMCD": "Xan_Lo",
    "ARM": "Xanomeline Low Dose",
    "ACTARMCD": "Xan_Lo",
    "ACTARM": "Xanomeline Low Dose",
    "COUNTRY": "USA",
    "ETHNIC": "NOT HISPANIC OR LATINO"
  },
  {
    "STUDYID": "CDISCPILOT01",
    "DOMAIN": "DM",
    "USUBJID": "01-710-010",
    "SUBJID": "010",
    "SITEID": "710",
    "RFSTDTC": "2013-07-15",
    "RFXSTDTC": "2013-07-15",
    "AGE": 65,
    "AGEU": "YEARS",
    "SEX": "F",
    "RACE": "WHITE",
    "ARMCD": "Xan_Lo",
    "ARM": "Xanomeline Low Dose",
    "ACTARMCD": "Xan_Lo",
    "ACTARM": "Xanomeline Low Dose",
    "COUNTRY": "USA",
    "ETHNIC": "NOT HISPANIC OR LATINO"
  },
  {
    "STUDYID": "CDISCPILOT01",
    "DOMAIN": "DM",
    "USUBJID": "01-710-011",
    "SUBJID": "011",
    "SITEID": "710",
    "RFSTDTC": "2013-11-16",
    "RFXSTDTC": "2013-11-16",
    "AGE": 75,
    "AGEU": "YEARS",
    "SEX": "F",
    "RACE": "WHITE",
    "ARMCD": "Pbo",
    "ARM": "Placebo",
    "ACTARMCD": "Pbo",
    "ACTARM": "Placebo",
    "COUNTRY": "USA",
    "ETHNIC": "NOT HISPANIC OR LATINO"
  },
  {
    "STUDYID": "CDISCPILOT01",
    "DOMAIN": "DM",
    "USUBJID": "01-710-012",
    "SUBJID": "012",
    "SITEID": "710",
    "RFSTDTC": "2013-07-24",
    "RFXSTDTC": "2013-07-24",
    "AGE": 71,
    "AGEU": "YEARS",
    "SEX": "F",
    "RACE": "WHITE",
    "ARMCD": "Xan_Hi",
    "ARM": "Xanomeline High Dose",
    "ACTARMCD": "Xan_Hi",
    "ACTARM": "Xanomeline High Dose",
    "COUNTRY": "USA",
    "ETHNIC": "NOT HISPANIC OR LATINO"
  },
  {
    "STUDYID": "CDISCPILOT01",
    "DOMAIN": "DM",
    "USUBJID": "01-710-013",
    "SUBJID": "013",
    "SITEID": "710",
    "RFSTDTC": "2013-11-15",
    "RFXSTDTC": "2013-11-15",
    "AGE": 59,
    "AGEU": "YEARS",
    "SEX": "M",
    "RACE": "WHITE",
    "ARMCD": "Pbo",
    "ARM": "Placebo",
    "ACTARMCD": "Pbo",
    "ACTARM": "Placebo",
    "COUNTRY": "USA",
    "ETHNIC": "NOT HISPANIC OR LATINO"
  },
  {
    "STUDYID": "CDISCPILOT01",
    "DOMAIN": "DM",
    "USUBJID": "01-710-014",
    "SUBJID": "014",
    "SITEID": "710",
    "RFSTDTC": "2013-06-14",
    "RFXSTDTC": "2013-06-14",
    "AGE": 78,
    "AGEU": "YEARS",
    "SEX": "F",
    "RACE": "WHITE",
    "ARMCD": "Pbo",
    "ARM": "Placebo",
    "ACTARMCD": "Pbo",
    "ACTARM": "Placebo",
    "COUNTRY": "USA",
    "ETHNIC": "NOT HISPANIC OR LATINO"
  },
  {
    "STUDYID": "CDISCPILOT01",
    "DOMAIN": "DM",
    "USUBJID": "01-710-015",
    "SUBJID": "015",
    "SITEID": "710",
    "RFSTDTC": "2013-07-27",
    "RFXSTDTC": "2013-07-27",
    "AGE": 61,
    "AGEU": "YEARS",
    "SEX": "F",
    "RACE": "WHITE",
    "ARMCD": "Pbo",
    "ARM": "Placebo",
    "ACTARMCD": "Pbo",
    "ACTARM": "Placebo",
    "COUNTRY": "USA",
    "ETHNIC": "NOT HISPANIC OR LATINO"
  },
  {
    "STUDYID": "CDISCPILOT01",
    "DOMAIN": "DM",
    "USUBJID": "01-710-016",
    "SUBJID": "016",
    "SITEID": "710",
    "RFSTDTC": "2013-03-28",
    "RFXSTDTC": "2013-03-28",
    "AGE": 56,
    "AGEU": "YEARS",
    "SEX": "F",
    "RACE": "WHITE",
    "ARMCD": "Xan_Hi",
    "ARM": "Xanomeline High Dose",
    "ACTARMCD": "Xan_Hi",
    "ACTARM": "Xanomeline High Dose",
    "COUNTRY": "USA",
    "ETHNIC": "NOT HISPANIC OR LATINO"
  },
  {
    "STUDYID": "CDISCPILOT01",
    "DOMAIN": "DM",
    "USUBJID": "01-710-017",
    "SUBJID": "017",
    "SITEID": "710",
    "RFSTDTC": "2013-08-25",
    "RFXSTDTC": "2013-08-25",
    "AGE": 80,
    "AGEU": "YEARS",
    "SEX": "M",
    "RACE": "WHITE",
    "ARMCD": "Xan_Lo",
    "ARM": "Xanomeline Low Dose",
    "ACTARMCD": "Xan_Lo",
    "ACTARM": "Xanomeline Low Dose",
    "COUNTRY": "USA",
    "ETHNIC": "NOT HISPANIC OR LATINO"
  },
  {
    "STUDYID": "CDISCPILOT01",
    "DOMAIN": "DM",
    "USUBJID": "01-710-018",
    "SUBJID": "018",
    "SITEID": "710",
    "RFSTDTC": "2013-08-28",
    "RFXSTDTC": "2013-08-28",
    "AGE": 78,
    "AGEU": "YEARS",
    "SEX": "M",
    "RACE": "WHITE",
    "ARMCD": "Pbo",
    "ARM": "Placebo",
    "ACTARMCD": "Pbo",
    "ACTARM": "Placebo",
    "COUNTRY": "USA",
    "ETHNIC": "NOT HISPANIC OR LATINO"
  },
  {
    "STUDYID": "CDISCPILOT01",
    "DOMAIN": "DM",
    "USUBJID": "01-710-019",
    "SUBJID": "019",
    "SITEID": "710",
    "RFSTDTC": "2013-02-25",
    "RFXSTDTC": "2013-02-25",
    "AGE": 65,
    "AGEU": "YEARS",
    "SEX": "F",
    "RACE": "BLACK OR AFRICAN AMERICAN",
    "ARMCD": "Xan_Hi",
    "ARM": "Xanomeline High Dose",
    "ACTARMCD": "Xan_Hi",
    "ACTARM": "Xanomeline High Dose",
    "COUNTRY": "USA",
    "ETHNIC": "NOT HISPANIC OR LATINO"
  },
  {
    "STUDYID": "CDISCPILOT01",
    "DOMAIN": "DM",
    "USUBJID": "01-710-020",
    "SUBJID": "020",
    "SITEID": "710",
    "RFSTDTC": "2013-05-22",
    "RFXSTDTC": "2013-05-22",
    "AGE": 85,
    "AGEU": "YEARS",
    "SEX": "F",
    "RACE": "WHITE",
    "ARMCD": "Pbo",
    "ARM": "Placebo",
    "ACTARMCD": "Pbo",
    "ACTARM": "Placebo",
    "COUNTRY": "USA",
    "ETHNIC": "NOT HISPANIC OR LATINO"
  },
  {
    "STUDYID": "CDISCPILOT01",
    "DOMAIN": "DM",
    "USUBJID": "01-710-021",
    "SUBJID": "021",
    "SITEID": "710",
    "RFSTDTC": "2013-07-03",
    "RFXSTDTC": "2013-07-03",
    "AGE": 75,
    "AGEU": "YEARS",
    "SEX": "F",
    "RACE": "HISPANIC OR LATINO",
    "ARMCD": "Pbo",
    "ARM": "Placebo",
    "ACTARMCD": "Pbo",
    "ACTARM": "Placebo",
    "COUNTRY": "USA",
    "ETHNIC": "NOT HISPANIC OR LATINO"
  },
  {
    "STUDYID": "CDISCPILOT01",
    "DOMAIN": "DM",
    "USUBJID": "01-710-022",
    "SUBJID": "022",
    "SITEID": "710",
    "RFSTDTC": "2013-03-05",
    "RFXSTDTC": "2013-03-05",
    "AGE": 82,
    "AGEU": "YEARS",
    "SEX": "M",
    "RACE": "WHITE",
    "ARMCD": "Xan_Lo",
    "ARM": "Xanomeline Low Dose",
    "ACTARMCD": "Xan_Lo",
    "ACTARM": "Xanomeline Low Dose",
    "COUNTRY": "USA",
    "ETHNIC": "NOT HISPANIC OR LATINO"
  },
  {
    "STUDYID": "CDISCPILOT01",
    "DOMAIN": "DM",
    "USUBJID": "01-710-023",
    "SUBJID": "023",
    "SITEID": "710",
    "RFSTDTC": "2013-05-11",
    "RFXSTDTC": "2013-05-11",
    "AGE": 89,
    "AGEU": "YEARS",
    "SEX": "F",
    "RACE": "WHITE",
    "ARMCD": "Pbo",
    "ARM": "Placebo",
    "ACTARMCD": "Pbo",
    "ACTARM": "Placebo",
    "COUNTRY": "USA",
    "ETHNIC": "NOT HISPANIC OR LATINO"
  },
  {
    "STUDYID": "CDISCPILOT01",
    "DOMAIN": "DM",
    "USUBJID": "01-710-024",
    "SUBJID": "024",
    "SITEID": "710",
    "RFSTDTC": "2013-09-18",
    "RFXSTDTC": "2013-09-18",
    "AGE": 80,
    "AGEU": "YEARS",
    "SEX": "F",
    "RACE": "WHITE",
    "ARMCD": "Xan_Lo",
    "ARM": "Xanomeline Low Dose",
    "ACTARMCD": "Xan_Lo",
    "ACTARM": "Xanomeline Low Dose",
    "COUNTRY": "USA",
    "ETHNIC": "NOT HISPANIC OR LATINO"
  },
  {
    "STUDYID": "CDISCPILOT01",
    "DOMAIN": "DM",
    "USUBJID": "01-710-025",
    "SUBJID": "025",
    "SITEID": "710",
    "RFSTDTC": "2013-09-22",
    "RFXSTDTC": "2013-09-22",
    "AGE": 71,
    "AGEU": "YEARS",
    "SEX": "M",
    "RACE": "WHITE",
    "ARMCD": "Xan_Lo",
    "ARM": "Xanomeline Low Dose",
    "ACTARMCD": "Xan_Lo",
    "ACTARM": "Xanomeline Low Dose",
    "COUNTRY": "USA",
    "ETHNIC": "NOT HISPANIC OR LATINO"
  },
  {
    "STUDYID": "CDISCPILOT01",
    "DOMAIN": "DM",
    "USUBJID": "01-710-026",
    "SUBJID": "026",
    "SITEID": "710",
    "RFSTDTC": "2013-02-15",
    "RFXSTDTC": "2013-02-15",
    "AGE": 77,
    "AGEU": "YEARS",
    "SEX": "F",
    "RACE": "BLACK OR AFRICAN AMERICAN",
    "ARMCD": "Xan_Hi",
    "ARM": "Xanomeline High Dose",
    "ACTARMCD": "Xan_Hi",
    "ACTARM": "Xanomeline High Dose",
    "COUNTRY": "USA",
    "ETHNIC": "NOT HISPANIC OR LATINO"
  },
  {
    "STUDYID": "CDISCPILOT01",
    "DOMAIN": "DM",
    "USUBJID": "01-710-027",
    "SUBJID": "027",
    "SITEID": "710",
    "RFSTDTC": "2013-03-09",
    "RFXSTDTC": "2013-03-09",
    "AGE": 85,
    "AGEU": "YEARS",
    "SEX": "M",
    "RACE": "WHITE",
    "ARMCD": "Xan_Lo",
    "ARM": "Xanomeline Low Dose",
    "ACTARMCD": "Xan_Lo",
    "ACTARM": "Xanomeline Low Dose",
    "COUNTRY": "USA",
    "ETHNIC": "NOT HISPANIC OR LATINO"
  },
  {
    "STUDYID": "CDISCPILOT01",
    "DOMAIN": "DM",
    "USUBJID": "01-710-028",
    "SUBJID": "028",
    "SITEID": "710",
    "RFSTDTC": "2013-08-22",
    "RFXSTDTC": "2013-08-22",
    "AGE": 69,
    "AGEU": "YEARS",
    "SEX": "M",
    "RACE": "WHITE",
    "ARMCD": "Xan_Hi",
    "ARM": "Xanomeline High Dose",
    "ACTARMCD": "Xan_Hi",
    "ACTARM": "Xanomeline High Dose",
    "COUNTRY": "USA",
    "ETHNIC": "NOT HISPANIC OR LATINO"
  },
  {
    "STUDYID": "CDISCPILOT01",
    "DOMAIN": "DM",
    "USUBJID": "01-710-029",
    "SUBJID": "029",
    "SITEID": "710",
    "RFSTDTC": "2013-10-04",
    "RFXSTDTC": "2013-10-04",
    "AGE": 75,
    "AGEU": "YEARS",
    "SEX": "F",
    "RACE": "WHITE",
    "ARMCD": "Pbo",
    "ARM": "Placebo",
    "ACTARMCD": "Pbo",
    "ACTARM": "Placebo",
    "COUNTRY": "USA",
    "ETHNIC": "NOT HISPANIC OR LATINO"
  },
  {
    "STUDYID": "CDISCPILOT01",
    "DOMAIN": "DM",
    "USUBJID": "01-711-001",
    "SUBJID": "001",
    "SITEID": "711",
    "RFSTDTC": "2013-08-06",
    "RFXSTDTC": "2013-08-06",
    "AGE": 78,
    "AGEU": "YEARS",
    "SEX": "F",
    "RACE": "WHITE",
    "ARMCD": "Pbo",
    "ARM": "Placebo",
    "ACTARMCD": "Pbo",
    "ACTARM": "Placebo",
    "COUNTRY": "USA",
    "ETHNIC": "NOT HISPANIC OR LATINO"
  },
  {
    "STUDYID": "CDISCPILOT01",
    "DOMAIN": "DM",
    "USUBJID": "01-711-002",
    "SUBJID": "002",
    "SITEID": "711",
    "RFSTDTC": "2013-01-03",
    "RFXSTDTC": "2013-01-03",
    "AGE": 71,
    "AGEU": "YEARS",
    "SEX": "F",
    "RACE": "WHITE",
    "ARMCD": "Pbo",
    "ARM": "Placebo",
    "ACTARMCD": "Pbo",
    "ACTARM": "Placebo",
    "COUNTRY": "USA",
    "ETHNIC": "NOT HISPANIC OR LATINO"
  },
  {
    "STUDYID": "CDISCPILOT01",
    "DOMAIN": "DM",
    "USUBJID": "01-711-003",
    "SUBJID": "003",
    "SITEID": "711",
    "RFSTDTC": "2013-11-19",
    "RFXSTDTC": "2013-11-19",
    "AGE": 74,
    "AGEU": "YEARS",
    "SEX": "F",
    "RACE": "WHITE",
    "ARMCD": "Xan_Hi",
    "ARM": "Xanomeline High Dose",
    "ACTARMCD": "Xan_Hi",
    "ACTARM": "Xanomeline High Dose",
    "COUNTRY": "USA",
    "ETHNIC": "NOT HISPANIC OR LATINO"
  },
  {
    "STUDYID": "CDISCPILOT01",
    "DOMAIN": "DM",
    "USUBJID": "01-711-004",
    "SUBJID": "004",
    "SITEID": "711",
    "RFSTDTC": "2013-10-02",
    "RFXSTDTC": "2013-10-02",
    "AGE": 66,
    "AGEU": "YEARS",
    "SEX": "M",
    "RACE": "WHITE",
    "ARMCD": "Xan_Lo",
    "ARM": "Xanomeline Low Dose",
    "ACTARMCD": "Xan_Lo",
    "ACTARM": "Xanomeline Low Dose",
    "COUNTRY": "USA",
    "ETHNIC": "NOT HISPANIC OR LATINO"
  },
  {
    "STUDYID": "CDISCPILOT01",
    "DOMAIN": "DM",
    "USUBJID": "01-713-001",
    "SUBJID": "001",
    "SITEID": "713",
    "RFSTDTC": "2013-01-03",
    "RFXSTDTC": "2013-01-03",
    "AGE": 75,
    "AGEU": "YEARS",
    "SEX": "M",
    "RACE": "WHITE",
    "ARMCD": "Pbo",
    "ARM": "Placebo",
    "ACTARMCD": "Pbo",
    "ACTARM": "Placebo",
    "COUNTRY": "USA",
    "ETHNIC": "NOT HISPANIC OR LATINO"
  },
  {
    "STUDYID": "CDISCPILOT01",
    "DOMAIN": "DM",
    "USUBJID": "01-713-002",
    "SUBJID": "002",
    "SITEID": "713",
    "RFSTDTC": "2013-05-27",
    "RFXSTDTC": "2013-05-27",
    "AGE": 64,
    "AGEU": "YEARS",
    "SEX": "M",
    "RACE": "WHITE",
    "ARMCD": "Xan_Lo",
    "ARM": "Xanomeline Low Dose",
    "ACTARMCD": "Xan_Lo",
    "ACTARM": "Xanomeline Low Dose",
    "COUNTRY": "USA",
    "ETHNIC": "NOT HISPANIC OR LATINO"
  },
  {
    "STUDYID": "CDISCPILOT01",
    "DOMAIN": "DM",
    "USUBJID": "01-713-003",
    "SUBJID": "003",
    "SITEID": "713",
    "RFSTDTC": "2013-09-19",
    "RFXSTDTC": "2013-09-19",
    "AGE": 75,
    "AGEU": "YEARS",
    "SEX": "M",
    "RACE": "WHITE",
    "ARMCD": "Xan_Hi",
    "ARM": "Xanomeline High Dose",
    "ACTARMCD": "Xan_Hi",
    "ACTARM": "Xanomeline High Dose",
    "COUNTRY": "USA",
    "ETHNIC": "NOT HISPANIC OR LATINO"
  },
  {
    "STUDYID": "CDISCPILOT01",
    "DOMAIN": "DM",
    "USUBJID": "01-713-004",
    "SUBJID": "004",
    "SITEID": "713",
    "RFSTDTC": "2013-06-21",
    "RFXSTDTC": "2013-06-21",
    "AGE": 81,
    "AGEU": "YEARS",
    "SEX": "F",
    "RACE": "WHITE",
    "ARMCD": "Xan_Hi",
    "ARM": "Xanomeline High Dose",
    "ACTARMCD": "Xan_Hi",
    "ACTARM": "Xanomeline High Dose",
    "COUNTRY": "USA",
    "ETHNIC": "NOT HISPANIC OR LATINO"
  },
  {
    "STUDYID": "CDISCPILOT01",
    "DOMAIN": "DM",
    "USUBJID": "01-713-005",
    "SUBJID": "005",
    "SITEID": "713",
    "RFSTDTC": "2013-07-12",
    "RFXSTDTC": "2013-07-12",
    "AGE": 89,
    "AGEU": "YEARS",
    "SEX": "M",
    "RACE": "WHITE",
    "ARMCD": "Pbo",
    "ARM": "Placebo",
    "ACTARMCD": "Pbo",
    "ACTARM": "Placebo",
    "COUNTRY": "USA",
    "ETHNIC": "NOT HISPANIC OR LATINO"
  },
  {
    "STUDYID": "CDISCPILOT01",
    "DOMAIN": "DM",
    "USUBJID": "01-713-006",
    "SUBJID": "006",
    "SITEID": "713",
    "RFSTDTC": "2013-10-23",
    "RFXSTDTC": "2013-10-23",
    "AGE": 69,
    "AGEU": "YEARS",
    "SEX": "F",
    "RACE": "WHITE",
    "ARMCD": "Xan_Hi",
    "ARM": "Xanomeline High Dose",
    "ACTARMCD": "Xan_Hi",
    "ACTARM": "Xanomeline High Dose",
    "COUNTRY": "USA",
    "ETHNIC": "NOT HISPANIC OR LATINO"
  },
  {
    "STUDYID": "CDISCPILOT01",
    "DOMAIN": "DM",
    "USUBJID": "01-713-007",
    "SUBJID": "007",
    "SITEID": "713",
    "RFSTDTC": "2013-04-23",
    "RFXSTDTC": "2013-04-23",
    "AGE": 73,
    "AGEU": "YEARS",
    "SEX": "M",
    "RACE": "WHITE",
    "ARMCD": "Pbo",
    "ARM": "Placebo",
    "ACTARMCD": "Pbo",
    "ACTARM": "Placebo",
    "COUNTRY": "USA",
    "ETHNIC": "NOT HISPANIC OR LATINO"
  },
  {
    "STUDYID": "CDISCPILOT01",
    "DOMAIN": "DM",
    "USUBJID": "01-713-008",
    "SUBJID": "008",
    "SITEID": "713",
    "RFSTDTC": "2013-12-08",
    "RFXSTDTC": "2013-12-08",
    "AGE": 65,
    "AGEU": "YEARS",
    "SEX": "F",
    "RACE": "WHITE",
    "ARMCD": "Xan_Lo",
    "ARM": "Xanomeline Low Dose",
    "ACTARMCD": "Xan_Lo",
    "ACTARM": "Xanomeline Low Dose",
    "COUNTRY": "USA",
    "ETHNIC": "NOT HISPANIC OR LATINO"
  },
  {
    "STUDYID": "CDISCPILOT01",
    "DOMAIN": "DM",
    "USUBJID": "01-714-001",
    "SUBJID": "001",
    "SITEID": "714",
    "RFSTDTC": "2013-10-06",
    "RFXSTDTC": "2013-10-06",
    "AGE": 68,
    "AGEU": "YEARS",
    "SEX": "M",
    "RACE": "WHITE",
    "ARMCD": "Pbo",
    "ARM": "Placebo",
    "ACTARMCD": "Pbo",
    "ACTARM": "Placebo",
    "COUNTRY": "USA",
    "ETHNIC": "NOT HISPANIC OR LATINO"
  },
  {
    "STUDYID": "CDISCPILOT01",
    "DOMAIN": "DM",
    "USUBJID": "01-714-002",
    "SUBJID": "002",
    "SITEID": "714",
    "RFSTDTC": "2013-10-26",
    "RFXSTDTC": "2013-10-26",
    "AGE": 84,
    "AGEU": "YEARS",
    "SEX": "M",
    "RACE": "WHITE",
    "ARMCD": "Xan_Lo",
    "ARM": "Xanomeline Low Dose",
    "ACTARMCD": "Xan_Lo",
    "ACTARM": "Xanomeline Low Dose",
    "COUNTRY": "USA",
    "ETHNIC": "NOT HISPANIC OR LATINO"
  },
  {
    "STUDYID": "CDISCPILOT01",
    "DOMAIN": "DM",
    "USUBJID": "01-714-003",
    "SUBJID": "003",
    "SITEID": "714",
    "RFSTDTC": "2013-10-24",
    "RFXSTDTC": "2013-10-24",
    "AGE": 69,
    "AGEU": "YEARS",
    "SEX": "F",
    "RACE": "WHITE",
    "ARMCD": "Xan_Lo",
    "ARM": "Xanomeline Low Dose",
    "ACTARMCD": "Xan_Lo",
    "ACTARM": "Xanomeline Low Dose",
    "COUNTRY": "USA",
    "ETHNIC": "NOT HISPANIC OR LATINO"
  },
  {
    "STUDYID": "CDISCPILOT01",
    "DOMAIN": "DM",
    "USUBJID": "01-715-001",
    "SUBJID": "001",
    "SITEID": "715",
    "RFSTDTC": "2013-08-01",
    "RFXSTDTC": "2013-08-01",
    "AGE": 70,
    "AGEU": "YEARS",
    "SEX": "F",
    "RACE": "WHITE",
    "ARMCD": "Xan_Hi",
    "ARM": "Xanomeline High Dose",
    "ACTARMCD": "Xan_Hi",
    "ACTARM": "Xanomeline High Dose",
    "COUNTRY": "USA",
    "ETHNIC": "NOT HISPANIC OR LATINO"
  },
  {
    "STUDYID": "CDISCPILOT01",
    "DOMAIN": "DM",
    "USUBJID": "01-715-002",
    "SUBJID": "002",
    "SITEID": "715",
    "RFSTDTC": "2013-05-30",
    "RFXSTDTC": "2013-05-30",
    "AGE": 59,
    "AGEU": "YEARS",
    "SEX": "F",
    "RACE": "BLACK OR AFRICAN AMERICAN",
    "ARMCD": "Xan_Hi",
    "ARM": "Xanomeline High Dose",
    "ACTARMCD": "Xan_Hi",
    "ACTARM": "Xanomeline High Dose",
    "COUNTRY": "USA",
    "ETHNIC": "NOT HISPANIC OR LATINO"
  },
  {
    "STUDYID": "CDISCPILOT01",
    "DOMAIN": "DM",
    "USUBJID": "01-715-003",
    "SUBJID": "003",
    "SITEID": "715",
    "RFSTDTC": "2013-10-16",
    "RFXSTDTC": "2013-10-16",
    "AGE": 68,
    "AGEU": "YEARS",
    "SEX": "M",
    "RACE": "HISPANIC OR LATINO",
    "ARMCD": "Pbo",
    "ARM": "Placebo",
    "ACTARMCD": "Pbo",
    "ACTARM": "Placebo",
    "COUNTRY": "USA",
    "ETHNIC": "NOT HISPANIC OR LATINO"
  },
  {
    "STUDYID": "CDISCPILOT01",
    "DOMAIN": "DM",
    "USUBJID": "01-715-004",
    "SUBJID": "004",
    "SITEID": "715",
    "RFSTDTC": "2013-10-21",
    "RFXSTDTC": "2013-10-21",
    "AGE": 76,
    "AGEU": "YEARS",
    "SEX": "F",
    "RACE": "WHITE",
    "ARMCD": "Pbo",
    "ARM": "Placebo",
    "ACTARMCD": "Pbo",
    "ACTARM": "Placebo",
    "COUNTRY": "USA",
    "ETHNIC": "NOT HISPANIC OR LATINO"
  },
  {
    "STUDYID": "CDISCPILOT01",
    "DOMAIN": "DM",
    "USUBJID": "01-715-005",
    "SUBJID": "005",
    "SITEID": "715",
    "RFSTDTC": "2013-12-08",
    "RFXSTDTC": "2013-12-08",
    "AGE": 66,
    "AGEU": "YEARS",
    "SEX": "F",
    "RACE": "WHITE",
    "ARMCD": "Pbo",
    "ARM": "Placebo",
    "ACTARMCD": "Pbo",
    "ACTARM": "Placebo",
    "COUNTRY": "USA",
    "ETHNIC": "NOT HISPANIC OR LATINO"
  },
  {
    "STUDYID": "CDISCPILOT01",
    "DOMAIN": "DM",
    "USUBJID": "01-715-006",
    "SUBJID": "006",
    "SITEID": "715",
    "RFSTDTC": "2013-02-08",
    "RFXSTDTC": "2013-02-08",
    "AGE": 79,
    "AGEU": "YEARS",
    "SEX": "F",
    "RACE": "WHITE",
    "ARMCD": "Xan_Lo",
    "ARM": "Xanomeline Low Dose",
    "ACTARMCD": "Xan_Lo",
    "ACTARM": "Xanomeline Low Dose",
    "COUNTRY": "USA",
    "ETHNIC": "NOT HISPANIC OR LATINO"
  },
  {
    "STUDYID": "CDISCPILOT01",
    "DOMAIN": "DM",
    "USUBJID": "01-715-007",
    "SUBJID": "007",
    "SITEID": "715",
    "RFSTDTC": "2013-11-07",
    "RFXSTDTC": "2013-11-07",
    "AGE": 62,
    "AGEU": "YEARS",
    "SEX": "F",
    "RACE": "WHITE",
    "ARMCD": "Pbo",
    "ARM": "Placebo",
    "ACTARMCD": "Pbo",
    "ACTARM": "Placebo",
    "COUNTRY": "USA",
    "ETHNIC": "NOT HISPANIC OR LATINO"
  },
  {
    "STUDYID": "CDISCPILOT01",
    "DOMAIN": "DM",
    "USUBJID": "01-716-001",
    "SUBJID": "001",
    "SITEID": "716",
    "RFSTDTC": "2013-05-19",
    "RFXSTDTC": "2013-05-19",
    "AGE": 76,
    "AGEU": "YEARS",
    "SEX": "M",
    "RACE": "BLACK OR AFRICAN AMERICAN",
    "ARMCD": "Xan_Lo",
    "ARM": "Xanomeline Low Dose",
    "ACTARMCD": "Xan_Lo",
    "ACTARM": "Xanomeline Low Dose",
    "COUNTRY": "USA",
    "ETHNIC": "NOT HISPANIC OR LATINO"
  },
  {
    "STUDYID": "CDISCPILOT01",
    "DOMAIN": "DM",
    "USUBJID": "01-716-002",
    "SUBJID": "002",
    "SITEID": "716",
    "RFSTDTC": "2013-08-27",
    "RFXSTDTC": "2013-08-27",
    "AGE": 62,
    "AGEU": "YEARS",
    "SEX": "F",
    "RACE": "WHITE",
    "ARMCD": "Xan_Lo",
    "ARM": "Xanomeline Low Dose",
    "ACTARMCD": "Xan_Lo",
    "ACTARM": "Xanomeline Low Dose",
    "COUNTRY": "USA",
    "ETHNIC": "NOT HISPANIC OR LATINO"
  },
  {
    "STUDYID": "CDISCPILOT01",
    "DOMAIN": "DM",
    "USUBJID": "01-716-003",
    "SUBJID": "003",
    "SITEID": "716",
    "RFSTDTC": "2013-11-13",
    "RFXSTDTC": "2013-11-13",
    "AGE": 76,
    "AGEU": "YEARS",
    "SEX": "F",
    "RACE": "WHITE",
    "ARMCD": "Pbo",
    "ARM": "Placebo",
    "ACTARMCD": "Pbo",
    "ACTARM": "Placebo",
    "COUNTRY": "USA",
    "ETHNIC": "NOT HISPANIC OR LATINO"
  },
  {
    "STUDYID": "CDISCPILOT01",
    "DOMAIN": "DM",
    "USUBJID": "01-716-004",
    "SUBJID": "004",
    "SITEID": "716",
    "RFSTDTC": "2013-09-08",
    "RFXSTDTC": "2013-09-08",
    "AGE": 70,
    "AGEU": "YEARS",
    "SEX": "F",
    "RACE": "WHITE",
    "ARMCD": "Xan_Hi",
    "ARM": "Xanomeline High Dose",
    "ACTARMCD": "Xan_Hi",
    "ACTARM": "Xanomeline High Dose",
    "COUNTRY": "USA",
    "ETHNIC": "NOT HISPANIC OR LATINO"
  },
  {
    "STUDYID": "CDISCPILOT01",
    "DOMAIN": "DM",
    "USUBJID": "01-716-005",
    "SUBJID": "005",
    "SITEID": "716",
    "RFSTDTC": "2013-08-31",
    "RFXSTDTC": "2013-08-31",
    "AGE": 81,
    "AGEU": "YEARS",
    "SEX": "M",
    "RACE": "WHITE",
    "ARMCD": "Xan_Hi",
    "ARM": "Xanomeline High Dose",
    "ACTARMCD": "Xan_Hi",
    "ACTARM": "Xanomeline High Dose",
    "COUNTRY": "USA",
    "ETHNIC": "NOT HISPANIC OR LATINO"
  },
  {
    "STUDYID": "CDISCPILOT01",
    "DOMAIN": "DM",
    "USUBJID": "01-716-006",
    "SUBJID": "006",
    "SITEID": "716",
    "RFSTDTC": "2013-11-10",
    "RFXSTDTC": "2013-11-10",
    "AGE": 76,
    "AGEU": "YEARS",
    "SEX": "F",
    "RACE": "WHITE",
    "ARMCD": "Xan_Hi",
    "ARM": "Xanomeline High Dose",
    "ACTARMCD": "Xan_Hi",
    "ACTARM": "Xanomeline High Dose",
    "COUNTRY": "USA",
    "ETHNIC": "NOT HISPANIC OR LATINO"
  },
  {
    "STUDYID": "CDISCPILOT01",
    "DOMAIN": "DM",
    "USUBJID": "01-716-007",
    "SUBJID": "007",
    "SITEID": "716",
    "RFSTDTC": "2013-03-18",
    "RFXSTDTC": "2013-03-18",
    "AGE": 84,
    "AGEU": "YEARS",
    "SEX": "F",
    "RACE": "WHITE",
    "ARMCD": "Pbo",
    "ARM": "Placebo",
    "ACTARMCD": "Pbo",
    "ACTARM": "Placebo",
    "COUNTRY": "USA",
    "ETHNIC": "NOT HISPANIC OR LATINO"
  },
  {
    "STUDYID": "CDISCPILOT01",
    "DOMAIN": "DM",
    "USUBJID": "01-716-008",
    "SUBJID": "008",
    "SITEID": "716",
    "RFSTDTC": "2013-04-22",
    "RFXSTDTC": "2013-04-22",
    "AGE": 78,
    "AGEU": "YEARS",
    "SEX": "F",
    "RACE": "WHITE",
    "ARMCD": "Xan_Hi",
    "ARM": "Xanomeline High Dose",
    "ACTARMCD": "Xan_Hi",
    "ACTARM": "Xanomeline High Dose",
    "COUNTRY": "USA",
    "ETHNIC": "NOT HISPANIC OR LATINO"
  },
  {
    "STUDYID": "CDISCPILOT01",
    "DOMAIN": "DM",
    "USUBJID": "01-716-009",
    "SUBJID": "009",
    "SITEID": "716",
    "RFSTDTC": "2013-09-23",
    "RFXSTDTC": "2013-09-23",
    "AGE": 78,
    "AGEU": "YEARS",
    "SEX": "M",
    "RACE": "WHITE",
    "ARMCD": "Xan_Hi",
    "ARM": "Xanomeline High Dose",
    "ACTARMCD": "Xan_Hi",
    "ACTARM": "Xanomeline High Dose",
    "COUNTRY": "USA",
    "ETHNIC": "NOT HISPANIC OR LATINO"
  },
  {
    "STUDYID": "CDISCPILOT01",
    "DOMAIN": "DM",
    "USUBJID": "01-716-010",
    "SUBJID": "010",
    "SITEID": "716",
    "RFSTDTC": "2013-12-28",
    "RFXSTDTC": "2013-12-28",
    "AGE": 87,
    "AGEU": "YEARS",
    "SEX": "F",
    "RACE": "BLACK OR AFRICAN AMERICAN",
    "ARMCD": "Xan_Hi",
    "ARM": "Xanomeline High Dose",
    "ACTARMCD": "Xan_Hi",
    "ACTARM": "Xanomeline High Dose",
    "COUNTRY": "USA",
    "ETHNIC": "NOT HISPANIC OR LATINO"
  },
  {
    "STUDYID": "CDISCPILOT01",
    "DOMAIN": "DM",
    "USUBJID": "01-716-011",
    "SUBJID": "011",
    "SITEID": "716",
    "RFSTDTC": "2013-12-30",
    "RFXSTDTC": "2013-12-30",
    "AGE": 76,
    "AGEU": "YEARS",
    "SEX": "M",
    "RACE": "WHITE",
    "ARMCD": "Xan_Hi",
    "ARM": "Xanomeline High Dose",
    "ACTARMCD": "Xan_Hi",
    "ACTARM": "Xanomeline High Dose",
    "COUNTRY": "USA",
    "ETHNIC": "NOT HISPANIC OR LATINO"
  },
  {
    "STUDYID": "CDISCPILOT01",
    "DOMAIN": "DM",
    "USUBJID": "01-716-012",
    "SUBJID": "012",
    "SITEID": "716",
    "RFSTDTC": "2013-11-21",
    "RFXSTDTC": "2013-11-21",
    "AGE": 64,
    "AGEU": "YEARS",
    "SEX": "F",
    "RACE": "OTHER",
    "ARMCD": "Pbo",
    "ARM": "Placebo",
    "ACTARMCD": "Pbo",
    "ACTARM": "Placebo",
    "COUNTRY": "USA",
    "ETHNIC": "NOT HISPANIC OR LATINO"
  },
  {
    "STUDYID": "CDISCPILOT01",
    "DOMAIN": "DM",
    "USUBJID": "01-716-013",
    "SUBJID": "013",
    "SITEID": "716",
    "RFSTDTC": "2013-11-19",
    "RFXSTDTC": "2013-11-19",
    "AGE": 73,
    "AGEU": "YEARS",
    "SEX": "F",
    "RACE": "WHITE",
    "ARMCD": "Xan_Lo",
    "ARM": "Xanomeline Low Dose",
    "ACTARMCD": "Xan_Lo",
    "ACTARM": "Xanomeline Low Dose",
    "COUNTRY": "USA",
    "ETHNIC": "NOT HISPANIC OR LATINO"
  },
  {
    "STUDYID": "CDISCPILOT01",
    "DOMAIN": "DM",
    "USUBJID": "01-716-014",
    "SUBJID": "014",
    "SITEID": "716",
    "RFSTDTC": "2013-12-26",
    "RFXSTDTC": "2013-12-26",
    "AGE": 69,
    "AGEU": "YEARS",
    "SEX": "F",
    "RACE": "WHITE",
    "ARMCD": "Xan_Hi",
    "ARM": "Xanomeline High Dose",
    "ACTARMCD": "Xan_Hi",
    "ACTARM": "Xanomeline High Dose",
    "COUNTRY": "USA",
    "ETHNIC": "NOT HISPANIC OR LATINO"
  },
  {
    "STUDYID": "CDISCPILOT01",
    "DOMAIN": "DM",
    "USUBJID": "01-716-015",
    "SUBJID": "015",
    "SITEID": "716",
    "RFSTDTC": "2013-02-12",
    "RFXSTDTC": "2013-02-12",
    "AGE": 77,
    "AGEU": "YEARS",
    "SEX": "F",
    "RACE": "WHITE",
    "ARMCD": "Xan_Hi",
    "ARM": "Xanomeline High Dose",
    "ACTARMCD": "Xan_Hi",
    "ACTARM": "Xanomeline High Dose",
    "COUNTRY": "USA",
    "ETHNIC": "NOT HISPANIC OR LATINO"
  },
  {
    "STUDYID": "CDISCPILOT01",
    "DOMAIN": "DM",
    "USUBJID": "01-716-016",
    "SUBJID": "016",
    "SITEID": "716",
    "RFSTDTC": "2013-07-24",
    "RFXSTDTC": "2013-07-24",
    "AGE": 74,
    "AGEU": "YEARS",
    "SEX": "F",
    "RACE": "WHITE",
    "ARMCD": "Xan_Hi",
    "ARM": "Xanomeline High Dose",
    "ACTARMCD": "Xan_Hi",
    "ACTARM": "Xanomeline High Dose",
    "COUNTRY": "USA",
    "ETHNIC": "NOT HISPANIC OR LATINO"
  },
  {
    "STUDYID": "CDISCPILOT01",
    "DOMAIN": "DM",
    "USUBJID": "01-716-017",
    "SUBJID": "017",
    "SITEID": "716",
    "RFSTDTC": "2013-02-11",
    "RFXSTDTC": "2013-02-11",
    "AGE": 61,
    "AGEU": "YEARS",
    "SEX": "M",
    "RACE": "WHITE",
    "ARMCD": "Xan_Lo",
    "ARM": "Xanomeline Low Dose",
    "ACTARMCD": "Xan_Lo",
    "ACTARM": "Xanomeline Low Dose",
    "COUNTRY": "USA",
    "ETHNIC": "NOT HISPANIC OR LATINO"
  },
  {
    "STUDYID": "CDISCPILOT01",
    "DOMAIN": "DM",
    "USUBJID": "01-716-018",
    "SUBJID": "018",
    "SITEID": "716",
    "RFSTDTC": "2013-11-26",
    "RFXSTDTC": "2013-11-26",
    "AGE": 66,
    "AGEU": "YEARS",
    "SEX": "M",
    "RACE": "WHITE",
    "ARMCD": "Xan_Lo",
    "ARM": "Xanomeline Low Dose",
    "ACTARMCD": "Xan_Lo",
    "ACTARM": "Xanomeline Low Dose",
    "COUNTRY": "USA",
    "ETHNIC": "NOT HISPANIC OR LATINO"
  },
  {
    "STUDYID": "CDISCPILOT01",
    "DOMAIN": "DM",
    "USUBJID": "01-716-019",
    "SUBJID": "019",
    "SITEID": "716",
    "RFSTDTC": "2013-07-14",
    "RFXSTDTC": "2013-07-14",
    "AGE": 75,
    "AGEU": "YEARS",
    "SEX": "M",
    "RACE": "WHITE",
    "ARMCD": "Pbo",
    "ARM": "Placebo",
    "ACTARMCD": "Pbo",
    "ACTARM": "Placebo",
    "COUNTRY": "USA",
    "ETHNIC": "NOT HISPANIC OR LATINO"
  },
  {
    "STUDYID": "CDISCPILOT01",
    "DOMAIN": "DM",
    "USUBJID": "01-716-020",
    "SUBJID": "020",
    "SITEID": "716",
    "RFSTDTC": "2013-09-08",
    "RFXSTDTC": "2013-09-08",
    "AGE": 80,
    "AGEU": "YEARS",
    "SEX": "F",
    "RACE": "WHITE",
    "ARMCD": "Pbo",
    "ARM": "Placebo",
    "ACTARMCD": "Pbo",
    "ACTARM": "Placebo",
    "COUNTRY": "USA",
    "ETHNIC": "NOT HISPANIC OR LATINO"
  },
  {
    "STUDYID": "CDISCPILOT01",
    "DOMAIN": "DM",
    "USUBJID": "01-716-021",
    "SUBJID": "021",
    "SITEID": "716",
    "RFSTDTC": "2013-11-08",
    "RFXSTDTC": "2013-11-08",
    "AGE": 70,
    "AGEU": "YEARS",
    "SEX": "F",
    "RACE": "WHITE",
    "ARMCD": "Pbo",
    "ARM": "Placebo",
    "ACTARMCD": "Pbo",
    "ACTARM": "Placebo",
    "COUNTRY": "USA",
    "ETHNIC": "NOT HISPANIC OR LATINO"
  },
  {
    "STUDYID": "CDISCPILOT01",
    "DOMAIN": "DM",
    "USUBJID": "01-716-022",
    "SUBJID": "022",
    "SITEID": "716",
    "RFSTDTC": "2013-08-08",
    "RFXSTDTC": "2013-08-08",
    "AGE": 83,
    "AGEU": "YEARS",
    "SEX": "F",
    "RACE": "WHITE",
    "ARMCD": "Xan_Lo",
    "ARM": "Xanomeline Low Dose",
    "ACTARMCD": "Xan_Lo",
    "ACTARM": "Xanomeline Low Dose",
    "COUNTRY": "USA",
    "ETHNIC": "NOT HISPANIC OR LATINO"
  },
  {
    "STUDYID": "CDISCPILOT01",
    "DOMAIN": "DM",
    "USUBJID": "01-716-023",
    "SUBJID": "023",
    "SITEID": "716",
    "RFSTDTC": "2013-07-18",
    "RFXSTDTC": "2013-07-18",
    "AGE": 68,
    "AGEU": "YEARS",
    "SEX": "M",
    "RACE": "WHITE",
    "ARMCD": "Pbo",
    "ARM": "Placebo",
    "ACTARMCD": "Pbo",
    "ACTARM": "Placebo",
    "COUNTRY": "USA",
    "ETHNIC": "HISPANIC OR LATINO"
  },
  {
    "STUDYID": "CDISCPILOT01",
    "DOMAIN": "DM",
    "USUBJID": "01-716-024",
    "SUBJID": "024",
    "SITEID": "716",
    "RFSTDTC": "2013-01-10",
    "RFXSTDTC": "2013-01-10",
    "AGE": 70,
    "AGEU": "YEARS",
    "SEX": "M",
    "RACE": "WHITE",
    "ARMCD": "Xan_Lo",
    "ARM": "Xanomeline Low Dose",
    "ACTARMCD": "Xan_Lo",
    "ACTARM": "Xanomeline Low Dose",
    "COUNTRY": "USA",
    "ETHNIC": "NOT HISPANIC OR LATINO"
  },
  {
    "STUDYID": "CDISCPILOT01",
    "DOMAIN": "DM",
    "USUBJID": "01-716-025",
    "SUBJID": "025",
    "SITEID": "716",
    "RFSTDTC": "2013-02-26",
    "RFXSTDTC": "2013-02-26",
    "AGE": 77,
    "AGEU": "YEARS",
    "SEX": "F",
    "RACE": "WHITE",
    "ARMCD": "Xan_Hi",
    "ARM": "Xanomeline High Dose",
    "ACTARMCD": "Xan_Hi",
    "ACTARM": "Xanomeline High Dose",
    "COUNTRY": "USA",
    "ETHNIC": "NOT HISPANIC OR LATINO"
  },
  {
    "STUDYID": "CDISCPILOT01",
    "DOMAIN": "DM",
    "USUBJID": "01-716-026",
    "SUBJID": "026",
    "SITEID": "716",
    "RFSTDTC": "2013-08-02",
    "RFXSTDTC": "2013-08-02",
    "AGE": 69,
    "AGEU": "YEARS",
    "SEX": "M",
    "RACE": "WHITE",
    "ARMCD": "Xan_Lo",
    "ARM": "Xanomeline Low Dose",
    "ACTARMCD": "Xan_Lo",
    "ACTARM": "Xanomeline Low Dose",
    "COUNTRY": "USA",
    "ETHNIC": "NOT HISPANIC OR LATINO"
  },
  {
    "STUDYID": "CDISCPILOT01",
    "DOMAIN": "DM",
    "USUBJID": "01-716-027",
    "SUBJID": "027",
    "SITEID": "716",
    "RFSTDTC": "2013-03-17",
    "RFXSTDTC": "2013-03-17",
    "AGE": 72,
    "AGEU": "YEARS",
    "SEX": "F",
    "RACE": "WHITE",
    "ARMCD": "Xan_Hi",
    "ARM": "Xanomeline High Dose",
    "ACTARMCD": "Xan_Hi",
    "ACTARM": "Xanomeline High Dose",
    "COUNTRY": "USA",
    "ETHNIC": "NOT HISPANIC OR LATINO"
  },
  {
    "STUDYID": "CDISCPILOT01",
    "DOMAIN": "DM",
    "USUBJID": "01-717-001",
    "SUBJID": "001",
    "SITEID": "717",
    "RFSTDTC": "2013-11-02",
    "RFXSTDTC": "2013-11-02",
    "AGE": 89,
    "AGEU": "YEARS",
    "SEX": "M",
    "RACE": "WHITE",
    "ARMCD": "Xan_Hi",
    "ARM": "Xanomeline High Dose",
    "ACTARMCD": "Xan_Hi",
    "ACTARM": "Xanomeline High Dose",
    "COUNTRY": "USA",
    "ETHNIC": "NOT HISPANIC OR LATINO"
  },
  {
    "STUDYID": "CDISCPILOT01",
    "DOMAIN": "DM",
    "USUBJID": "01-717-002",
    "SUBJID": "002",
    "SITEID": "717",
    "RFSTDTC": "2013-04-09",
    "RFXSTDTC": "2013-04-09",
    "AGE": 74,
    "AGEU": "YEARS",
    "SEX": "M",
    "RACE": "WHITE",
    "ARMCD": "Xan_Hi",
    "ARM": "Xanomeline High Dose",
    "ACTARMCD": "Xan_Hi",
    "ACTARM": "Xanomeline High Dose",
    "COUNTRY": "USA",
    "ETHNIC": "NOT HISPANIC OR LATINO"
  },
  {
    "STUDYID": "CDISCPILOT01",
    "DOMAIN": "DM",
    "USUBJID": "01-717-003",
    "SUBJID": "003",
    "SITEID": "717",
    "RFSTDTC": "2013-01-17",
    "RFXSTDTC": "2013-01-17",
    "AGE": 66,
    "AGEU": "YEARS",
    "SEX": "F",
    "RACE": "WHITE",
    "ARMCD": "Pbo",
    "ARM": "Placebo",
    "ACTARMCD": "Pbo",
    "ACTARM": "Placebo",
    "COUNTRY": "USA",
    "ETHNIC": "NOT HISPANIC OR LATINO"
  },
  {
    "STUDYID": "CDISCPILOT01",
    "DOMAIN": "DM",
    "USUBJID": "01-718-001",
    "SUBJID": "001",
    "SITEID": "718",
    "RFSTDTC": "2013-06-05",
    "RFXSTDTC": "2013-06-05",
    "AGE": 82,
    "AGEU": "YEARS",
    "SEX": "M",
    "RACE": "WHITE",
    "ARMCD": "Xan_Hi",
    "ARM": "Xanomeline High Dose",
    "ACTARMCD": "Xan_Hi",
    "ACTARM": "Xanomeline High Dose",
    "COUNTRY": "USA",
    "ETHNIC": "NOT HISPANIC OR LATINO"
  },
  {
    "STUDYID": "CDISCPILOT01",
    "DOMAIN": "DM",
    "USUBJID": "01-718-002",
    "SUBJID": "002",
    "SITEID": "718",
    "RFSTDTC": "2013-05-08",
    "RFXSTDTC": "2013-05-08",
    "AGE": 73,
    "AGEU": "YEARS",
    "SEX": "F",
    "RACE": "WHITE",
    "ARMCD": "Pbo",
    "ARM": "Placebo",
    "ACTARMCD": "Pbo",
    "ACTARM": "Placebo",
    "COUNTRY": "USA",
    "ETHNIC": "NOT HISPANIC OR LATINO"
  },
  {
    "STUDYID": "CDISCPILOT01",
    "DOMAIN": "DM",
    "USUBJID": "01-718-003",
    "SUBJID": "003",
    "SITEID": "718",
    "RFSTDTC": "2013-05-15",
    "RFXSTDTC": "2013-05-15",
    "AGE": 85,
    "AGEU": "YEARS",
    "SEX": "M",
    "RACE": "BLACK OR AFRICAN AMERICAN",
    "ARMCD": "Xan_Lo",
    "ARM": "Xanomeline Low Dose",
    "ACTARMCD": "Xan_Lo",
    "ACTARM": "Xanomeline Low Dose",
    "COUNTRY": "USA",
    "ETHNIC": "NOT HISPANIC OR LATINO"
  },
  {
    "STUDYID": "CDISCPILOT01",
    "DOMAIN": "DM",
    "USUBJID": "01-718-004",
    "SUBJID": "004",
    "SITEID": "718",
    "RFSTDTC": "2013-12-27",
    "RFXSTDTC": "2013-12-27",
    "AGE": 79,
    "AGEU": "YEARS",
    "SEX": "F",
    "RACE": "WHITE",
    "ARMCD": "Xan_Hi",
    "ARM": "Xanomeline High Dose",
    "ACTARMCD": "Xan_Hi",
    "ACTARM": "Xanomeline High Dose",
    "COUNTRY": "USA",
    "ETHNIC": "NOT HISPANIC OR LATINO"
  },
  {
    "STUDYID": "CDISCPILOT01",
    "DOMAIN": "DM",
    "USUBJID": "01-718-005",
    "SUBJID": "005",
    "SITEID": "718",
    "RFSTDTC": "2013-06-09",
    "RFXSTDTC": "2013-06-09",
    "AGE": 82,
    "AGEU": "YEARS",
    "SEX": "F",
    "RACE": "WHITE",
    "ARMCD": "Xan_Lo",
    "ARM": "Xanomeline Low Dose",
    "ACTARMCD": "Xan_Lo",
    "ACTARM": "Xanomeline Low Dose",
    "COUNTRY": "USA",
    "ETHNIC": "NOT HISPANIC OR LATINO"
  },
  {
    "STUDYID": "CDISCPILOT01",
    "DOMAIN": "DM",
    "USUBJID": "01-718-006",
    "SUBJID": "006",
    "SITEID": "718",
    "RFSTDTC": "2013-05-31",
    "RFXSTDTC": "2013-05-31",
    "AGE": 72,
    "AGEU": "YEARS",
    "SEX": "F",
    "RACE": "WHITE",
    "ARMCD": "Xan_Hi",
    "ARM": "Xanomeline High Dose",
    "ACTARMCD": "Xan_Hi",
    "ACTARM": "Xanomeline High Dose",
    "COUNTRY": "USA",
    "ETHNIC": "NOT HISPANIC OR LATINO"
  },
  {
    "STUDYID": "CDISCPILOT01",
    "DOMAIN": "DM",
    "USUBJID": "01-718-007",
    "SUBJID": "007",
    "SITEID": "718",
    "RFSTDTC": "2013-09-22",
    "RFXSTDTC": "2013-09-22",
    "AGE": 63,
    "AGEU": "YEARS",
    "SEX": "M",
    "RACE": "WHITE",
    "ARMCD": "Xan_Hi",
    "ARM": "Xanomeline High Dose",
    "ACTARMCD": "Xan_Hi",
    "ACTARM": "Xanomeline High Dose",
    "COUNTRY": "USA",
    "ETHNIC": "NOT HISPANIC OR LATINO"
  },
  {
    "STUDYID": "CDISCPILOT01",
    "DOMAIN": "DM",
    "USUBJID": "01-718-008",
    "SUBJID": "008",
    "SITEID": "718",
    "RFSTDTC": "2013-09-16",
    "RFXSTDTC": "2013-09-16",
    "AGE": 80,
    "AGEU": "YEARS",
    "SEX": "F",
    "RACE": "WHITE",
    "ARMCD": "Xan_Lo",
    "ARM": "Xanomeline Low Dose",
    "ACTARMCD": "Xan_Lo",
    "ACTARM": "Xanomeline Low Dose",
    "COUNTRY": "USA",
    "ETHNIC": "NOT HISPANIC OR LATINO"
  },
  {
    "STUDYID": "CDISCPILOT01",
    "DOMAIN": "DM",
    "USUBJID": "01-718-009",
    "SUBJID": "009",
    "SITEID": "718",
    "RFSTDTC": "2013-03-13",
    "RFXSTDTC": "2013-03-13",
    "AGE": 69,
    "AGEU": "YEARS",
    "SEX": "M",
    "RACE": "WHITE",
    "ARMCD": "Pbo",
    "ARM": "Placebo",
    "ACTARMCD": "Pbo",
    "ACTARM": "Placebo",
    "COUNTRY": "USA",
    "ETHNIC": "NOT HISPANIC OR LATINO"
  },
  {
    "STUDYID": "CDISCPILOT01",
    "DOMAIN": "DM",
    "USUBJID": "01-718-010",
    "SUBJID": "010",
    "SITEID": "718",
    "RFSTDTC": "2013-03-11",
    "RFXSTDTC": "2013-03-11",
    "AGE": 85,
    "AGEU": "YEARS",
    "SEX": "M",
    "RACE": "WHITE",
    "ARMCD": "Pbo",
    "ARM": "Placebo",
    "ACTARMCD": "Pbo",
    "ACTARM": "Placebo",
    "COUNTRY": "USA",
    "ETHNIC": "NOT HISPANIC OR LATINO"
  },
  {
    "STUDYID": "CDISCPILOT01",
    "DOMAIN": "DM",
    "USUBJID": "01-718-011",
    "SUBJID": "011",
    "SITEID": "718",
    "RFSTDTC": "2013-11-21",
    "RFXSTDTC": "2013-11-21",
    "AGE": 72,
    "AGEU": "YEARS",
    "SEX": "F",
    "RACE": "WHITE",
    "ARMCD": "Xan_Hi",
    "ARM": "Xanomeline High Dose",
    "ACTARMCD": "Xan_Hi",
    "ACTARM": "Xanomeline High Dose",
    "COUNTRY": "USA",
    "ETHNIC": "NOT HISPANIC OR LATINO"
  },
  {
    "STUDYID": "CDISCPILOT01",
    "DOMAIN": "DM",
    "USUBJID": "01-718-012",
    "SUBJID": "012",
    "SITEID": "718",
    "RFSTDTC": "2013-11-26",
    "RFXSTDTC": "2013-11-26",
    "AGE": 63,
    "AGEU": "YEARS",
    "SEX": "F",
    "RACE": "WHITE",
    "ARMCD": "Pbo",
    "ARM": "Placebo",
    "ACTARMCD": "Pbo",
    "ACTARM": "Placebo",
    "COUNTRY": "USA",
    "ETHNIC": "NOT HISPANIC OR LATINO"
  },
  {
    "STUDYID": "CDISCPILOT01",
    "DOMAIN": "DM",
    "USUBJID": "01-718-013",
    "SUBJID": "013",
    "SITEID": "718",
    "RFSTDTC": "2013-05-24",
    "RFXSTDTC": "2013-05-24",
    "AGE": 74,
    "AGEU": "YEARS",
    "SEX": "M",
    "RACE": "WHITE",
    "ARMCD": "Xan_Lo",
    "ARM": "Xanomeline Low Dose",
    "ACTARMCD": "Xan_Lo",
    "ACTARM": "Xanomeline Low Dose",
    "COUNTRY": "USA",
    "ETHNIC": "NOT HISPANIC OR LATINO"
  },
  {
    "STUDYID": "CDISCPILOT01",
    "DOMAIN": "DM",
    "USUBJID": "01-718-014",
    "SUBJID": "014",
    "SITEID": "718",
    "RFSTDTC": "2013-07-05",
    "RFXSTDTC": "2013-07-05",
    "AGE": 75,
    "AGEU": "YEARS",
    "SEX": "M",
    "RACE": "WHITE",
    "ARMCD": "Xan_Lo",
    "ARM": "Xanomeline Low Dose",
    "ACTARMCD": "Xan_Lo",
    "ACTARM": "Xanomeline Low Dose",
    "COUNTRY": "USA",
    "ETHNIC": "NOT HISPANIC OR LATINO"
  },
  {
    "STUDYID": "CDISCPILOT01",
    "DOMAIN": "DM",
    "USUBJID": "01-718-015",
    "SUBJID": "015",
    "SITEID": "718",
    "RFSTDTC": "2013-03-12",
    "RFXSTDTC": "2013-03-12",
    "AGE": 71,
    "AGEU": "YEARS",
    "SEX": "M",
    "RACE": "HISPANIC OR LATINO",
    "ARMCD": "Xan_Lo",
    "ARM": "Xanomeline Low Dose",
    "ACTARMCD": "Xan_Lo",
    "ACTARM": "Xanomeline Low Dose",
    "COUNTRY": "USA",
    "ETHNIC": "NOT HISPANIC OR LATINO"
  },
  {
    "STUDYID": "CDISCPILOT01",
    "DOMAIN": "DM",
    "USUBJID": "01-718-016",
    "SUBJID": "016",
    "SITEID": "718",
    "RFSTDTC": "2013-03-03",
    "RFXSTDTC": "2013-03-03",
    "AGE": 69,
    "AGEU": "YEARS",
    "SEX": "F",
    "RACE": "BLACK OR AFRICAN AMERICAN",
    "ARMCD": "Xan_Hi",
    "ARM": "Xanomeline High Dose",
    "ACTARMCD": "Xan_Hi",
    "ACTARM": "Xanomeline High Dose",
    "COUNTRY": "USA",
    "ETHNIC": "NOT HISPANIC OR LATINO"
  },
  {
    "STUDYID": "CDISCPILOT01",
    "DOMAIN": "DM",
    "USUBJID": "01-718-017",
    "SUBJID": "017",
    "SITEID": "718",
    "RFSTDTC": "2013-03-28",
    "RFXSTDTC": "2013-03-28",
    "AGE": 67,
    "AGEU": "YEARS",
    "SEX": "F",
    "RACE": "WHITE",
    "ARMCD": "Pbo",
    "ARM": "Placebo",
    "ACTARMCD": "Pbo",
    "ACTARM": "Placebo",
    "COUNTRY": "USA",
    "ETHNIC": "NOT HISPANIC OR LATINO"
  },
  {
    "STUDYID": "CDISCPILOT01",
    "DOMAIN": "DM",
    "USUBJID": "01-718-018",
    "SUBJID": "018",
    "SITEID": "718",
    "RFSTDTC": "2013-10-06",
    "RFXSTDTC": "2013-10-06",
    "AGE": 88,
    "AGEU": "YEARS",
    "SEX": "F",
    "RACE": "BLACK OR AFRICAN AMERICAN",
    "ARMCD": "Pbo",
    "ARM": "Placebo",
    "ACTARMCD": "Pbo",
    "ACTARM": "Placebo",
    "COUNTRY": "USA",
    "ETHNIC": "HISPANIC OR LATINO"
  },
  {
    "STUDYID": "CDISCPILOT01",
    "DOMAIN": "DM",
    "USUBJID": "01-718-019",
    "SUBJID": "019",
    "SITEID": "718",
    "RFSTDTC": "2013-05-25",
    "RFXSTDTC": "2013-05-25",
    "AGE": 75,
    "AGEU": "YEARS",
    "SEX": "F",
    "RACE": "WHITE",
    "ARMCD": "Xan_Lo",
    "ARM": "Xanomeline Low Dose",
    "ACTARMCD": "Xan_Lo",
    "ACTARM": "Xanomeline Low Dose",
    "COUNTRY": "USA",
    "ETHNIC": "NOT HISPANIC OR LATINO"
  },
  {
    "STUDYID": "CDISCPILOT01",
    "DOMAIN": "DM",
    "USUBJID": "01-718-020",
    "SUBJID": "020",
    "SITEID": "718",
    "RFSTDTC": "2013-02-06",
    "RFXSTDTC": "2013-02-06",
    "AGE": 79,
    "AGEU": "YEARS",
    "SEX": "F",
    "RACE": "WHITE",
    "ARMCD": "Xan_Hi",
    "ARM": "Xanomeline High Dose",
    "ACTARMCD": "Xan_Hi",
    "ACTARM": "Xanomeline High Dose",
    "COUNTRY": "USA",
    "ETHNIC": "NOT HISPANIC OR LATINO"
  },
  {
    "STUDYID": "CDISCPILOT01",
    "DOMAIN": "DM",
    "USUBJID": "01-718-021",
    "SUBJID": "021",
    "SITEID": "718",
    "RFSTDTC": "2013-09-05",
    "RFXSTDTC": "2013-09-05",
    "AGE": 81,
    "AGEU": "YEARS",
    "SEX": "M",
    "RACE": "WHITE",
    "ARMCD": "Xan_Hi",
    "ARM": "Xanomeline High Dose",
    "ACTARMCD": "Xan_Hi",
    "ACTARM": "Xanomeline High Dose",
    "COUNTRY": "USA",
    "ETHNIC": "NOT HISPANIC OR LATINO"
  },
  {
    "STUDYID": "CDISCPILOT01",
    "DOMAIN": "DM",
    "USUBJID": "01-718-022",
    "SUBJID": "022",
    "SITEID": "718",
    "RFSTDTC": "2013-09-24",
    "RFXSTDTC": "2013-09-24",
    "AGE": 57,
    "AGEU": "YEARS",
    "SEX": "M",
    "RACE": "BLACK OR AFRICAN AMERICAN",
    "ARMCD": "Pbo",
    "ARM": "Placebo",
    "ACTARMCD": "Pbo",
    "ACTARM": "Placebo",
    "COUNTRY": "USA",
    "ETHNIC": "NOT HISPANIC OR LATINO"
  }
]
