[
  {
    "STUDYID": "CDISCPILOT01",
    "DOMAIN": "DM",
    "USUBJID": "01-701-001",
    "SUBJID": "001",
    "SITEID": "701",
    "RFSTDTC": "2013-06-18",
    "RFXSTDTC": "2013-06-18",
    "AGE": 70,
    "AGEU": "YEARS",
    "SEX": "F",
    "RACE": "WHITE",
    "ARMCD": "Xan_Lo",
    "ARM": "Xanomeline Low Dose",
    "ACTARMCD": "Xan_Lo",
    "ACTARM": "Xanomeline Low Dose",
    "COUNTRY": "USA",
    "ETHNIC": "NOT HISPANIC OR LATINO",
    ".arm": "Xanomeline Low Dose",
    ".armn": 1,
    ".mmse": 21,
    ".disease_duration": 81.8252,
    ".education": 10,
    ".weight": 74.6,
    ".height": 162.3,
    ".bmi": 28.3,
    ".randdt": "2013-06-18",
    ".rfstdtc": "2013-06-18"
  },
  {
    "STUDYID": "CDISCPILOT01",
    "DOMAIN": "DM",
    "USUBJID": "01-701-002",
    "SUBJID": "002",
    "SITEID": "701",
    "RFSTDTC": "2013-03-31",
    "RFXSTDTC": "2013-03-31",
    "AGE": 68,
    "AGEU": "YEARS",
    "SEX": "F",
    "RACE": "BLACK OR AFRICAN AMERICAN",
    "ARMCD": "Xan_Lo",
    "ARM": "Xanomeline Low Dose",
    "ACTARMCD": "Xan_Lo",
    "ACTARM": "Xanomeline Low Dose",
    "COUNTRY": "USA",
    "ETHNIC": "NOT HISPANIC OR LATINO",
    ".arm": "Xanomeline Low Dose",
    ".armn": 1,
    ".mmse": 19,
    ".disease_duration": 32.6515,
    ".education": 12,
    ".weight": 91.4,
    ".height": 156.4,
    ".bmi": 37.4,
    ".randdt": "2013-03-31",
    ".rfstdtc": "2013-03-31"
  },
  {
    "STUDYID": "CDISCPILOT01",
    "DOMAIN": "DM",
    "USUBJID": "01-701-003",
    "SUBJID": "003",
    "SITEID": "701",
    "RFSTDTC": "2013-01-01",
    "RFXSTDTC": "2013-01-01",
    "AGE": 82,
    "AGEU": "YEARS",
    "SEX": "F",
    "RACE": "WHITE",
    "ARMCD": "Pbo",
    "ARM": "Placebo",
    "ACTARMCD": "Pbo",
    "ACTARM": "Placebo",
    "COUNTRY": "USA",
    "ETHNIC": "NOT HISPANIC OR LATINO",
    ".arm": "Placebo",
    ".armn": 0,
    ".mmse": 24,
    ".disease_duration": 9.4288,
    ".education": 11,
    ".weight": 70.6,
    ".height": 152.7,
    ".bmi": 30.3,
    ".randdt": "2013-01-01",
    ".rfstdtc": "2013-01-01"
  },
  {
    "STUDYID": "CDISCPILOT01",
    "DOMAIN": "DM",
    "USUBJID": "01-701-004",
    "SUBJID": "004",
    "SITEID": "701",
    "RFSTDTC": "2013-08-24",
    "RFXSTDTC": "2013-08-24",
    "AGE": 87,
    "AGEU": "YEARS",
    "SEX": "F",
    "RACE": "HISPANIC OR LATINO",
    "ARMCD": "Xan_Hi",
    "ARM": "Xanomeline High Dose",
    "ACTARMCD": "Xan_Hi",
    "ACTARM": "Xanomeline High Dose",
    "COUNTRY": "USA",
    "ETHNIC": "NOT HISPANIC OR LATINO",
    ".arm": "Xanomeline High Dose",
    ".armn": 2,
    ".mmse": 24,
    ".disease_duration": 60.8601,
    ".education": 6,
    ".weight": 69.8,
    ".height": 171.4,
    ".bmi": 23.8,
    ".randdt": "2013-08-24",
    ".rfstdtc": "2013-08-24"
  },
  {
    "STUDYID": "CDISCPILOT01",
    "DOMAIN": "DM",
    "USUBJID": "01-701-005",
    "SUBJID": "005",
    "SITEID": "701",
    "RFSTDTC": "2013-02-07",
    "RFXSTDTC": "2013-02-07",
    "AGE": 89,
    "AGEU": "YEARS",
    "SEX": "F",
    "RACE": "WHITE",
    "ARMCD": "Pbo",
    "ARM": "Placebo",
    "ACTARMCD": "Pbo",
    "ACTARM": "Placebo",
    "COUNTRY": "USA",
    "ETHNIC": "HISPANIC OR LATINO",
    ".arm": "Placebo",
    ".armn": 0,
    ".mmse": 18,
    ".disease_duration": 97.2876,
    ".education": 10,
    ".weight": 59.3,
    ".height": 157.4,
    ".bmi": 23.9,
    ".randdt": "2013-02-07",
    ".rfstdtc": "2013-02-07"
  },
  {
    "STUDYID": "CDISCPILOT01",
    "DOMAIN": "DM",
    "USUBJID": "01-701-006",
    "SUBJID": "006",
    "SITEID": "701",
    "RFSTDTC": "2013-06-27",
    "RFXSTDTC": "2013-06-27",
    "AGE": 76,
    "AGEU": "YEARS",
    "SEX": "F",
    "RACE": "WHITE",
    "ARMCD": "Pbo",
    "ARM": "Placebo",
    "ACTARMCD": "Pbo",
    "ACTARM": "Placebo",
    "COUNTRY": "USA",
    "ETHNIC": "HISPANIC OR LATINO",
    ".arm": "Placebo",
    ".armn": 0,
    ".mmse": 14,
    ".disease_duration": 77.542,
    ".education": 14,
    ".weight": 72.4,
    ".height": 166.2,
    ".bmi": 26.2,
    ".randdt": "2013-06-26",
    ".rfstdtc": "2013-06-27"
  },
  {
    "STUDYID": "CDISCPILOT01",
    "DOMAIN": "DM",
    "USUBJID": "01-701-007",
    "SUBJID": "007",
    "SITEID": "701",
    "RFSTDTC": "2013-07-16",
    "RFXSTDTC": "2013-07-16",
    "AGE": 65,
    "AGEU": "YEARS",
    "SEX": "F",
    "RACE": "WHITE",
    "ARMCD": "Pbo",
    "ARM": "Placebo",
    "ACTARMCD": "Pbo",
    "ACTARM": "Placebo",
    "COUNTRY": "USA",
    "ETHNIC": "NOT HISPANIC OR LATINO",
    ".arm": "Placebo",
    ".armn": 0,
    ".mmse": 22,
    ".disease_duration": 64.1872,
    ".education": 9,
    ".weight": 58.5,
    ".height": 154.4,
    ".bmi": 24.5,
    ".randdt": "2013-07-15",
    ".rfstdtc": "2013-07-16"
  },
  {
    "STUDYID": "CDISCPILOT01",
    "DOMAIN": "DM",
    "USUBJID": "01-701-008",
    "SUBJID": "008",
    "SITEID": "701",
    "RFSTDTC": "2013-11-24",
    "RFXSTDTC": "2013-11-24",
    "AGE": 76,
    "AGEU": "YEARS",
    "SEX": "M",
    "RACE": "BLACK OR AFRICAN AMERICAN",
    "ARMCD": "Xan_Lo",
    "ARM": "Xanomeline Low Dose",
    "ACTARMCD": "Xan_Lo",
    "ACTARM": "Xanomeline Low Dose",
    "COUNTRY": "USA",
    "ETHNIC": "NOT HISPANIC OR LATINO",
    ".arm": "Xanomeline Low Dose",
    ".armn": 1,
    ".mmse": 13,
    ".disease_duration": 113.4052,
    ".education": 8,
    ".weight": 73.4,
    ".height": 167.6,
    ".bmi": 26.1,
    ".randdt": "2013-11-23",
    ".rfstdtc": "2013-11-24"
  },
  {
    "STUDYID": "CDISCPILOT01",
    "DOMAIN": "DM",
    "USUBJID": "01-701-009",
    "SUBJID": "009",
    "SITEID": "701",
    "RFSTDTC": "2013-06-08",
    "RFXSTDTC": "2013-06-08",
    "AGE": 57,
    "AGEU": "YEARS",
    "SEX": "F",
    "RACE": "WHITE",
    "ARMCD": "Xan_Lo",
    "ARM": "Xanomeline Low Dose",
    "ACTARMCD": "Xan_Lo",
    "ACTARM": "Xanomeline Low Dose",
    "COUNTRY": "USA",
    "ETHNIC": "NOT HISPANIC OR LATINO",
    ".arm": "Xanomeline Low Dose",
    ".armn": 1,
    ".mmse": 19,
    ".disease_duration": 10.9777,
    ".education": 13,
    ".weight": 74.4,
    ".height": 164.8,
    ".bmi": 27.4,
    ".randdt": "2013-06-08",
    ".rfstdtc": "2013-06-08"
  },
  {
    "STUDYID": "CDISCPILOT01",
    "DOMAIN": "DM",
    "USUBJID": "01-701-010",
    "SUBJID": "010",
    "SITEID": "701",
    "RFSTDTC": "2013-12-03",
    "RFXSTDTC": "2013-12-03",
    "AGE": 59,
    "AGEU": "YEARS",
    "SEX": "M",
    "RACE": "WHITE",
    "ARMCD": "Xan_Lo",
    "ARM": "Xanomeline Low Dose",
    "ACTARMCD": "Xan_Lo",
    "ACTARM": "Xanomeline Low Dose",
    "COUNTRY": "USA",
    "ETHNIC": "NOT HISPANIC OR LATINO",
    ".arm": "Xanomeline Low Dose",
    ".armn": 1,
    ".mmse": 20,
    ".disease_duration": 35.4156,
    ".education": 10,
    ".weight": 62.9,
    ".height": 180.7,
    ".bmi": 19.3,
    ".randdt": "2013-12-03",
    ".rfstdtc": "2013-12-03"
  },
  {
    "STUDYID": "CDISCPILOT01",
    "DOMAIN": "DM",
    "USUBJID": "01-701-011",
    "SUBJID": "011",
    "SITEID": "701",
    "RFSTDTC": "2013-08-01",
    "RFXSTDTC": "2013-08-01",
    "AGE": 76,
    "AGEU": "YEARS",
    "SEX": "F",
    "RACE": "WHITE",
    "ARMCD": "Xan_Hi",
    "ARM": "Xanomeline High Dose",
    "ACTARMCD": "Xan_Hi",
    "ACTARM": "Xanomeline High Dose",
    "COUNTRY": "USA",
    "ETHNIC": "NOT HISPANIC OR LATINO",
    ".arm": "Xanomeline High Dose",
    ".armn": 2,
    ".mmse": 17,
    ".disease_duration": 76.2662,
    ".education": 18,
    ".weight": 62.7,
    ".height": 154,
    ".bmi": 26.4,
    ".randdt": "2013-07-31",
    ".rfstdtc": "2013-08-01"
  },
  {
    "STUDYID": "CDISCPILOT01",
    "DOMAIN": "DM",
    "USUBJID": "01-701-012",
    "SUBJID": "012",
    "SITEID": "701",
    "RFSTDTC": "2013-03-09",
    "RFXSTDTC": "2013-03-09",
    "AGE": 67,
    "AGEU": "YEARS",
    "SEX": "M",
    "RACE": "WHITE",
    "ARMCD": "Pbo",
    "ARM": "Placebo",
    "ACTARMCD": "Pbo",
    "ACTARM": "Placebo",
    "COUNTRY": "USA",
    "ETHNIC": "NOT HISPANIC OR LATINO",
    ".arm": "Placebo",
    ".armn": 0,
    ".mmse": 22,
    ".disease_duration": 21.8136,
    ".education": 14,
    ".weight": 58.4,
    ".height": 166.1,
    ".bmi": 21.2,
    ".randdt": "2013-03-08",
    ".rfstdtc": "2013-03-09"
  },
  {
    "STUDYID": "CDISCPILOT01",
    "DOMAIN": "DM",
    "USUBJID": "01-701-013",
    "SUBJID": "013",
    "SITEID": "701",
    "RFSTDTC": "2013-10-22",
    "RFXSTDTC": "2013-10-22",
    "AGE": 79,
    "AGEU": "YEARS",
    "SEX": "F",
    "RACE": "WHITE",
    "ARMCD": "Xan_Hi",
    "ARM": "Xanomeline High Dose",
    "ACTARMCD": "Xan_Hi",
    "ACTARM": "Xanomeline High Dose",
    "COUNTRY": "USA",
    "ETHNIC": "NOT HISPANIC OR LATINO",
    ".arm": "Xanomeline High Dose",
    ".armn": 2,
    ".mmse": 15,
    ".disease_duration": 9.2455,
    ".education": 11,
    ".weight": 73.1,
    ".height": 154.3,
    ".bmi": 30.7,
    ".randdt": "2013-10-21",
    ".rfstdtc": "2013-10-22"
  },
  {
    "STUDYID": "CDISCPILOT01",
    "DOMAIN": "DM",
    "USUBJID": "01-701-014",
    "SUBJID": "014",
    "SITEID": "701",
    "RFSTDTC": "2013-12-08",
    "RFXSTDTC": "2013-12-08",
    "AGE": 79,
    "AGEU": "YEARS",
    "SEX": "F",
    "RACE": "HISPANIC OR LATINO",
    "ARMCD": "Xan_Lo",
    "ARM": "Xanomeline Low Dose",
    "ACTARMCD": "Xan_Lo",
    "ACTARM": "Xanomeline Low Dose",
    "COUNTRY": "USA",
    "ETHNIC": "NOT HISPANIC OR LATINO",
    ".arm": "Xanomeline Low Dose",
    ".armn": 1,
    ".mmse": 16,
    ".disease_duration": 15.392,
    ".education": 12,
    ".weight": 53.4,
    ".height": 154.9,
    ".bmi": 22.3,
    ".randdt": "2013-12-07",
    ".rfstdtc": "2013-12-08"
  },
  {
    "STUDYID": "CDISCPILOT01",
    "DOMAIN": "DM",
    "USUBJID": "01-701-015",
    "SUBJID": "015",
    "SITEID": "701",
    "RFSTDTC": "2013-07-01",
    "RFXSTDTC": "2013-07-01",
    "AGE": 80,
    "AGEU": "YEARS",
    "SEX": "M",
    "RACE": "WHITE",
    "ARMCD": "Pbo",
    "ARM": "Placebo",
    "ACTARMCD": "Pbo",
    "ACTARM": "Placebo",
    "COUNTRY": "USA",
    "ETHNIC": "NOT HISPANIC OR LATINO",
    ".arm": "Placebo",
    ".armn": 0,
    ".mmse": 22,
    ".disease_duration": 7.2547,
    ".education": 9,
    ".weight": 45.3,
    ".height": 150.6,
    ".bmi": 20,
    ".randdt": "2013-06-30",
    ".rfstdtc": "2013-07-01"
  },
  {
    "STUDYID": "CDISCPILOT01",
    "DOMAIN": "DM",
    "USUBJID": "01-701-016",
    "SUBJID": "016",
    "SITEID": "701",
    "RFSTDTC": "2013-09-14",
    "RFXSTDTC": "2013-09-14",
    "AGE": 63,
    "AGEU": "YEARS",
    "SEX": "F",
    "RACE": "WHITE",
    "ARMCD": "Xan_Hi",
    "ARM": "Xanomeline High Dose",
    "ACTARMCD": "Xan_Hi",
    "ACTARM": "Xanomeline High Dose",
    "COUNTRY": "USA",
    "ETHNIC": "NOT HISPANIC OR LATINO",
    ".arm": "Xanomeline High Dose",
    ".armn": 2,
    ".mmse": 14,
    ".disease_duration": 49.2574,
    ".education": 12,
    ".weight": 75.3,
    ".height": 168,
    ".bmi": 26.7,
    ".randdt": "2013-09-13",
    ".rfstdtc": "2013-09-14"
  },
  {
    "STUDYID": "CDISCPILOT01",
    "DOMAIN": "DM",
    "USUBJID": "01-701-017",
    "SUBJID": "017",
    "SITEID": "701",
    "RFSTDTC": "2013-05-29",
    "RFXSTDTC": "2013-05-29",
    "AGE": 71,
    "AGEU": "YEARS",
    "SEX": "F",
    "RACE": "WHITE",
    "ARMCD": "Pbo",
    "ARM": "Placebo",
    "ACTARMCD": "Pbo",
    "ACTARM": "Placebo",
    "COUNTRY": "USA",
    "ETHNIC": "NOT HISPANIC OR LATINO",
    ".arm": "Placebo",
    ".armn": 0,
    ".mmse": 16,
    ".disease_duration": 39.429,
    ".education": 11,
    ".weight": 66.2,
    ".height": 161.7,
    ".bmi": 25.3,
    ".randdt": "2013-05-28",
    ".rfstdtc": "2013-05-29"
  },
  {
    "STUDYID": "CDISCPILOT01",
    "DOMAIN": "DM",
    "USUBJID": "01-701-018",
    "SUBJID": "018",
    "SITEID": "701",
    "RFSTDTC": "2013-04-14",
    "RFXSTDTC": "2013-04-14",
    "AGE": 69,
    "AGEU": "YEARS",
    "SEX": "F",
    "RACE": "WHITE",
    "ARMCD": "Pbo",
    "ARM": "Placebo",
    "ACTARMCD": "Pbo",
    "ACTARM": "Placebo",
    "COUNTRY": "USA",
    "ETHNIC": "NOT HISPANIC OR LATINO",
    ".arm": "Placebo",
    ".armn": 0,
    ".mmse": 14,
    ".disease_duration": 90.6114,
    ".education": 8,
    ".weight": 71.3,
    ".height": 160.2,
    ".bmi": 27.8,
    ".randdt": "2013-04-14",
    ".rfstdtc": "2013-04-14"
  },
  {
    "STUDYID": "CDISCPILOT01",
    "DOMAIN": "DM",
    "USUBJID": "01-701-019",
    "SUBJID": "019",
    "SITEID": "701",
    "RFSTDTC": "2013-04-14",
    "RFXSTDTC": "2013-04-14",
    "AGE": 84,
    "AGEU": "YEARS",
    "SEX": "F",
    "RACE": "WHITE",
    "ARMCD": "Xan_Hi",
    "ARM": "Xanomeline High Dose",
    "ACTARMCD": "Xan_Hi",
    "ACTARM": "Xanomeline High Dose",
    "COUNTRY": "USA",
    "ETHNIC": "NOT HISPANIC OR LATINO",
    ".arm": "Xanomeline High Dose",
    ".armn": 2,
    ".mmse": 23,
    ".disease_duration": 30.653,
    ".education": 14,
    ".weight": 70,
    ".height": 167.7,
    ".bmi": 24.9,
    ".randdt": "2013-04-14",
    ".rfstdtc": "2013-04-14"
  },
  {
    "STUDYID": "CDISCPILOT01",
    "DOMAIN": "DM",
    "USUBJID": "01-701-020",
    "SUBJID": "020",
    "SITEID": "701",
    "RFSTDTC": "2013-04-10",
    "RFXSTDTC": "2013-04-10",
    "AGE": 73,
    "AGEU": "YEARS",
    "SEX": "F",
    "RACE": "WHITE",
    "ARMCD": "Xan_Lo",
    "ARM": "Xanomeline Low Dose",
    "ACTARMCD": "Xan_Lo",
    "ACTARM": "Xanomeline Low Dose",
    "COUNTRY": "USA",
    "ETHNIC": "NOT HISPANIC OR LATINO",
    ".arm": "Xanomeline Low Dose",
    ".armn": 1,
    ".mmse": 15,
    ".disease_duration": 54.0445,
    ".education": 14,
    ".weight": 62.1,
    ".height": 168.3,
    ".bmi": 21.9,
    ".randdt": "2013-04-10",
    ".rfstdtc": "2013-04-10"
  },
  {
    "STUDYID": "CDISCPILOT01",
    "DOMAIN": "DM",
    "USUBJID": "01-701-021",
    "SUBJID": "021",
    "SITEID": "701",
    "RFSTDTC": "2013-04-13",
    "RFXSTDTC": "2013-04-13",
    "AGE": 62,
    "AGEU": "YEARS",
    "SEX": "M",
    "RACE": "WHITE",
    "ARMCD": "Pbo",
    "ARM": "Placebo",
    "ACTARMCD": "Pbo",
    "ACTARM": "Placebo",
    "COUNTRY": "USA",
    "ETHNIC": "HISPANIC OR LATINO",
    ".arm": "Placebo",
    ".armn": 0,
    ".mmse": 18,
    ".disease_duration": 50.9317,
    ".education": 10,
    ".weight": 69.6,
    ".height": 166,
    ".bmi": 25.3,
    ".randdt": "2013-04-13",
    ".rfstdtc": "2013-04-13"
  },
  {
    "STUDYID": "CDISCPILOT01",
    "DOMAIN": "DM",
    "USUBJID": "01-701-022",
    "SUBJID": "022",
    "SITEID": "701",
    "RFSTDTC": "2013-09-30",
    "RFXSTDTC": "2013-09-30",
    "AGE": 82,
    "AGEU": "YEARS",
    "SEX": "F",
    "RACE": "WHITE",
    "ARMCD": "Xan_Hi",
    "ARM": "Xanomeline High Dose",
    "ACTARMCD": "Xan_Hi",
    "ACTARM": "Xanomeline High Dose",
    "COUNTRY": "USA",
    "ETHNIC": "NOT HISPANIC OR LATINO",
    ".arm": "Xanomeline High Dose",
    ".armn": 2,
    ".mmse": 19,
    ".disease_duration": 85.1775,
    ".education": 18,
    ".weight": 67.9,
    ".height": 158.3,
    ".bmi": 27.1,
    ".randdt": "2013-09-29",
    ".rfstdtc": "2013-09-30"
  },
  {
    "STUDYID": "CDISCPILOT01",
    "DOMAIN": "DM",
    "USUBJID": "01-701-023",
    "SUBJID": "023",
    "SITEID": "701",
    "RFSTDTC": "2013-07-26",
    "RFXSTDTC": "2013-07-26",
    "AGE": 73,
    "AGEU": "YEARS",
    "SEX": "M",
    "RACE": "WHITE",
    "ARMCD": "Xan_Hi",
    "ARM": "Xanomeline High Dose",
    "ACTARMCD": "Xan_Hi",
    "ACTARM": "Xanomeline High Dose",
    "COUNTRY": "USA",
    "ETHNIC": "NOT HISPANIC OR LATINO",
    ".arm": "Xanomeline High Dose",
    ".armn": 2,
    ".mmse": 23,
    ".disease_duration": 57.3846,
    ".education": 17,
    ".weight": 68.6,
    ".height": 175,
    ".bmi": 22.4,
    ".randdt": "2013-07-26",
    ".rfstdtc": "2013-07-26"
  },
  {
    "STUDYID": "CDISCPILOT01",
    "DOMAIN": "DM",
    "USUBJID": "01-701-024",
    "SUBJID": "024",
    "SITEID": "701",
    "RFSTDTC": "2013-12-20",
    "RFXSTDTC": "2013-12-20",
    "AGE": 83,
    "AGEU": "YEARS",
    "SEX": "M",
    "RACE": "WHITE",
    "ARMCD": "Pbo",
    "ARM": "Placebo",
    "ACTARMCD": "Pbo",
    "ACTARM": "Placebo",
    "COUNTRY": "USA",
    "ETHNIC": "NOT HISPANIC OR LATINO",
    ".arm": "Placebo",
    ".armn": 0,
    ".mmse": 15,
    ".disease_duration": 42.9558,
    ".education": 6,
    ".weight": 56,
    ".height": 163.7,
    ".bmi": 20.9,
    ".randdt": "2013-12-19",
    ".rfstdtc": "2013-12-20"
  },
  {
    "STUDYID": "CDISCPILOT01",
    "DOMAIN": "DM",
    "USUBJID": "01-701-025",
    "SUBJID": "025",
    "SITEID": "701",
    "RFSTDTC": "2013-11-23",
    "RFXSTDTC": "2013-11-23",
    "AGE": 58,
    "AGEU": "YEARS",
    "SEX": "F",
    "RACE": "HISPANIC OR LATINO",
    "ARMCD": "Pbo",
    "ARM": "Placebo",
    "ACTARMCD": "Pbo",
    "ACTARM": "Placebo",
    "COUNTRY": "USA",
    "ETHNIC": "NOT HISPANIC OR LATINO",
    ".arm": "Placebo",
    ".armn": 0,
    ".mmse": 24,
    ".disease_duration": 27.98,
    ".education": 13,
    ".weight": 67.3,
    ".height": 158.6,
    ".bmi": 26.8,
    ".randdt": "2013-11-22",
    ".rfstdtc": "2013-11-23"
  },
  {
    "STUDYID": "CDISCPILOT01",
    "DOMAIN": "DM",
    "USUBJID": "01-701-026",
    "SUBJID": "026",
    "SITEID": "701",
    "RFSTDTC": "2013-03-06",
    "RFXSTDTC": "2013-03-06",
    "AGE": 84,
    "AGEU": "YEARS",
    "SEX": "F",
    "RACE": "WHITE",
    "ARMCD": "Xan_Lo",
    "ARM": "Xanomeline Low Dose",
    "ACTARMCD": "Xan_Lo",
    "ACTARM": "Xanomeline Low Dose",
    "COUNTRY": "USA",
    "ETHNIC": "NOT HISPANIC OR LATINO",
    ".arm": "Xanomeline Low Dose",
    ".armn": 1,
    ".mmse": 10,
    ".disease_duration": 2,
    ".education": 12,
    ".weight": 85.7,
    ".height": 155.6,
    ".bmi": 35.4,
    ".randdt": "2013-03-05",
    ".rfstdtc": "2013-03-06"
  },
  {
    "STUDYID": "CDISCPILOT01",
    "DOMAIN": "DM",
    "USUBJID": "01-701-027",
    "SUBJID": "027",
    "SITEID": "701",
    "RFSTDTC": "2013-11-28",
    "RFXSTDTC": "2013-11-28",
    "AGE": 83,
    "AGEU": "YEARS",
    "SEX": "M",
    "RACE": "WHITE",
    "ARMCD": "Xan_Hi",
    "ARM": "Xanomeline High Dose",
    "ACTARMCD": "Xan_Hi",
    "ACTARM": "Xanomeline High Dose",
    "COUNTRY": "USA",
    "ETHNIC": "NOT HISPANIC OR LATINO",
    ".arm": "Xanomeline High Dose",
    ".armn": 2,
    ".mmse": 14,
    ".disease_duration": 95.8207,
    ".education": 12,
    ".weight": 81.3,
    ".height": 169.7,
    ".bmi": 28.2,
    ".randdt": "2013-11-27",
    ".rfstdtc": "2013-11-28"
  },
  {
    "STUDYID": "CDISCPILOT01",
    "DOMAIN": "DM",
    "USUBJID": "01-701-028",
    "SUBJID": "028",
    "SITEID": "701",
    "RFSTDTC": "2013-07-27",
    "RFXSTDTC": "2013-07-27",
    "AGE": 68,
    "AGEU": "YEARS",
    "SEX": "F",
    "RACE": "WHITE",
    "ARMCD": "Xan_Hi",
    "ARM": "Xanomeline High Dose",
    "ACTARMCD": "Xan_Hi",
    "ACTARM": "Xanomeline High Dose",
    "COUNTRY": "USA",
    "ETHNIC": "HISPANIC OR LATINO",
    ".arm": "Xanomeline High Dose",
    ".armn": 2,
    ".mmse": 24,
    ".disease_duration": 62.6523,
    ".education": 9,
    ".weight": 90,
    ".height": 156.8,
    ".bmi": 36.6,
    ".randdt": "2013-07-27",
    ".rfstdtc": "2013-07-27"
  },
  {
    "STUDYID": "CDISCPILOT01",
    "DOMAIN": "DM",
    "USUBJID": "01-701-029",
    "SUBJID": "029",
    "SITEID": "701",
    "RFSTDTC": "2013-10-29",
    "RFXSTDTC": "2013-10-29",
    "AGE": 74,
    "AGEU": "YEARS",
    "SEX": "F",
    "RACE": "WHITE",
    "ARMCD": "Xan_Hi",
    "ARM": "Xanomeline High Dose",
    "ACTARMCD": "Xan_Hi",
    "ACTARM": "Xanomeline High Dose",
    "COUNTRY": "USA",
    "ETHNIC": "NOT HISPANIC OR LATINO",
    ".arm": "Xanomeline High Dose",
    ".armn": 2,
    ".mmse": 19,
    ".disease_duration": 57.0456,
    ".education": 14,
    ".weight": 67.4,
    ".height": 162.1,
    ".bmi": 25.7,
    ".randdt": "2013-10-29",
    ".rfstdtc": "2013-10-29"
  },
  {
    "STUDYID": "CDISCPILOT01",
    "DOMAIN": "DM",
    "USUBJID": "01-701-030",
    "SUBJID": "030",
    "SITEID": "701",
    "RFSTDTC": "2013-06-30",
    "RFXSTDTC": "2013-06-30",
    "AGE": 72,
    "AGEU": "YEARS",
    "SEX": "F",
    "RACE": "WHITE",
    "ARMCD": "Xan_Lo",
    "ARM": "Xanomeline Low Dose",
    "ACTARMCD": "Xan_Lo",
    "ACTARM": "Xanomeline Low Dose",
    "COUNTRY": "USA",
    "ETHNIC": "NOT HISPANIC OR LATINO",
    ".arm": "Xanomeline Low Dose",
    ".armn": 1,
    ".mmse": 14,
    ".disease_duration": 17.4601,
    ".education": 10,
    ".weight": 70,
    ".height": 165.2,
    ".bmi": 25.6,
    ".randdt": "2013-06-29",
    ".rfstdtc": "2013-06-30"
  },
  {
    "STUDYID": "CDISCPILOT01",
    "DOMAIN": "DM",
    "USUBJID": "01-701-031",
    "SUBJID": "031",
    "SITEID": "701",
    "RFSTDTC": "2013-09-16",
    "RFXSTDTC": "2013-09-16",
    "AGE": 79,
    "AGEU": "YEARS",
    "SEX": "F",
    "RACE": "HISPANIC OR LATINO",
    "ARMCD": "Xan_Hi",
    "ARM": "Xanomeline High Dose",
    "ACTARMCD": "Xan_Hi",
    "ACTARM": "Xanomeline High Dose",
    "COUNTRY": "USA",
    "ETHNIC": "NOT HISPANIC OR LATINO",
    ".arm": "Xanomeline High Dose",
    ".armn": 2,
    ".mmse": 23,
    ".disease_duration": 47.2535,
    ".education": 14,
    ".weight": 60.6,
    ".height": 158.6,
    ".bmi": 24.1,
    ".randdt": "2013-09-15",
    ".rfstdtc": "2013-09-16"
  },
  {
    "STUDYID": "CDISCPILOT01",
    "DOMAIN": "DM",
    "USUBJID": "01-701-032",
    "SUBJID": "032",
    "SITEID": "701",
    "RFSTDTC": "2013-03-15",
    "RFXSTDTC": "2013-03-15",
    "AGE": 74,
    "AGEU": "YEARS",
    "SEX": "M",
    "RACE": "WHITE",
    "ARMCD": "Xan_Hi",
    "ARM": "Xanomeline High Dose",
    "ACTARMCD": "Xan_Hi",
    "ACTARM": "Xanomeline High Dose",
    "COUNTRY": "USA",
    "ETHNIC": "NOT HISPANIC OR LATINO",
    ".arm": "Xanomeline High Dose",
    ".armn": 2,
    ".mmse": 19,
    ".disease_duration": 63.1327,
    ".education": 9,
    ".weight": 96.2,
    ".height": 165.5,
    ".bmi": 35.1,
    ".randdt": "2013-03-15",
    ".rfstdtc": "2013-03-15"
  },
  {
    "STUDYID": "CDISCPILOT01",
    "DOMAIN": "DM",
    "USUBJID": "01-701-033",
    "SUBJID": "033",
    "SITEID": "701",
    "RFSTDTC": "2013-11-06",
    "RFXSTDTC": "2013-11-06",
    "AGE": 60,
    "AGEU": "YEARS",
    "SEX": "F",
    "RACE": "WHITE",
    "ARMCD": "Xan_Lo",
    "ARM": "Xanomeline Low Dose",
    "ACTARMCD": "Xan_Lo",
    "ACTARM": "Xanomeline Low Dose",
    "COUNTRY": "USA",
    "ETHNIC": "NOT HISPANIC OR LATINO",
    ".arm": "Xanomeline Low Dose",
    ".armn": 1,
    ".mmse": 10,
    ".disease_duration": 6.6738,
    ".education": 9,
    ".weight": 74.7,
    ".height": 150.1,
    ".bmi": 33.2,
    ".randdt": "2013-11-05",
    ".rfstdtc": "2013-11-06"
  },
  {
    "STUDYID": "CDISCPILOT01",
    "DOMAIN": "DM",
    "USUBJID": "01-701-034",
    "SUBJID": "034",
    "SITEID": "701",
    "RFSTDTC": "2013-08-15",
    "RFXSTDTC": "2013-08-15",
    "AGE": 83,
    "AGEU": "YEARS",
    "SEX": "F",
    "RACE": "WHITE",
    "ARMCD": "Xan_Lo",
    "ARM": "Xanomeline Low Dose",
    "ACTARMCD": "Xan_Lo",
    "ACTARM": "Xanomeline Low Dose",
    "COUNTRY": "USA",
    "ETHNIC": "NOT HISPANIC OR LATINO",
    ".arm": "Xanomeline Low Dose",
    ".armn": 1,
    ".mmse": 15,
    ".disease_duration": 52.3453,
    ".education": 13,
    ".weight": 62.2,
    ".height": 150,
    ".bmi": 27.6,
    ".randdt": "2013-08-14",
    ".rfstdtc": "2013-08-15"
  },
  {
    "STUDYID": "CDISCPILOT01",
    "DOMAIN": "DM",
    "USUBJID": "01-701-035",
    "SUBJID": "035",
    "SITEID": "701",
    "RFSTDTC": "2013-04-25",
    "RFXSTDTC": "2013-04-25",
    "AGE": 79,
    "AGEU": "YEARS",
    "SEX": "F",
    "RACE": "WHITE",
    "ARMCD": "Xan_Hi",
    "ARM": "Xanomeline High Dose",
    "ACTARMCD": "Xan_Hi",
    "ACTARM": "Xanomeline High Dose",
    "COUNTRY": "USA",
    "ETHNIC": "NOT HISPANIC OR LATINO",
    ".arm": "Xanomeline High Dose",
    ".armn": 2,
    ".mmse": 12,
    ".disease_duration": 2,
    ".education": 8,
    ".weight": 90.8,
    ".height": 161.4,
    ".bmi": 34.9,
    ".randdt": "2013-04-24",
    ".rfstdtc": "2013-04-25"
  },
  {
    "STUDYID": "CDISCPILOT01",
    "DOMAIN": "DM",
    "USUBJID": "01-701-036",
    "SUBJID": "036",
    "SITEID": "701",
    "RFSTDTC": "2013-08-16",
    "RFXSTDTC": "2013-08-16",
    "AGE": 76,
    "AGEU": "YEARS",
    "SEX": "F",
    "RACE": "WHITE",
    "ARMCD": "Xan_Lo",
    "ARM": "Xanomeline Low Dose",
    "ACTARMCD": "Xan_Lo",
    "ACTARM": "Xanomeline Low Dose",
    "COUNTRY": "USA",
    "ETHNIC": "NOT HISPANIC OR LATINO",
    ".arm": "Xanomeline Low Dose",
    ".armn": 1,
    ".mmse": 21,
    ".disease_duration": 75.0075,
    ".education": 13,
    ".weight": 54.3,
    ".height": 148.3,
    ".bmi": 24.7,
    ".randdt": "2013-08-15",
    ".rfstdtc": "2013-08-16"
  },
  {
    "STUDYID": "CDISCPILOT01",
    "DOMAIN": "DM",
    "USUBJID": "01-701-037",
    "SUBJID": "037",
    "SITEID": "701",
    "RFSTDTC": "2013-01-05",
    "RFXSTDTC": "2013-01-05",
    "AGE": 70,
    "AGEU": "YEARS",
    "SEX": "M",
    "RACE": "WHITE",
    "ARMCD": "Xan_Lo",
    "ARM": "Xanomeline Low Dose",
    "ACTARMCD": "Xan_Lo",
    "ACTARM": "Xanomeline Low Dose",
    "COUNTRY": "USA",
    "ETHNIC": "NOT HISPANIC OR LATINO",
    ".arm": "Xanomeline Low Dose",
    ".armn": 1,
    ".mmse": 24,
    ".disease_duration": 69.3597,
    ".education": 12,
    ".weight": 63.9,
    ".height": 175.2,
    ".bmi": 20.8,
    ".randdt": "2013-01-04",
    ".rfstdtc": "2013-01-05"
  },
  {
    "STUDYID": "CDISCPILOT01",
    "DOMAIN": "DM",
    "USUBJID": "01-701-038",
    "SUBJID": "038",
    "SITEID": "701",
    "RFSTDTC": "2013-06-14",
    "RFXSTDTC": "2013-06-14",
    "AGE": 68,
    "AGEU": "YEARS",
    "SEX": "M",
    "RACE": "WHITE",
    "ARMCD": "Xan_Hi",
    "ARM": "Xanomeline High Dose",
    "ACTARMCD": "Xan_Hi",
    "ACTARM": "Xanomeline High Dose",
    "COUNTRY": "USA",
    "ETHNIC": "NOT HISPANIC OR LATINO",
    ".arm": "Xanomeline High Dose",
    ".armn": 2,
    ".mmse": 20,
    ".disease_duration": 2,
    ".education": 15,
    ".weight": 84.8,
    ".height": 164,
    ".bmi": 31.5,
    ".randdt": "2013-06-13",
    ".rfstdtc": "2013-06-14"
  },
  {
    "STUDYID": "CDISCPILOT01",
    "DOMAIN": "DM",
    "USUBJID": "01-701-039",
    "SUBJID": "039",
    "SITEID": "701",
    "RFSTDTC": "2013-04-27",
    "RFXSTDTC": "2013-04-27",
    "AGE": 75,
    "AGEU": "YEARS",
    "SEX": "M",
    "RACE": "WHITE",
    "ARMCD": "Xan_Hi",
    "ARM": "Xanomeline High Dose",
    "ACTARMCD": "Xan_Hi",
    "ACTARM": "Xanomeline High Dose",
    "COUNTRY": "USA",
    "ETHNIC": "NOT HISPANIC OR LATINO",
    ".arm": "Xanomeline High Dose",
    ".armn": 2,
    ".mmse": 14,
    ".disease_duration": 65.0604,
    ".education": 12,
    ".weight": 68,
    ".height": 172,
    ".bmi": 23,
    ".randdt": "2013-04-26",
    ".rfstdtc": "2013-04-27"
  },
  {
    "STUDYID": "CDISCPILOT01",
    "DOMAIN": "DM",
    "USUBJID": "01-701-040",
    "SUBJID": "040",
    "SITEID": "701",
    "RFSTDTC": "2013-10-03",
    "RFXSTDTC": "2013-10-03",
    "AGE": 82,
    "AGEU": "YEARS",
    "SEX": "F",
    "RACE": "WHITE",
    "ARMCD": "Xan_Lo",
    "ARM": "Xanomeline Low Dose",
    "ACTARMCD": "Xan_Lo",
    "ACTARM": "Xanomeline Low Dose",
    "COUNTRY": "USA",
    "ETHNIC": "NOT HISPANIC OR LATINO",
    ".arm": "Xanomeline Low Dose",
    ".armn": 1,
    ".mmse": 17,
    ".disease_duration": 49.5855,
    ".education": 16,
    ".weight": 63.7,
    ".height": 158.6,
    ".bmi": 25.3,
    ".randdt": "2013-10-03",
    ".rfstdtc": "2013-10-03"
  },
  {
    "STUDYID": "CDISCPILOT01",
    "DOMAIN": "DM",
    "USUBJID": "01-701-041",
    "SUBJID": "041",
    "SITEID": "701",
    "RFSTDTC": "2013-11-06",
    "RFXSTDTC": "2013-11-06",
    "AGE": 64,
    "AGEU": "YEARS",
    "SEX": "M",
    "RACE": "WHITE",
    "ARMCD": "Xan_Hi",
    "ARM": "Xanomeline High Dose",
    "ACTARMCD": "Xan_Hi",
    "ACTARM": "Xanomeline High Dose",
    "COUNTRY": "USA",
    "ETHNIC": "NOT HISPANIC OR LATINO",
    ".arm": "Xanomeline High Dose",
    ".armn": 2,
    ".mmse": 14,
    ".disease_duration": 52.9789,
    ".education": 20,
    ".weight": 85.3,
    ".height": 173.4,
    ".bmi": 28.4,
    ".randdt": "2013-11-05",
    ".rfstdtc": "2013-11-06"
  },
  {
    "STUDYID": "CDISCPILOT01",
    "DOMAIN": "DM",
    "USUBJID": "01-701-042",
    "SUBJID": "042",
    "SITEID": "701",
    "RFSTDTC": "2013-09-03",
    "RFXSTDTC": "2013-09-03",
    "AGE": 72,
    "AGEU": "YEARS",
    "SEX": "M",
    "RACE": "WHITE",
    "ARMCD": "Pbo",
    "ARM": "Placebo",
    "ACTARMCD": "Pbo",
    "ACTARM": "Placebo",
    "COUNTRY": "USA",
    "ETHNIC": "NOT HISPANIC OR LATINO",
    ".arm": "Placebo",
    ".armn": 0,
    ".mmse": 13,
    ".disease_duration": 50.1315,
    ".education": 6,
    ".weight": 76.2,
    ".height": 164.2,
    ".bmi": 28.3,
    ".randdt": "2013-09-02",
    ".rfstdtc": "2013-09-03"
  },
  {
    "STUDYID": "CDISCPILOT01",
    "DOMAIN": "DM",
    "USUBJID": "01-701-043",
    "SUBJID": "043",
    "SITEID": "701",
    "RFSTDTC": "2013-06-15",
    "RFXSTDTC": "2013-06-15",
    "AGE": 80,
    "AGEU": "YEARS",
    "SEX": "F",
    "RACE": "WHITE",
    "ARMCD": "Xan_Hi",
    "ARM": "Xanomeline High Dose",
    "ACTARMCD": "Xan_Hi",
    "ACTARM": "Xanomeline High Dose",
    "COUNTRY": "USA",
    "ETHNIC": "NOT HISPANIC OR LATINO",
    ".arm": "Xanomeline High Dose",
    ".armn": 2,
    ".mmse": 17,
    ".disease_duration": 71.6964,
    ".education": 14,
    ".weight": 76.2,
    ".height": 157.7,
    ".bmi": 30.6,
    ".randdt": "2013-06-15",
    ".rfstdtc": "2013-06-15"
  },
  {
    "STUDYID": "CDISCPILOT01",
    "DOMAIN": "DM",
    "USUBJID": "01-703-001",
    "SUBJID": "001",
    "SITEID": "703",
    "RFSTDTC": "2013-01-12",
    "RFXSTDTC": "2013-01-12",
    "AGE": 70,
    "AGEU": "YEARS",
    "SEX": "M",
    "RACE": "WHITE",
    "ARMCD": "Pbo",
    "ARM": "Placebo",
    "ACTARMCD": "Pbo",
    "ACTARM": "Placebo",
    "COUNTRY": "USA",
    "ETHNIC": "NOT HISPANIC OR LATINO",
    ".arm": "Placebo",
    ".armn": 0,
    ".mmse": 21,
    ".disease_duration": 41.2173,
    ".education": 13,
    ".weight": 56.1,
    ".height": 168.1,
    ".bmi": 19.9,
    ".randdt": "2013-01-12",
    ".rfstdtc": "2013-01-12"
  },
  {
    "STUDYID": "CDISCPILOT01",
    "DOMAIN": "DM",
    "USUBJID": "01-703-002",
    "SUBJID": "002",
    "SITEID": "703",
    "RFSTDTC": "2013-02-03",
    "RFXSTDTC": "2013-02-03",
    "AGE": 72,
    "AGEU": "YEARS",
    "SEX": "F",
    "RACE": "WHITE",
    "ARMCD": "Xan_Hi",
    "ARM": "Xanomeline High Dose",
    "ACTARMCD": "Xan_Hi",
    "ACTARM": "Xanomeline High Dose",
    "COUNTRY": "USA",
    "ETHNIC": "NOT HISPANIC OR LATINO",
    ".arm": "Xanomeline High Dose",
    ".armn": 2,
    ".mmse": 20,
    ".disease_duration": 37.8799,
    ".education": 9,
    ".weight": 67,
    ".height": 154.6,
    ".bmi": 28,
    ".randdt": "2013-02-02",
    ".rfstdtc": "2013-02-03"
  },
  {
    "STUDYID": "CDISCPILOT01",
    "DOMAIN": "DM",
    "USUBJID": "01-703-003",
    "SUBJID": "003",
    "SITEID": "703",
    "RFSTDTC": "2013-08-12",
    "RFXSTDTC": "2013-08-12",
    "AGE": 78,
    "AGEU": "YEARS",
    "SEX": "F",
    "RACE": "WHITE",
    "ARMCD": "Xan_Hi",
    "ARM": "Xanomeline High Dose",
    "ACTARMCD": "Xan_Hi",
    "ACTARM": "Xanomeline High Dose",
    "COUNTRY": "USA",
    "ETHNIC": "NOT HISPANIC OR LATINO",
    ".arm": "Xanomeline High Dose",
    ".armn": 2,
    ".mmse": 24,
    ".disease_duration": 49.141,
    ".education": 7,
    ".weight": 67.4,
    ".height": 169.6,
    ".bmi": 23.4,
    ".randdt": "2013-08-11",
    ".rfstdtc": "2013-08-12"
  },
  {
    "STUDYID": "CDISCPILOT01",
    "DOMAIN": "DM",
    "USUBJID": "01-703-004",
    "SUBJID": "004",
    "SITEID": "703",
    "RFSTDTC": "2013-07-30",
    "RFXSTDTC": "2013-07-30",
    "AGE": 75,
    "AGEU": "YEARS",
    "SEX": "F",
    "RACE": "WHITE",
    "ARMCD": "Pbo",
    "ARM": "Placebo",
    "ACTARMCD": "Pbo",
    "ACTARM": "Placebo",
    "COUNTRY": "USA",
    "ETHNIC": "NOT HISPANIC OR LATINO",
    ".arm": "Placebo",
    ".armn": 0,
    ".mmse": 15,
    ".disease_duration": 57.514,
    ".education": 13,
    ".weight": 72.6,
    ".height": 161.8,
    ".bmi": 27.7,
    ".randdt": "2013-07-30",
    ".rfstdtc": "2013-07-30"
  },
  {
    "STUDYID": "CDISCPILOT01",
    "DOMAIN": "DM",
    "USUBJID": "01-703-005",
    "SUBJID": "005",
    "SITEID": "703",
    "RFSTDTC": "2013-03-05",
    "RFXSTDTC": "2013-03-05",
    "AGE": 66,
    "AGEU": "YEARS",
    "SEX": "M",
    "RACE": "WHITE",
    "ARMCD": "Xan_Lo",
    "ARM": "Xanomeline Low Dose",
    "ACTARMCD": "Xan_Lo",
    "ACTARM": "Xanomeline Low Dose",
    "COUNTRY": "USA",
    "ETHNIC": "NOT HISPANIC OR LATINO",
    ".arm": "Xanomeline Low Dose",
    ".armn": 1,
    ".mmse": 21,
    ".disease_duration": 19.8623,
    ".education": 12,
    ".weight": 78.1,
    ".height": 166.1,
    ".bmi": 28.3,
    ".randdt": "2013-03-05",
    ".rfstdtc": "2013-03-05"
  },
  {
    "STUDYID": "CDISCPILOT01",
    "DOMAIN": "DM",
    "USUBJID": "01-703-006",
    "SUBJID": "006",
    "SITEID": "703",
    "RFSTDTC": "2013-07-24",
    "RFXSTDTC": "2013-07-24",
    "AGE": 85,
    "AGEU": "YEARS",
    "SEX": "F",
    "RACE": "WHITE",
    "ARMCD": "Pbo",
    "ARM": "Placebo",
    "ACTARMCD": "Pbo",
    "ACTARM": "Placebo",
    "COUNTRY": "USA",
    "ETHNIC": "NOT HISPANIC OR LATINO",
    ".arm": "Placebo",
    ".armn": 0,
    ".mmse": 15,
    ".disease_duration": 28.6406,
    ".education": 12,
    ".weight": 63.5,
    ".height": 162.4,
    ".bmi": 24.1,
    ".randdt": "2013-07-24",
    ".rfstdtc": "2013-07-24"
  },
  {
    "STUDYID": "CDISCPILOT01",
    "DOMAIN": "DM",
    "USUBJID": "01-703-007",
    "SUBJID": "007",
    "SITEID": "703",
    "RFSTDTC": "2013-02-21",
    "RFXSTDTC": "2013-02-21",
    "AGE": 76,
    "AGEU": "YEARS",
    "SEX": "F",
    "RACE": "WHITE",
    "ARMCD": "Pbo",
    "ARM": "Placebo",
    "ACTARMCD": "Pbo",
    "ACTARM": "Placebo",
    "COUNTRY": "USA",
    "ETHNIC": "NOT HISPANIC OR LATINO",
    ".arm": "Placebo",
    ".armn": 0,
    ".mmse": 24,
    ".disease_duration": 38.1485,
    ".education": 17,
    ".weight": 53.1,
    ".height": 159.6,
    ".bmi": 20.8,
    ".randdt": "2013-02-20",
    ".rfstdtc": "2013-02-21"
  },
  {
    "STUDYID": "CDISCPILOT01",
    "DOMAIN": "DM",
    "USUBJID": "01-703-008",
    "SUBJID": "008",
    "SITEID": "703",
    "RFSTDTC": "2014-01-01",
    "RFXSTDTC": "2014-01-01",
    "AGE": 54,
    "AGEU": "YEARS",
    "SEX": "F",
    "RACE": "WHITE",
    "ARMCD": "Xan_Lo",
    "ARM": "Xanomeline Low Dose",
    "ACTARMCD": "Xan_Lo",
    "ACTARM": "Xanomeline Low Dose",
    "COUNTRY": "USA",
    "ETHNIC": "NOT HISPANIC OR LATINO",
    ".arm": "Xanomeline Low Dose",
    ".armn": 1,
    ".mmse": 13,
    ".disease_duration": 45.2905,
    ".education": 15,
    ".weight": 58,
    ".height": 156.6,
    ".bmi": 23.7,
    ".randdt": "2013-12-31",
    ".rfstdtc": "2014-01-01"
  },
  {
    "STUDYID": "CDISCPILOT01",
    "DOMAIN": "DM",
    "USUBJID": "01-703-009",
    "SUBJID": "009",
    "SITEID": "703",
    "RFSTDTC": "2013-06-04",
    "RFXSTDTC": "2013-06-04",
    "AGE": 75,
    "AGEU": "YEARS",
    "SEX": "F",
    "RACE": "WHITE",
    "ARMCD": "Xan_Hi",
    "ARM": "Xanomeline High Dose",
    "ACTARMCD": "Xan_Hi",
    "ACTARM": "Xanomeline High Dose",
    "COUNTRY": "USA",
    "ETHNIC": "NOT HISPANIC OR LATINO",
    ".arm": "Xanomeline High Dose",
    ".armn": 2,
    ".mmse": 19,
    ".disease_duration": 54.1194,
    ".education": 17,
    ".weight": 77.3,
    ".height": 148.2,
    ".bmi": 35.2,
    ".randdt": "2013-06-03",
    ".rfstdtc": "2013-06-04"
  },
  {
    "STUDYID": "CDISCPILOT01",
    "DOMAIN": "DM",
    "USUBJID": "01-703-010",
    "SUBJID": "010",
    "SITEID": "703",
    "RFSTDTC": "2013-07-02",
    "RFXSTDTC": "2013-07-02",
    "AGE": 68,
    "AGEU": "YEARS",
    "SEX": "M",
    "RACE": "WHITE",
    "ARMCD": "Pbo",
    "ARM": "Placebo",
    "ACTARMCD": "Pbo",
    "ACTARM": "Placebo",
    "COUNTRY": "USA",
    "ETHNIC": "NOT HISPANIC OR LATINO",
    ".arm": "Placebo",
    ".armn": 0,
    ".mmse": 11,
    ".disease_duration": 18.4721,
    ".education": 15,
    ".weight": 58.1,
    ".height": 172,
    ".bmi": 19.6,
    ".randdt": "2013-07-01",
    ".rfstdtc": "2013-07-02"
  },
  {
    "STUDYID": "CDISCPILOT01",
    "DOMAIN": "DM",
    "USUBJID": "01-703-011",
    "SUBJID": "011",
    "SITEID": "703",
    "RFSTDTC": "2013-12-22",
    "RFXSTDTC": "2013-12-22",
    "AGE": 89,
    "AGEU": "YEARS",
    "SEX": "M",
    "RACE": "WHITE",
    "ARMCD": "Xan_Hi",
    "ARM": "Xanomeline High Dose",
    "ACTARMCD": "Xan_Hi",
    "ACTARM": "Xanomeline High Dose",
    "COUNTRY": "USA",
    "ETHNIC": "NOT HISPANIC OR LATINO",
    ".arm": "Xanomeline High Dose",
    ".armn": 2,
    ".mmse": 15,
    ".disease_duration": 2,
    ".education": 14,
    ".weight": 85.4,
    ".height": 162.4,
    ".bmi": 32.4,
    ".randdt": "2013-12-21",
    ".rfstdtc": "2013-12-22"
  },
  {
    "STUDYID": "CDISCPILOT01",
    "DOMAIN": "DM",
    "USUBJID": "01-703-012",
    "SUBJID": "012",
    "SITEID": "703",
    "RFSTDTC": "2013-02-06",
    "RFXSTDTC": "2013-02-06",
    "AGE": 70,
    "AGEU": "YEARS",
    "SEX": "F",
    "RACE": "WHITE",
    "ARMCD": "Xan_Hi",
    "ARM": "Xanomeline High Dose",
    "ACTARMCD": "Xan_Hi",
    "ACTARM": "Xanomeline High Dose",
    "COUNTRY": "USA",
    "ETHNIC": "NOT HISPANIC OR LATINO",
    ".arm": "Xanomeline High Dose",
    ".armn": 2,
    ".mmse": 20,
    ".disease_duration": 76.5243,
    ".education": 12,
    ".weight": 55.5,
    ".height": 153.3,
    ".bmi": 23.6,
    ".randdt": "2013-02-06",
    ".rfstdtc": "2013-02-06"
  },
  {
    "STUDYID": "CDISCPILOT01",
    "DOMAIN": "DM",
    "USUBJID": "01-703-013",
    "SUBJID": "013",
    "SITEID": "703",
    "RFSTDTC": "2013-04-28",
    "RFXSTDTC": "2013-04-28",
    "AGE": 78,
    "AGEU": "YEARS",
    "SEX": "M",
    "RACE": "WHITE",
    "ARMCD": "Xan_Lo",
    "ARM": "Xanomeline Low Dose",
    "ACTARMCD": "Xan_Lo",
    "ACTARM": "Xanomeline Low Dose",
    "COUNTRY": "USA",
    "ETHNIC": "NOT HISPANIC OR LATINO",
    ".arm": "Xanomeline Low Dose",
    ".armn": 1,
    ".mmse": 14,
    ".disease_duration": 31.0478,
    ".education": 15,
    ".weight": 66.7,
    ".height": 173,
    ".bmi": 22.3,
    ".randdt": "2013-04-28",
    ".rfstdtc": "2013-04-28"
  },
  {
    "STUDYID": "CDISCPILOT01",
    "DOMAIN": "DM",
    "USUBJID": "01-703-014",
    "SUBJID": "014",
    "SITEID": "703",
    "RFSTDTC": "2013-07-17",
    "RFXSTDTC": "2013-07-17",
    "AGE": 70,
    "AGEU": "YEARS",
    "SEX": "F",
    "RACE": "WHITE",
    "ARMCD": "Xan_Lo",
    "ARM": "Xanomeline Low Dose",
    "ACTARMCD": "Xan_Lo",
    "ACTARM": "Xanomeline Low Dose",
    "COUNTRY": "USA",
    "ETHNIC": "NOT HISPANIC OR LATINO",
    ".arm": "Xanomeline Low Dose",
    ".armn": 1,
    ".mmse": 24,
    ".disease_duration": 34.6877,
    ".education": 17,
    ".weight": 70,
    ".height": 158.1,
    ".bmi": 28,
    ".randdt": "2013-07-17",
    ".rfstdtc": "2013-07-17"
  },
  {
    "STUDYID": "CDISCPILOT01",
    "DOMAIN": "DM",
    "USUBJID": "01-703-015",
    "SUBJID": "015",
    "SITEID": "703",
    "RFSTDTC": "2013-02-11",
    "RFXSTDTC": "2013-02-11",
    "AGE": 87,
    "AGEU": "YEARS",
    "SEX": "F",
    "RACE": "WHITE",
    "ARMCD": "Xan_Lo",
    "ARM": "Xanomeline Low Dose",
    "ACTARMCD": "Xan_Lo",
    "ACTARM": "Xanomeline Low Dose",
    "COUNTRY": "USA",
    "ETHNIC": "NOT HISPANIC OR LATINO",
    ".arm": "Xanomeline Low Dose",
    ".armn": 1,
    ".mmse": 21,
    ".disease_duration": 40.4448,
    ".education": 16,
    ".weight": 69.5,
    ".height": 156.2,
    ".bmi": 28.5,
    ".randdt": "2013-02-10",
    ".rfstdtc": "2013-02-11"
  },
  {
    "STUDYID": "CDISCPILOT01",
    "DOMAIN": "DM",
    "USUBJID": "01-703-016",
    "SUBJID": "016",
    "SITEID": "703",
    "RFSTDTC": "2013-05-02",
    "RFXSTDTC": "2013-05-02",
    "AGE": 85,
    "AGEU": "YEARS",
    "SEX": "F",
    "RACE": "WHITE",
    "ARMCD": "Pbo",
    "ARM": "Placebo",
    "ACTARMCD": "Pbo",
    "ACTARM": "Placebo",
    "COUNTRY": "USA",
    "ETHNIC": "HISPANIC OR LATINO",
    ".arm": "Placebo",
    ".armn": 0,
    ".mmse": 21,
    ".disease_duration": 2,
    ".education": 13,
    ".weight": 62.5,
    ".height": 149.2,
    ".bmi": 28.1,
    ".randdt": "2013-05-02",
    ".rfstdtc": "2013-05-02"
  },
  {
    "STUDYID": "CDISCPILOT01",
    "DOMAIN": "DM",
    "USUBJID": "01-703-017",
    "SUBJID": "017",
    "SITEID": "703",
    "RFSTDTC": "2013-11-18",
    "RFXSTDTC": "2013-11-18",
    "AGE": 61,
    "AGEU": "YEARS",
    "SEX": "F",
    "RACE": "WHITE",
    "ARMCD": "Xan_Lo",
    "ARM": "Xanomeline Low Dose",
    "ACTARMCD": "Xan_Lo",
    "ACTARM": "Xanomeline Low Dose",
    "COUNTRY": "USA",
    "ETHNIC": "NOT HISPANIC OR LATINO",
    ".arm": "Xanomeline Low Dose",
    ".armn": 1,
    ".mmse": 18,
    ".disease_duration": 31.7809,
    ".education": 13,
    ".weight": 64.2,
    ".height": 154.9,
    ".bmi": 26.8,
    ".randdt": "2013-11-18",
    ".rfstdtc": "2013-11-18"
  },
  {
    "STUDYID": "CDISCPILOT01",
    "DOMAIN": "DM",
    "USUBJID": "01-703-018",
    "SUBJID": "018",
    "SITEID": "703",
    "RFSTDTC": "2013-08-23",
    "RFXSTDTC": "2013-08-23",
    "AGE": 75,
    "AGEU": "YEARS",
    "SEX": "M",
    "RACE": "WHITE",
    "ARMCD": "Xan_Lo",
    "ARM": "Xanomeline Low Dose",
    "ACTARMCD": "Xan_Lo",
    "ACTARM": "Xanomeline Low Dose",
    "COUNTRY": "USA",
    "ETHNIC": "NOT HISPANIC OR LATINO",
    ".arm": "Xanomeline Low Dose",
    ".armn": 1,
    ".mmse": 13,
    ".disease_duration": 26.6443,
    ".education": 10,
    ".weight": 55.2,
    ".height": 163.5,
    ".bmi": 20.6,
    ".randdt": "2013-08-23",
    ".rfstdtc": "2013-08-23"
  },
  {
    "STUDYID": "CDISCPILOT01",
    "DOMAIN": "DM",
    "USUBJID": "01-703-019",
    "SUBJID": "019",
    "SITEID": "703",
    "RFSTDTC": "2013-11-03",
    "RFXSTDTC": "2013-11-03",
    "AGE": 62,
    "AGEU": "YEARS",
    "SEX": "F",
    "RACE": "BLACK OR AFRICAN AMERICAN",
    "ARMCD": "Xan_Hi",
    "ARM": "Xanomeline High Dose",
    "ACTARMCD": "Xan_Hi",
    "ACTARM": "Xanomeline High Dose",
    "COUNTRY": "USA",
    "ETHNIC": "NOT HISPANIC OR LATINO",
    ".arm": "Xanomeline High Dose",
    ".armn": 2,
    ".mmse": 17,
    ".disease_duration": 18.1593,
    ".education": 12,
    ".weight": 87.5,
    ".height": 158.6,
    ".bmi": 34.8,
    ".randdt": "2013-11-03",
    ".rfstdtc": "2013-11-03"
  },
  {
    "STUDYID": "CDISCPILOT01",
    "DOMAIN": "DM",
    "USUBJID": "01-703-020",
    "SUBJID": "020",
    "SITEID": "703",
    "RFSTDTC": "2013-07-07",
    "RFXSTDTC": "2013-07-07",
    "AGE": 72,
    "AGEU": "YEARS",
    "SEX": "F",
    "RACE": "WHITE",
    "ARMCD": "Xan_Lo",
    "ARM": "Xanomeline Low Dose",
    "ACTARMCD": "Xan_Lo",
    "ACTARM": "Xanomeline Low Dose",
    "COUNTRY": "USA",
    "ETHNIC": "NOT HISPANIC OR LATINO",
    ".arm": "Xanomeline Low Dose",
    ".armn": 1,
    ".mmse": 24,
    ".disease_duration": 2,
    ".education": 11,
    ".weight": 62.2,
    ".height": 152.7,
    ".bmi": 26.7,
    ".randdt": "2013-07-07",
    ".rfstdtc": "2013-07-07"
  },
  {
    "STUDYID": "CDISCPILOT01",
    "DOMAIN": "DM",
    "USUBJID": "01-704-001",
    "SUBJID": "001",
    "SITEID": "704",
    "RFSTDTC": "2013-12-14",
    "RFXSTDTC": "2013-12-14",
    "AGE": 79,
    "AGEU": "YEARS",
    "SEX": "F",
    "RACE": "WHITE",
    "ARMCD": "Pbo",
    "ARM": "Placebo",
    "ACTARMCD": "Pbo",
    "ACTARM": "Placebo",
    "COUNTRY": "USA",
    "ETHNIC": "NOT HISPANIC OR LATINO",
    ".arm": "Placebo",
    ".armn": 0,
    ".mmse": 16,
    ".disease_duration": 2,
    ".education": 12,
    ".weight": 51.3,
    ".height": 159.4,
    ".bmi": 20.2,
    ".randdt": "2013-12-13",
    ".rfstdtc": "2013-12-14"
  },
  {
    "STUDYID": "CDISCPILOT01",
    "DOMAIN": "DM",
    "USUBJID": "01-704-002",
    "SUBJID": "002",
    "SITEID": "704",
    "RFSTDTC": "2013-02-21",
    "RFXSTDTC": "2013-02-21",
    "AGE": 89,
    "AGEU": "YEARS",
    "SEX": "M",
    "RACE": "WHITE",
    "ARMCD": "Pbo",
    "ARM": "Placebo",
    "ACTARMCD": "Pbo",
    "ACTARM": "Placebo",
    "COUNTRY": "USA",
    "ETHNIC": "NOT HISPANIC OR LATINO",
    ".arm": "Placebo",
    ".armn": 0,
    ".mmse": 18,
    ".disease_duration": 25.4645,
    ".education": 9,
    ".weight": 76.5,
    ".height": 160.6,
    ".bmi": 29.7,
    ".randdt": "2013-02-21",
    ".rfstdtc": "2013-02-21"
  },
  {
    "STUDYID": "CDISCPILOT01",
    "DOMAIN": "DM",
    "USUBJID": "01-704-003",
    "SUBJID": "003",
    "SITEID": "704",
    "RFSTDTC": "2013-06-22",
    "RFXSTDTC": "2013-06-22",
    "AGE": 78,
    "AGEU": "YEARS",
    "SEX": "M",
    "RACE": "WHITE",
    "ARMCD": "Xan_Lo",
    "ARM": "Xanomeline Low Dose",
    "ACTARMCD": "Xan_Lo",
    "ACTARM": "Xanomeline Low Dose",
    "COUNTRY": "USA",
    "ETHNIC": "NOT HISPANIC OR LATINO",
    ".arm": "Xanomeline Low Dose",
    ".armn": 1,
    ".mmse": 14,
    ".disease_duration": 127.4748,
    ".education": 20,
    ".weight": 71.7,
    ".height": 167.6,
    ".bmi": 25.5,
    ".randdt": "2013-06-22",
    ".rfstdtc": "2013-06-22"
  },
  {
    "STUDYID": "CDISCPILOT01",
    "DOMAIN": "DM",
    "USUBJID": "01-704-004",
    "SUBJID": "004",
    "SITEID": "704",
    "RFSTDTC": "2013-09-29",
    "RFXSTDTC": "2013-09-29",
    "AGE": 59,
    "AGEU": "YEARS",
    "SEX": "M",
    "RACE": "WHITE",
    "ARMCD": "Xan_Lo",
    "ARM": "Xanomeline Low Dose",
    "ACTARMCD": "Xan_Lo",
    "ACTARM": "Xanomeline Low Dose",
    "COUNTRY": "USA",
    "ETHNIC": "NOT HISPANIC OR LATINO",
    ".arm": "Xanomeline Low Dose",
    ".armn": 1,
    ".mmse": 17,
    ".disease_duration": 28.6804,
    ".education": 9,
    ".weight": 59.3,
    ".height": 171.2,
    ".bmi": 20.2,
    ".randdt": "2013-09-28",
    ".rfstdtc": "2013-09-29"
  },
  {
    "STUDYID": "CDISCPILOT01",
    "DOMAIN": "DM",
    "USUBJID": "01-704-005",
    "SUBJID": "005",
    "SITEID": "704",
    "RFSTDTC": "2013-11-08",
    "RFXSTDTC": "2013-11-08",
    "AGE": 76,
    "AGEU": "YEARS",
    "SEX": "F",
    "RACE": "WHITE",
    "ARMCD": "Pbo",
    "ARM": "Placebo",
    "ACTARMCD": "Pbo",
    "ACTARM": "Placebo",
    "COUNTRY": "USA",
    "ETHNIC": "NOT HISPANIC OR LATINO",
    ".arm": "Placebo",
    ".armn": 0,
    ".mmse": 17,
    ".disease_duration": 22.7233,
    ".education": 17,
    ".weight": 72.2,
    ".height": 153.2,
    ".bmi": 30.8,
    ".randdt": "2013-11-08",
    ".rfstdtc": "2013-11-08"
  },
  {
    "STUDYID": "CDISCPILOT01",
    "DOMAIN": "DM",
    "USUBJID": "01-704-006",
    "SUBJID": "006",
    "SITEID": "704",
    "RFSTDTC": "2013-10-29",
    "RFXSTDTC": "2013-10-29",
    "AGE": 85,
    "AGEU": "YEARS",
    "SEX": "M",
    "RACE": "WHITE",
    "ARMCD": "Pbo",
    "ARM": "Placebo",
    "ACTARMCD": "Pbo",
    "ACTARM": "Placebo",
    "COUNTRY": "USA",
    "ETHNIC": "NOT HISPANIC OR LATINO",
    ".arm": "Placebo",
    ".armn": 0,
    ".mmse": 21,
    ".disease_duration": 17.6108,
    ".education": 14,
    ".weight": 84.3,
    ".height": 170.2,
    ".bmi": 29.1,
    ".randdt": "2013-10-28",
    ".rfstdtc": "2013-10-29"
  },
  {
    "STUDYID": "CDISCPILOT01",
    "DOMAIN": "DM",
    "USUBJID": "01-704-007",
    "SUBJID": "007",
    "SITEID": "704",
    "RFSTDTC": "2013-12-16",
    "RFXSTDTC": "2013-12-16",
    "AGE": 73,
    "AGEU": "YEARS",
    "SEX": "F",
    "RACE": "WHITE",
    "ARMCD": "Pbo",
    "ARM": "Placebo",
    "ACTARMCD": "Pbo",
    "ACTARM": "Placebo",
    "COUNTRY": "USA",
    "ETHNIC": "NOT HISPANIC OR LATINO",
    ".arm": "Placebo",
    ".armn": 0,
    ".mmse": 19,
    ".disease_duration": 49.8594,
    ".education": 10,
    ".weight": 70.1,
    ".height": 158.2,
    ".bmi": 28,
    ".randdt": "2013-12-16",
    ".rfstdtc": "2013-12-16"
  },
  {
    "STUDYID": "CDISCPILOT01",
    "DOMAIN": "DM",
    "USUBJID": "01-704-008",
    "SUBJID": "008",
    "SITEID": "704",
    "RFSTDTC": "2013-07-05",
    "RFXSTDTC": "2013-07-05",
    "AGE": 78,
    "AGEU": "YEARS",
    "SEX": "F",
    "RACE": "WHITE",
    "ARMCD": "Xan_Hi",
    "ARM": "Xanomeline High Dose",
    "ACTARMCD": "Xan_Hi",
    "ACTARM": "Xanomeline High Dose",
    "COUNTRY": "USA",
    "ETHNIC": "NOT HISPANIC OR LATINO",
    ".arm": "Xanomeline High Dose",
    ".armn": 2,
    ".mmse": 24,
    ".disease_duration": 25.9999,
    ".education": 13,
    ".weight": 78,
    ".height": 161.4,
    ".bmi": 29.9,
    ".randdt": "2013-07-04",
    ".rfstdtc": "2013-07-05"
  },
  {
    "STUDYID": "CDISCPILOT01",
    "DOMAIN": "DM",
    "USUBJID": "01-704-009",
    "SUBJID": "009",
    "SITEID": "704",
    "RFSTDTC": "2013-07-11",
    "RFXSTDTC": "2013-07-11",
    "AGE": 75,
    "AGEU": "YEARS",
    "SEX": "M",
    "RACE": "WHITE",
    "ARMCD": "Xan_Hi",
    "ARM": "Xanomeline High Dose",
    "ACTARMCD": "Xan_Hi",
    "ACTARM": "Xanomeline High Dose",
    "COUNTRY": "USA",
    "ETHNIC": "NOT HISPANIC OR LATINO",
    ".arm": "Xanomeline High Dose",
    ".armn": 2,
    ".mmse": 11,
    ".disease_duration": 104.2037,
    ".education": 15,
    ".weight": 66.6,
    ".height": 166.2,
    ".bmi": 24.1,
    ".randdt": "2013-07-10",
    ".rfstdtc": "2013-07-11"
  },
  {
    "STUDYID": "CDISCPILOT01",
    "DOMAIN": "DM",
    "USUBJID": "01-704-010",
    "SUBJID": "010",
    "SITEID": "704",
    "RFSTDTC": "2013-09-21",
    "RFXSTDTC": "2013-09-21",
    "AGE": 72,
    "AGEU": "YEARS",
    "SEX": "F",
    "RACE": "WHITE",
    "ARMCD": "Xan_Hi",
    "ARM": "Xanomeline High Dose",
    "ACTARMCD": "Xan_Hi",
    "ACTARM": "Xanomeline High Dose",
    "COUNTRY": "USA",
    "ETHNIC": "NOT HISPANIC OR LATINO",
    ".arm": "Xanomeline High Dose",
    ".armn": 2,
    ".mmse": 18,
    ".disease_duration": 117.9755,
    ".education": 17,
    ".weight": 63.6,
    ".height": 151.3,
    ".bmi": 27.8,
    ".randdt": "2013-09-21",
    ".rfstdtc": "2013-09-21"
  },
  {
    "STUDYID": "CDISCPILOT01",
    "DOMAIN": "DM",
    "USUBJID": "01-704-011",
    "SUBJID": "011",
    "SITEID": "704",
    "RFSTDTC": "2013-11-09",
    "RFXSTDTC": "2013-11-09",
    "AGE": 71,
    "AGEU": "YEARS",
    "SEX": "M",
    "RACE": "WHITE",
    "ARMCD": "Pbo",
    "ARM": "Placebo",
    "ACTARMCD": "Pbo",
    "ACTARM": "Placebo",
    "COUNTRY": "USA",
    "ETHNIC": "NOT HISPANIC OR LATINO",
    ".arm": "Placebo",
    ".armn": 0,
    ".mmse": 17,
    ".disease_duration": 67.1665,
    ".education": 9,
    ".weight": 97,
    ".height": 168,
    ".bmi": 34.4,
    ".randdt": "2013-11-08",
    ".rfstdtc": "2013-11-09"
  },
  {
    "STUDYID": "CDISCPILOT01",
    "DOMAIN": "DM",
    "USUBJID": "01-704-012",
    "SUBJID": "012",
    "SITEID": "704",
    "RFSTDTC": "2013-11-17",
    "RFXSTDTC": "2013-11-17",
    "AGE": 69,
    "AGEU": "YEARS",
    "SEX": "M",
    "RACE": "HISPANIC OR LATINO",
    "ARMCD": "Xan_Lo",
    "ARM": "Xanomeline Low Dose",
    "ACTARMCD": "Xan_Lo",
    "ACTARM": "Xanomeline Low Dose",
    "COUNTRY": "USA",
    "ETHNIC": "NOT HISPANIC OR LATINO",
    ".arm": "Xanomeline Low Dose",
    ".armn": 1,
    ".mmse": 20,
    ".disease_duration": 38.393,
    ".education": 9,
    ".weight": 64.5,
    ".height": 180.8,
    ".bmi": 19.7,
    ".randdt": "2013-11-17",
    ".rfstdtc": "2013-11-17"
  },
  {
    "STUDYID": "CDISCPILOT01",
    "DOMAIN": "DM",
    "USUBJID": "01-704-013",
    "SUBJID": "013",
    "SITEID": "704",
    "RFSTDTC": "2013-05-06",
    "RFXSTDTC": "2013-05-06",
    "AGE": 66,
    "AGEU": "YEARS",
    "SEX": "F",
    "RACE": "WHITE",
    "ARMCD": "Pbo",
    "ARM": "Placebo",
    "ACTARMCD": "Pbo",
    "ACTARM": "Placebo",
    "COUNTRY": "USA",
    "ETHNIC": "NOT HISPANIC OR LATINO",
    ".arm": "Placebo",
    ".armn": 0,
    ".mmse": 20,
    ".disease_duration": 22.2695,
    ".education": 16,
    ".weight": 58.1,
    ".height": 154.6,
    ".bmi": 24.3,
    ".randdt": "2013-05-05",
    ".rfstdtc": "2013-05-06"
  },
  {
    "STUDYID": "CDISCPILOT01",
    "DOMAIN": "DM",
    "USUBJID": "01-704-014",
    "SUBJID": "014",
    "SITEID": "704",
    "RFSTDTC": "2013-09-04",
    "RFXSTDTC": "2013-09-04",
    "AGE": 67,
    "AGEU": "YEARS",
    "SEX": "M",
    "RACE": "WHITE",
    "ARMCD": "Pbo",
    "ARM": "Placebo",
    "ACTARMCD": "Pbo",
    "ACTARM": "Placebo",
    "COUNTRY": "USA",
    "ETHNIC": "NOT HISPANIC OR LATINO",
    ".arm": "Placebo",
    ".armn": 0,
    ".mmse": 20,
    ".disease_duration": 50.5292,
    ".education": 14,
    ".weight": 74.2,
    ".height": 163.7,
    ".bmi": 27.7,
    ".randdt": "2013-09-04",
    ".rfstdtc": "2013-09-04"
  },
  {
    "STUDYID": "CDISCPILOT01",
    "DOMAIN": "DM",
    "USUBJID": "01-704-015",
    "SUBJID": "015",
    "SITEID": "704",
    "RFSTDTC": "2013-05-08",
    "RFXSTDTC": "2013-05-08",
    "AGE": 87,
    "AGEU": "YEARS",
    "SEX": "M",
    "RACE": "WHITE",
    "ARMCD": "Xan_Lo",
    "ARM": "Xanomeline Low Dose",
    "ACTARMCD": "Xan_Lo",
    "ACTARM": "Xanomeline Low Dose",
    "COUNTRY": "USA",
    "ETHNIC": "NOT HISPANIC OR LATINO",
    ".arm": "Xanomeline Low Dose",
    ".armn": 1,
    ".mmse": 17,
    ".disease_duration": 25.2505,
    ".education": 12,
    ".weight": 73,
    ".height": 176.8,
    ".bmi": 23.4,
    ".randdt": "2013-05-08",
    ".rfstdtc": "2013-05-08"
  },
  {
    "STUDYID": "CDISCPILOT01",
    "DOMAIN": "DM",
    "USUBJID": "01-704-016",
    "SUBJID": "016",
    "SITEID": "704",
    "RFSTDTC": "2013-09-02",
    "RFXSTDTC": "2013-09-02",
    "AGE": 89,
    "AGEU": "YEARS",
    "SEX": "M",
    "RACE": "HISPANIC OR LATINO",
    "ARMCD": "Xan_Lo",
    "ARM": "Xanomeline Low Dose",
    "ACTARMCD": "Xan_Lo",
    "ACTARM": "Xanomeline Low Dose",
    "COUNTRY": "USA",
    "ETHNIC": "NOT HISPANIC OR LATINO",
    ".arm": "Xanomeline Low Dose",
    ".armn": 1,
    ".mmse": 21,
    ".disease_duration": 44.2755,
    ".education": 13,
    ".weight": 49.3,
    ".height": 160.3,
    ".bmi": 19.2,
    ".randdt": "2013-09-02",
    ".rfstdtc": "2013-09-02"
  },
  {
    "STUDYID": "CDISCPILOT01",
    "DOMAIN": "DM",
    "USUBJID": "01-704-017",
    "SUBJID": "017",
    "SITEID": "704",
    "RFSTDTC": "2013-01-11",
    "RFXSTDTC": "2013-01-11",
    "AGE": 62,
    "AGEU": "YEARS",
    "SEX": "F",
    "RACE": "WHITE",
    "ARMCD": "Pbo",
    "ARM": "Placebo",
    "ACTARMCD": "Pbo",
    "ACTARM": "Placebo",
    "COUNTRY": "USA",
    "ETHNIC": "NOT HISPANIC OR LATINO",
    ".arm": "Placebo",
    ".armn": 0,
    ".mmse": 21,
    ".disease_duration": 2,
    ".education": 12,
    ".weight": 77.6,
    ".height": 154.2,
    ".bmi": 32.6,
    ".randdt": "2013-01-11",
    ".rfstdtc": "2013-01-11"
  },
  {
    "STUDYID": "CDISCPILOT01",
    "DOMAIN": "DM",
    "USUBJID": "01-704-018",
    "SUBJID": "018",
    "SITEID": "704",
    "RFSTDTC": "2013-06-21",
    "RFXSTDTC": "2013-06-21",
    "AGE": 61,
    "AGEU": "YEARS",
    "SEX": "F",
    "RACE": "WHITE",
    "ARMCD": "Pbo",
    "ARM": "Placebo",
    "ACTARMCD": "Pbo",
    "ACTARM": "Placebo",
    "COUNTRY": "USA",
    "ETHNIC": "NOT HISPANIC OR LATINO",
    ".arm": "Placebo",
    ".armn": 0,
    ".mmse": 19,
    ".disease_duration": 19.3517,
    ".education": 9,
    ".weight": 79.3,
    ".height": 163,
    ".bmi": 29.8,
    ".randdt": "2013-06-21",
    ".rfstdtc": "2013-06-21"
  },
  {
    "STUDYID": "CDISCPILOT01",
    "DOMAIN": "DM",
    "USUBJID": "01-704-019",
    "SUBJID": "019",
    "SITEID": "704",
    "RFSTDTC": "2013-08-07",
    "RFXSTDTC": "2013-08-07",
    "AGE": 75,
    "AGEU": "YEARS",
    "SEX": "F",
    "RACE": "WHITE",
    "ARMCD": "Xan_Lo",
    "ARM": "Xanomeline Low Dose",
    "ACTARMCD": "Xan_Lo",
    "ACTARM": "Xanomeline Low Dose",
    "COUNTRY": "USA",
    "ETHNIC": "NOT HISPANIC OR LATINO",
    ".arm": "Xanomeline Low Dose",
    ".armn": 1,
    ".mmse": 24,
    ".disease_duration": 49.9882,
    ".education": 11,
    ".weight": 81.8,
    ".height": 159.8,
    ".bmi": 32,
    ".randdt": "2013-08-06",
    ".rfstdtc": "2013-08-07"
  },
  {
    "STUDYID": "CDISCPILOT01",
    "DOMAIN": "DM",
    "USUBJID": "01-704-020",
    "SUBJID": "020",
    "SITEID": "704",
    "RFSTDTC": "2013-02-28",
    "RFXSTDTC": "2013-02-28",
    "AGE": 64,
    "AGEU": "YEARS",
    "SEX": "F",
    "RACE": "WHITE",
    "ARMCD": "Xan_Hi",
    "ARM": "Xanomeline High Dose",
    "ACTARMCD": "Xan_Hi",
    "ACTARM": "Xanomeline High Dose",
    "COUNTRY": "USA",
    "ETHNIC": "NOT HISPANIC OR LATINO",
    ".arm": "Xanomeline High Dose",
    ".armn": 2,
    ".mmse": 17,
    ".disease_duration": 120.0402,
    ".education": 6,
    ".weight": 74.7,
    ".height": 155.9,
    ".bmi": 30.7,
    ".randdt": "2013-02-28",
    ".rfstdtc": "2013-02-28"
  },
  {
    "STUDYID": "CDISCPILOT01",
    "DOMAIN": "DM",
    "USUBJID": "01-704-021",
    "SUBJID": "021",
    "SITEID": "704",
    "RFSTDTC": "2013-05-30",
    "RFXSTDTC": "2013-05-30",
    "AGE": 84,
    "AGEU": "YEARS",
    "SEX": "M",
    "RACE": "WHITE",
    "ARMCD": "Pbo",
    "ARM": "Placebo",
    "ACTARMCD": "Pbo",
    "ACTARM": "Placebo",
    "COUNTRY": "USA",
    "ETHNIC": "NOT HISPANIC OR LATINO",
    ".arm": "Placebo",
    ".armn": 0,
    ".mmse": 11,
    ".disease_duration": 51.1171,
    ".education": 13,
    ".weight": 72.8,
    ".height": 165.8,
    ".bmi": 26.5,
    ".randdt": "2013-05-29",
    ".rfstdtc": "2013-05-30"
  },
  {
    "STUDYID": "CDISCPILOT01",
    "DOMAIN": "DM",
    "USUBJID": "01-704-022",
    "SUBJID": "022",
    "SITEID": "704",
    "RFSTDTC": "2013-01-29",
    "RFXSTDTC": "2013-01-29",
    "AGE": 74,
    "AGEU": "YEARS",
    "SEX": "M",
    "RACE": "WHITE",
    "ARMCD": "Xan_Lo",
    "ARM": "Xanomeline Low Dose",
    "ACTARMCD": "Xan_Lo",
    "ACTARM": "Xanomeline Low Dose",
    "COUNTRY": "USA",
    "ETHNIC": "NOT HISPANIC OR LATINO",
    ".arm": "Xanomeline Low Dose",
    ".armn": 1,
    ".mmse": 17,
    ".disease_duration": 3.0227,
    ".education": 18,
    ".weight": 104.4,
    ".height": 166.4,
    ".bmi": 37.7,
    ".randdt": "2013-01-28",
    ".rfstdtc": "2013-01-29"
  },
  {
    "STUDYID": "CDISCPILOT01",
    "DOMAIN": "DM",
    "USUBJID": "01-704-023",
    "SUBJID": "023",
    "SITEID": "704",
    "RFSTDTC": "2013-09-06",
    "RFXSTDTC": "2013-09-06",
    "AGE": 68,
    "AGEU": "YEARS",
    "SEX": "M",
    "RACE": "WHITE",
    "ARMCD": "Xan_Hi",
    "ARM": "Xanomeline High Dose",
    "ACTARMCD": "Xan_Hi",
    "ACTARM": "Xanomeline High Dose",
    "COUNTRY": "USA",
    "ETHNIC": "NOT HISPANIC OR LATINO",
    ".arm": "Xanomeline High Dose",
    ".armn": 2,
    ".mmse": 15,
    ".disease_duration": 84.9933,
    ".education": 13,
    ".weight": 70,
    ".height": 167.7,
    ".bmi": 24.9,
    ".randdt": "2013-09-06",
    ".rfstdtc": "2013-09-06"
  },
  {
    "STUDYID": "CDISCPILOT01",
    "DOMAIN": "DM",
    "USUBJID": "01-704-024",
    "SUBJID": "024",
    "SITEID": "704",
    "RFSTDTC": "2013-08-18",
    "RFXSTDTC": "2013-08-18",
    "AGE": 74,
    "AGEU": "YEARS",
    "SEX": "F",
    "RACE": "BLACK OR AFRICAN AMERICAN",
    "ARMCD": "Pbo",
    "ARM": "Placebo",
    "ACTARMCD": "Pbo",
    "ACTARM": "Placebo",
    "COUNTRY": "USA",
    "ETHNIC": "HISPANIC OR LATINO",
    ".arm": "Placebo",
    ".armn": 0,
    ".mmse": 16,
    ".disease_duration": 45.3594,
    ".education": 13,
    ".weight": 52,
    ".height": 153.8,
    ".bmi": 22,
    ".randdt": "2013-08-17",
    ".rfstdtc": "2013-08-18"
  },
  {
    "STUDYID": "CDISCPILOT01",
    "DOMAIN": "DM",
    "USUBJID": "01-704-025",
    "SUBJID": "025",
    "SITEID": "704",
    "RFSTDTC": "2013-04-05",
    "RFXSTDTC": "2013-04-05",
    "AGE": 77,
    "AGEU": "YEARS",
    "SEX": "F",
    "RACE": "WHITE",
    "ARMCD": "Pbo",
    "ARM": "Placebo",
    "ACTARMCD": "Pbo",
    "ACTARM": "Placebo",
    "COUNTRY": "USA",
    "ETHNIC": "NOT HISPANIC OR LATINO",
    ".arm": "Placebo",
    ".armn": 0,
    ".mmse": 20,
    ".disease_duration": 45.0796,
    ".education": 15,
    ".weight": 57.9,
    ".height": 154.6,
    ".bmi": 24.2,
    ".randdt": "2013-04-04",
    ".rfstdtc": "2013-04-05"
  },
  {
    "STUDYID": "CDISCPILOT01",
    "DOMAIN": "DM",
    "USUBJID": "01-705-001",
    "SUBJID": "001",
    "SITEID": "705",
    "RFSTDTC": "2013-08-02",
    "RFXSTDTC": "2013-08-02",
    "AGE": 62,
    "AGEU": "YEARS",
    "SEX": "M",
    "RACE": "WHITE",
    "ARMCD": "Xan_Hi",
    "ARM": "Xanomeline High Dose",
    "ACTARMCD": "Xan_Hi",
    "ACTARM": "Xanomeline High Dose",
    "COUNTRY": "USA",
    "ETHNIC": "NOT HISPANIC OR LATINO",
    ".arm": "Xanomeline High Dose",
    ".armn": 2,
    ".mmse": 15,
    ".disease_duration": 81.1145,
    ".education": 12,
    ".weight": 82.4,
    ".height": 175.6,
    ".bmi": 26.7,
    ".randdt": "2013-08-02",
    ".rfstdtc": "2013-08-02"
  },
  {
    "STUDYID": "CDISCPILOT01",
    "DOMAIN": "DM",
    "USUBJID": "01-705-002",
    "SUBJID": "002",
    "SITEID": "705",
    "RFSTDTC": "2013-08-15",
    "RFXSTDTC": "2013-08-15",
    "AGE": 68,
    "AGEU": "YEARS",
    "SEX": "M",
    "RACE": "WHITE",
    "ARMCD": "Xan_Hi",
    "ARM": "Xanomeline High Dose",
    "ACTARMCD": "Xan_Hi",
    "ACTARM": "Xanomeline High Dose",
    "COUNTRY": "USA",
    "ETHNIC": "NOT HISPANIC OR LATINO",
    ".arm": "Xanomeline High Dose",
    ".armn": 2,
    ".mmse": 23,
    ".disease_duration": 32.2888,
    ".education": 16,
    ".weight": 69.8,
    ".height": 178.1,
    ".bmi": 22,
    ".randdt": "2013-08-14",
    ".rfstdtc": "2013-08-15"
  },
  {
    "STUDYID": "CDISCPILOT01",
    "DOMAIN": "DM",
    "USUBJID": "01-705-003",
    "SUBJID": "003",
    "SITEID": "705",
    "RFSTDTC": "2013-12-28",
    "RFXSTDTC": "2013-12-28",
    "AGE": 82,
    "AGEU": "YEARS",
    "SEX": "M",
    "RACE": "WHITE",
    "ARMCD": "Xan_Hi",
    "ARM": "Xanomeline High Dose",
    "ACTARMCD": "Xan_Hi",
    "ACTARM": "Xanomeline High Dose",
    "COUNTRY": "USA",
    "ETHNIC": "NOT HISPANIC OR LATINO",
    ".arm": "Xanomeline High Dose",
    ".armn": 2,
    ".mmse": 24,
    ".disease_duration": 65.3034,
    ".education": 12,
    ".weight": 75.4,
    ".height": 174.3,
    ".bmi": 24.8,
    ".randdt": "2013-12-28",
    ".rfstdtc": "2013-12-28"
  },
  {
    "STUDYID": "CDISCPILOT01",
    "DOMAIN": "DM",
    "USUBJID": "01-705-004",
    "SUBJID": "004",
    "SITEID": "705",
    "RFSTDTC": "2013-09-08",
    "RFXSTDTC": "2013-09-08",
    "AGE": 76,
    "AGEU": "YEARS",
    "SEX": "F",
    "RACE": "HISPANIC OR LATINO",
    "ARMCD": "Xan_Hi",
    "ARM": "Xanomeline High Dose",
    "ACTARMCD": "Xan_Hi",
    "ACTARM": "Xanomeline High Dose",
    "COUNTRY": "USA",
    "ETHNIC": "NOT HISPANIC OR LATINO",
    ".arm": "Xanomeline High Dose",
    ".armn": 2,
    ".mmse": 23,
    ".disease_duration": 28.4851,
    ".education": 12,
    ".weight": 70.6,
    ".height": 153.3,
    ".bmi": 30,
    ".randdt": "2013-09-08",
    ".rfstdtc": "2013-09-08"
  },
  {
    "STUDYID": "CDISCPILOT01",
    "DOMAIN": "DM",
    "USUBJID": "01-705-005",
    "SUBJID": "005",
    "SITEID": "705",
    "RFSTDTC": "2013-05-27",
    "RFXSTDTC": "2013-05-27",
    "AGE": 68,
    "AGEU": "YEARS",
    "SEX": "M",
    "RACE": "WHITE",
    "ARMCD": "Xan_Lo",
    "ARM": "Xanomeline Low Dose",
    "ACTARMCD": "Xan_Lo",
    "ACTARM": "Xanomeline Low Dose",
    "COUNTRY": "USA",
    "ETHNIC": "NOT HISPANIC OR LATINO",
    ".arm": "Xanomeline Low Dose",
    ".armn": 1,
    ".mmse": 13,
    ".disease_duration": 74.1226,
    ".education": 8,
    ".weight": 45.8,
    ".height": 170.1,
    ".bmi": 15.8,
    ".randdt": "2013-05-26",
    ".rfstdtc": "2013-05-27"
  },
  {
    "STUDYID": "CDISCPILOT01",
    "DOMAIN": "DM",
    "USUBJID": "01-705-006",
    "SUBJID": "006",
    "SITEID": "705",
    "RFSTDTC": "2013-12-13",
    "RFXSTDTC": "2013-12-13",
    "AGE": 61,
    "AGEU": "YEARS",
    "SEX": "F",
    "RACE": "BLACK OR AFRICAN AMERICAN",
    "ARMCD": "Xan_Lo",
    "ARM": "Xanomeline Low Dose",
    "ACTARMCD": "Xan_Lo",
    "ACTARM": "Xanomeline Low Dose",
    "COUNTRY": "USA",
    "ETHNIC": "HISPANIC OR LATINO",
    ".arm": "Xanomeline Low Dose",
    ".armn": 1,
    ".mmse": 15,
    ".disease_duration": 97.1789,
    ".education": 19,
    ".weight": 61.8,
    ".height": 153.2,
    ".bmi": 26.3,
    ".randdt": "2013-12-12",
    ".rfstdtc": "2013-12-13"
  },
  {
    "STUDYID": "CDISCPILOT01",
    "DOMAIN": "DM",
    "USUBJID": "01-705-007",
    "SUBJID": "007",
    "SITEID": "705",
    "RFSTDTC": "2013-10-04",
    "RFXSTDTC": "2013-10-04",
    "AGE": 72,
    "AGEU": "YEARS",
    "SEX": "M",
    "RACE": "BLACK OR AFRICAN AMERICAN",
    "ARMCD": "Xan_Lo",
    "ARM": "Xanomeline Low Dose",
    "ACTARMCD": "Xan_Lo",
    "ACTARM": "Xanomeline Low Dose",
    "COUNTRY": "USA",
    "ETHNIC": "NOT HISPANIC OR LATINO",
    ".arm": "Xanomeline Low Dose",
    ".armn": 1,
    ".mmse": 14,
    ".disease_duration": 57.6493,
    ".education": 4,
    ".weight": 50.7,
    ".height": 163.7,
    ".bmi": 18.9,
    ".randdt": "2013-10-03",
    ".rfstdtc": "2013-10-04"
  },
  {
    "STUDYID": "CDISCPILOT01",
    "DOMAIN": "DM",
    "USUBJID": "01-705-008",
    "SUBJID": "008",
    "SITEID": "705",
    "RFSTDTC": "2013-05-16",
    "RFXSTDTC": "2013-05-16",
    "AGE": 82,
    "AGEU": "YEARS",
    "SEX": "F",
    "RACE": "WHITE",
    "ARMCD": "Pbo",
    "ARM": "Placebo",
    "ACTARMCD": "Pbo",
    "ACTARM": "Placebo",
    "COUNTRY": "USA",
    "ETHNIC": "NOT HISPANIC OR LATINO",
    ".arm": "Placebo",
    ".armn": 0,
    ".mmse": 18,
    ".disease_duration": 61.7366,
    ".education": 15,
    ".weight": 49.2,
    ".height": 158.3,
    ".bmi": 19.6,
    ".randdt": "2013-05-16",
    ".rfstdtc": "2013-05-16"
  },
  {
    "STUDYID": "CDISCPILOT01",
    "DOMAIN": "DM",
    "USUBJID": "01-705-009",
    "SUBJID": "009",
    "SITEID": "705",
    "RFSTDTC": "2013-09-07",
    "RFXSTDTC": "2013-09-07",
    "AGE": 84,
    "AGEU": "YEARS",
    "SEX": "F",
    "RACE": "BLACK OR AFRICAN AMERICAN",
    "ARMCD": "Pbo",
    "ARM": "Placebo",
    "ACTARMCD": "Pbo",
    "ACTARM": "Placebo",
    "COUNTRY": "USA",
    "ETHNIC": "NOT HISPANIC OR LATINO",
    ".arm": "Placebo",
    ".armn": 0,
    ".mmse": 21,
    ".disease_duration": 39.6445,
    ".education": 6,
    ".weight": 61.3,
    ".height": 156.9,
    ".bmi": 24.9,
    ".randdt": "2013-09-06",
    ".rfstdtc": "2013-09-07"
  },
  {
    "STUDYID": "CDISCPILOT01",
    "DOMAIN": "DM",
    "USUBJID": "01-705-010",
    "SUBJID": "010",
    "SITEID": "705",
    "RFSTDTC": "2013-08-02",
    "RFXSTDTC": "2013-08-02",
    "AGE": 86,
    "AGEU": "YEARS",
    "SEX": "F",
    "RACE": "WHITE",
    "ARMCD": "Pbo",
    "ARM": "Placebo",
    "ACTARMCD": "Pbo",
    "ACTARM": "Placebo",
    "COUNTRY": "USA",
    "ETHNIC": "NOT HISPANIC OR LATINO",
    ".arm": "Placebo",
    ".armn": 0,
    ".mmse": 21,
    ".disease_duration": 11.8013,
    ".education": 18,
    ".weight": 62,
    ".height": 154.7,
    ".bmi": 25.9,
    ".randdt": "2013-08-02",
    ".rfstdtc": "2013-08-02"
  },
  {
    "STUDYID": "CDISCPILOT01",
    "DOMAIN": "DM",
    "USUBJID": "01-705-011",
    "SUBJID": "011",
    "SITEID": "705",
    "RFSTDTC": "2013-08-26",
    "RFXSTDTC": "2013-08-26",
    "AGE": 73,
    "AGEU": "YEARS",
    "SEX": "M",
    "RACE": "BLACK OR AFRICAN AMERICAN",
    "ARMCD": "Pbo",
    "ARM": "Placebo",
    "ACTARMCD": "Pbo",
    "ACTARM": "Placebo",
    "COUNTRY": "USA",
    "ETHNIC": "NOT HISPANIC OR LATINO",
    ".arm": "Placebo",
    ".armn": 0,
    ".mmse": 19,
    ".disease_duration": 17.8757,
    ".education": 20,
    ".weight": 75.8,
    ".height": 165.4,
    ".bmi": 27.7,
    ".randdt": "2013-08-26",
    ".rfstdtc": "2013-08-26"
  },
  {
    "STUDYID": "CDISCPILOT01",
    "DOMAIN": "DM",
    "USUBJID": "01-705-012",
    "SUBJID": "012",
    "SITEID": "705",
    "RFSTDTC": "2013-08-27",
    "RFXSTDTC": "2013-08-27",
    "AGE": 80,
    "AGEU": "YEARS",
    "SEX": "M",
    "RACE": "WHITE",
    "ARMCD": "Pbo",
    "ARM": "Placebo",
    "ACTARMCD": "Pbo",
    "ACTARM": "Placebo",
    "COUNTRY": "USA",
    "ETHNIC": "NOT HISPANIC OR LATINO",
    ".arm": "Placebo",
    ".armn": 0,
    ".mmse": 18,
    ".disease_duration": 72.1359,
    ".education": 13,
    ".weight": 73.9,
    ".height": 169.4,
    ".bmi": 25.8,
    ".randdt": "2013-08-27",
    ".rfstdtc": "2013-08-27"
  },
  {
    "STUDYID": "CDISCPILOT01",
    "DOMAIN": "DM",
    "USUBJID": "01-705-013",
    "SUBJID": "013",
    "SITEID": "705",
    "RFSTDTC": "2013-02-07",
    "RFXSTDTC": "2013-02-07",
    "AGE": 85,
    "AGEU": "YEARS",
    "SEX": "F",
    "RACE": "WHITE",
    "ARMCD": "Pbo",
    "ARM": "Placebo",
    "ACTARMCD": "Pbo",
    "ACTARM": "Placebo",
    "COUNTRY": "USA",
    "ETHNIC": "NOT HISPANIC OR LATINO",
    ".arm": "Placebo",
    ".armn": 0,
    ".mmse": 12,
    ".disease_duration": 19.2563,
    ".education": 20,
    ".weight": 48.4,
    ".height": 157.1,
    ".bmi": 19.6,
    ".randdt": "2013-02-07",
    ".rfstdtc": "2013-02-07"
  },
  {
    "STUDYID": "CDISCPILOT01",
    "DOMAIN": "DM",
    "USUBJID": "01-705-014",
    "SUBJID": "014",
    "SITEID": "705",
    "RFSTDTC": "2013-02-23",
    "RFXSTDTC": "2013-02-23",
    "AGE": 77,
    "AGEU": "YEARS",
    "SEX": "F",
    "RACE": "WHITE",
    "ARMCD": "Xan_Hi",
    "ARM": "Xanomeline High Dose",
    "ACTARMCD": "Xan_Hi",
    "ACTARM": "Xanomeline High Dose",
    "COUNTRY": "USA",
    "ETHNIC": "NOT HISPANIC OR LATINO",
    ".arm": "Xanomeline High Dose",
    ".armn": 2,
    ".mmse": 18,
    ".disease_duration": 42.5175,
    ".education": 11,
    ".weight": 92.6,
    ".height": 158.6,
    ".bmi": 36.8,
    ".randdt": "2013-02-22",
    ".rfstdtc": "2013-02-23"
  },
  {
    "STUDYID": "CDISCPILOT01",
    "DOMAIN": "DM",
    "USUBJID": "01-706-001",
    "SUBJID": "001",
    "SITEID": "706",
    "RFSTDTC": "2013-01-31",
    "RFXSTDTC": "2013-01-31",
    "AGE": 80,
    "AGEU": "YEARS",
    "SEX": "M",
    "RACE": "WHITE",
    "ARMCD": "Xan_Hi",
    "ARM": "Xanomeline High Dose",
    "ACTARMCD": "Xan_Hi",
    "ACTARM": "Xanomeline High Dose",
    "COUNTRY": "USA",
    "ETHNIC": "NOT HISPANIC OR LATINO",
    ".arm": "Xanomeline High Dose",
    ".armn": 2,
    ".mmse": 23,
    ".disease_duration": 73.0164,
    ".education": 16,
    ".weight": 80.5,
    ".height": 173.4,
    ".bmi": 26.8,
    ".randdt": "2013-01-31",
    ".rfstdtc": "2013-01-31"
  },
  {
    "STUDYID": "CDISCPILOT01",
    "DOMAIN": "DM",
    "USUBJID": "01-706-002",
    "SUBJID": "002",
    "SITEID": "706",
    "RFSTDTC": "2013-02-15",
    "RFXSTDTC": "2013-02-15",
    "AGE": 63,
    "AGEU": "YEARS",
    "SEX": "F",
    "RACE": "WHITE",
    "ARMCD": "Pbo",
    "ARM": "Placebo",
    "ACTARMCD": "Pbo",
    "ACTARM": "Placebo",
    "COUNTRY": "USA",
    "ETHNIC": "NOT HISPANIC OR LATINO",
    ".arm": "Placebo",
    ".armn": 0,
    ".mmse": 18,
    ".disease_duration": 13.3776,
    ".education": 14,
    ".weight": 64,
    ".height": 158.3,
    ".bmi": 25.5,
    ".randdt": "2013-02-14",
    ".rfstdtc": "2013-02-15"
  },
  {
    "STUDYID": "CDISCPILOT01",
    "DOMAIN": "DM",
    "USUBJID": "01-706-003",
    "SUBJID": "003",
    "SITEID": "706",
    "RFSTDTC": "2013-03-10",
    "RFXSTDTC": "2013-03-10",
    "AGE": 69,
    "AGEU": "YEARS",
    "SEX": "M",
    "RACE": "WHITE",
    "ARMCD": "Xan_Lo",
    "ARM": "Xanomeline Low Dose",
    "ACTARMCD": "Xan_Lo",
    "ACTARM": "Xanomeline Low Dose",
    "COUNTRY": "USA",
    "ETHNIC": "NOT HISPANIC OR LATINO",
    ".arm": "Xanomeline Low Dose",
    ".armn": 1,
    ".mmse": 23,
    ".disease_duration": 71.6625,
    ".education": 8,
    ".weight": 55,
    ".height": 176,
    ".bmi": 17.8,
    ".randdt": "2013-03-10",
    ".rfstdtc": "2013-03-10"
  },
  {
    "STUDYID": "CDISCPILOT01",
    "DOMAIN": "DM",
    "USUBJID": "01-707-001",
    "SUBJID": "001",
    "SITEID": "707",
    "RFSTDTC": "2013-02-11",
    "RFXSTDTC": "2013-02-11",
    "AGE": 87,
    "AGEU": "YEARS",
    "SEX": "F",
    "RACE": "WHITE",
    "ARMCD": "Xan_Lo",
    "ARM": "Xanomeline Low Dose",
    "ACTARMCD": "Xan_Lo",
    "ACTARM": "Xanomeline Low Dose",
    "COUNTRY": "USA",
    "ETHNIC": "NOT HISPANIC OR LATINO",
    ".arm": "Xanomeline Low Dose",
    ".armn": 1,
    ".mmse": 17,
    ".disease_duration": 37.4049,
    ".education": 21,
    ".weight": 39,
    ".height": 152.1,
    ".bmi": 16.9,
    ".randdt": "2013-02-11",
    ".rfstdtc": "2013-02-11"
  },
  {
    "STUDYID": "CDISCPILOT01",
    "DOMAIN": "DM",
    "USUBJID": "01-707-002",
    "SUBJID": "002",
    "SITEID": "707",
    "RFSTDTC": "2013-08-22",
    "RFXSTDTC": "2013-08-22",
    "AGE": 83,
    "AGEU": "YEARS",
    "SEX": "M",
    "RACE": "WHITE",
    "ARMCD": "Pbo",
    "ARM": "Placebo",
    "ACTARMCD": "Pbo",
    "ACTARM": "Placebo",
    "COUNTRY": "USA",
    "ETHNIC": "NOT HISPANIC OR LATINO",
    ".arm": "Placebo",
    ".armn": 0,
    ".mmse": 24,
    ".disease_duration": 2,
    ".education": 7,
    ".weight": 42.1,
    ".height": 165.8,
    ".bmi": 15.3,
    ".randdt": "2013-08-21",
    ".rfstdtc": "2013-08-22"
  },
  {
    "STUDYID": "CDISCPILOT01",
    "DOMAIN": "DM",
    "USUBJID": "01-707-003",
    "SUBJID": "003",
    "SITEID": "707",
    "RFSTDTC": "2013-12-10",
    "RFXSTDTC": "2013-12-10",
    "AGE": 66,
    "AGEU": "YEARS",
    "SEX": "F",
    "RACE": "WHITE",
    "ARMCD": "Pbo",
    "ARM": "Placebo",
    "ACTARMCD": "Pbo",
    "ACTARM": "Placebo",
    "COUNTRY": "USA",
    "ETHNIC": "HISPANIC OR LATINO",
    ".arm": "Placebo",
    ".armn": 0,
    ".mmse": 23,
    ".disease_duration": 33.776,
    ".education": 8,
    ".weight": 77.5,
    ".height": 159,
    ".bmi": 30.7,
    ".randdt": "2013-12-09",
    ".rfstdtc": "2013-12-10"
  },
  {
    "STUDYID": "CDISCPILOT01",
    "DOMAIN": "DM",
    "USUBJID": "01-708-001",
    "SUBJID": "001",
    "SITEID": "708",
    "RFSTDTC": "2013-11-10",
    "RFXSTDTC": "2013-11-10",
    "AGE": 87,
    "AGEU": "YEARS",
    "SEX": "F",
    "RACE": "WHITE",
    "ARMCD": "Pbo",
    "ARM": "Placebo",
    "ACTARMCD": "Pbo",
    "ACTARM": "Placebo",
    "COUNTRY": "USA",
    "ETHNIC": "NOT HISPANIC OR LATINO",
    ".arm": "Placebo",
    ".armn": 0,
    ".mmse": 19,
    ".disease_duration": 77.6223,
    ".education": 19,
    ".weight": 65,
    ".height": 153,
    ".bmi": 27.8,
    ".randdt": "2013-11-09",
    ".rfstdtc": "2013-11-10"
  },
  {
    "STUDYID": "CDISCPILOT01",
    "DOMAIN": "DM",
    "USUBJID": "01-708-002",
    "SUBJID": "002",
    "SITEID": "708",
    "RFSTDTC": "2013-08-27",
    "RFXSTDTC": "2013-08-27",
    "AGE": 83,
    "AGEU": "YEARS",
    "SEX": "M",
    "RACE": "WHITE",
    "ARMCD": "Xan_Lo",
    "ARM": "Xanomeline Low Dose",
    "ACTARMCD": "Xan_Lo",
    "ACTARM": "Xanomeline Low Dose",
    "COUNTRY": "USA",
    "ETHNIC": "NOT HISPANIC OR LATINO",
    ".arm": "Xanomeline Low Dose",
    ".armn": 1,
    ".mmse": 24,
    ".disease_duration": 8.7056,
    ".education": 11,
    ".weight": 67.2,
    ".height": 172.6,
    ".bmi": 22.6,
    ".randdt": "2013-08-26",
    ".rfstdtc": "2013-08-27"
  },
  {
    "STUDYID": "CDISCPILOT01",
    "DOMAIN": "DM",
    "USUBJID": "01-708-003",
    "SUBJID": "003",
    "SITEID": "708",
    "RFSTDTC": "2013-10-28",
    "RFXSTDTC": "2013-10-28",
    "AGE": 67,
    "AGEU": "YEARS",
    "SEX": "M",
    "RACE": "WHITE",
    "ARMCD": "Xan_Hi",
    "ARM": "Xanomeline High Dose",
    "ACTARMCD": "Xan_Hi",
    "ACTARM": "Xanomeline High Dose",
    "COUNTRY": "USA",
    "ETHNIC": "NOT HISPANIC OR LATINO",
    ".arm": "Xanomeline High Dose",
    ".armn": 2,
    ".mmse": 15,
    ".disease_duration": 55.3739,
    ".education": 12,
    ".weight": 83.6,
    ".height": 167,
    ".bmi": 30,
    ".randdt": "2013-10-28",
    ".rfstdtc": "2013-10-28"
  },
  {
    "STUDYID": "CDISCPILOT01",
    "DOMAIN": "DM",
    "USUBJID": "01-708-004",
    "SUBJID": "004",
    "SITEID": "708",
    "RFSTDTC": "2013-01-04",
    "RFXSTDTC": "2013-01-04",
    "AGE": 80,
    "AGEU": "YEARS",
    "SEX": "F",
    "RACE": "WHITE",
    "ARMCD": "Xan_Lo",
    "ARM": "Xanomeline Low Dose",
    "ACTARMCD": "Xan_Lo",
    "ACTARM": "Xanomeline Low Dose",
    "COUNTRY": "USA",
    "ETHNIC": "NOT HISPANIC OR LATINO",
    ".arm": "Xanomeline Low Dose",
    ".armn": 1,
    ".mmse": 19,
    ".disease_duration": 2,
    ".education": 16,
    ".weight": 76.2,
    ".height": 155,
    ".bmi": 31.7,
    ".randdt": "2013-01-03",
    ".rfstdtc": "2013-01-04"
  },
  {
    "STUDYID": "CDISCPILOT01",
    "DOMAIN": "DM",
    "USUBJID": "01-708-005",
    "SUBJID": "005",
    "SITEID": "708",
    "RFSTDTC": "2013-02-03",
    "RFXSTDTC": "2013-02-03",
    "AGE": 63,
    "AGEU": "YEARS",
    "SEX": "F",
    "RACE": "WHITE",
    "ARMCD": "Xan_Lo",
    "ARM": "Xanomeline Low Dose",
    "ACTARMCD": "Xan_Lo",
    "ACTARM": "Xanomeline Low Dose",
    "COUNTRY": "USA",
    "ETHNIC": "NOT HISPANIC OR LATINO",
    ".arm": "Xanomeline Low Dose",
    ".armn": 1,
    ".mmse": 14,
    ".disease_duration": 29.424,
    ".education": 11,
    ".weight": 71.8,
    ".height": 156,
    ".bmi": 29.5,
    ".randdt": "2013-02-02",
    ".rfstdtc": "2013-02-03"
  },
  {
    "STUDYID": "CDISCPILOT01",
    "DOMAIN": "DM",
    "USUBJID": "01-708-006",
    "SUBJID": "006",
    "SITEID": "708",
    "RFSTDTC": "2013-10-06",
    "RFXSTDTC": "2013-10-06",
    "AGE": 70,
    "AGEU": "YEARS",
    "SEX": "F",
    "RACE": "WHITE",
    "ARMCD": "Xan_Lo",
    "ARM": "Xanomeline Low Dose",
    "ACTARMCD": "Xan_Lo",
    "ACTARM": "Xanomeline Low Dose",
    "COUNTRY": "USA",
    "ETHNIC": "NOT HISPANIC OR LATINO",
    ".arm": "Xanomeline Low Dose",
    ".armn": 1,
    ".mmse": 23,
    ".disease_duration": 41.4058,
    ".education": 13,
    ".weight": 81.5,
    ".height": 159.1,
    ".bmi": 32.2,
    ".randdt": "2013-10-05",
    ".rfstdtc": "2013-10-06"
  },
  {
    "STUDYID": "CDISCPILOT01",
    "DOMAIN": "DM",
    "USUBJID": "01-708-007",
    "SUBJID": "007",
    "SITEID": "708",
    "RFSTDTC": "2013-05-19",
    "RFXSTDTC": "2013-05-19",
    "AGE": 83,
    "AGEU": "YEARS",
    "SEX": "F",
    "RACE": "WHITE",
    "ARMCD": "Xan_Hi",
    "ARM": "Xanomeline High Dose",
    "ACTARMCD": "Xan_Hi",
    "ACTARM": "Xanomeline High Dose",
    "COUNTRY": "USA",
    "ETHNIC": "NOT HISPANIC OR LATINO",
    ".arm": "Xanomeline High Dose",
    ".armn": 2,
    ".mmse": 21,
    ".disease_duration": 80.2249,
    ".education": 17,
    ".weight": 100.1,
    ".height": 152.8,
    ".bmi": 42.9,
    ".randdt": "2013-05-19",
    ".rfstdtc": "2013-05-19"
  },
  {
    "STUDYID": "CDISCPILOT01",
    "DOMAIN": "DM",
    "USUBJID": "01-708-008",
    "SUBJID": "008",
    "SITEID": "708",
    "RFSTDTC": "2013-07-03",
    "RFXSTDTC": "2013-07-03",
    "AGE": 68,
    "AGEU": "YEARS",
    "SEX": "F",
    "RACE": "WHITE",
    "ARMCD": "Xan_Hi",
    "ARM": "Xanomeline High Dose",
    "ACTARMCD": "Xan_Hi",
    "ACTARM": "Xanomeline High Dose",
    "COUNTRY": "USA",
    "ETHNIC": "NOT HISPANIC OR LATINO",
    ".arm": "Xanomeline High Dose",
    ".armn": 2,
    ".mmse": 19,
    ".disease_duration": 46.7688,
    ".education": 20,
    ".weight": 42.1,
    ".height": 159.3,
    ".bmi": 16.6,
    ".randdt": "2013-07-03",
    ".rfstdtc": "2013-07-03"
  },
  {
    "STUDYID": "CDISCPILOT01",
    "DOMAIN": "DM",
    "USUBJID": "01-708-009",
    "SUBJID": "009",
    "SITEID": "708",
    "RFSTDTC": "2013-04-16",
    "RFXSTDTC": "2013-04-16",
    "AGE": 70,
    "AGEU": "YEARS",
    "SEX": "F",
    "RACE": "WHITE",
    "ARMCD": "Xan_Lo",
    "ARM": "Xanomeline Low Dose",
    "ACTARMCD": "Xan_Lo",
    "ACTARM": "Xanomeline Low Dose",
    "COUNTRY": "USA",
    "ETHNIC": "NOT HISPANIC OR LATINO",
    ".arm": "Xanomeline Low Dose",
    ".armn": 1,
    ".mmse": 15,
    ".disease_duration": 7.1708,
    ".education": 18,
    ".weight": 52.1,
    ".height": 148.5,
    ".bmi": 23.6,
    ".randdt": "2013-04-16",
    ".rfstdtc": "2013-04-16"
  },
  {
    "STUDYID": "CDISCPILOT01",
    "DOMAIN": "DM",
    "USUBJID": "01-708-010",
    "SUBJID": "010",
    "SITEID": "708",
    "RFSTDTC": "2013-07-05",
    "RFXSTDTC": "2013-07-05",
    "AGE": 68,
    "AGEU": "YEARS",
    "SEX": "F",
    "RACE": "WHITE",
    "ARMCD": "Xan_Lo",
    "ARM": "Xanomeline Low Dose",
    "ACTARMCD": "Xan_Lo",
    "ACTARM": "Xanomeline Low Dose",
    "COUNTRY": "USA",
    "ETHNIC": "NOT HISPANIC OR LATINO",
    ".arm": "Xanomeline Low Dose",
    ".armn": 1,
    ".mmse": 18,
    ".disease_duration": 24.409,
    ".education": 12,
    ".weight": 35.1,
    ".height": 152.8,
    ".bmi": 15,
    ".randdt": "2013-07-04",
    ".rfstdtc": "2013-07-05"
  },
  {
    "STUDYID": "CDISCPILOT01",
    "DOMAIN": "DM",
    "USUBJID": "01-708-011",
    "SUBJID": "011",
    "SITEID": "708",
    "RFSTDTC": "2013-12-03",
    "RFXSTDTC": "2013-12-03",
    "AGE": 63,
    "AGEU": "YEARS",
    "SEX": "F",
    "RACE": "WHITE",
    "ARMCD": "Xan_Lo",
    "ARM": "Xanomeline Low Dose",
    "ACTARMCD": "Xan_Lo",
    "ACTARM": "Xanomeline Low Dose",
    "COUNTRY": "USA",
    "ETHNIC": "NOT HISPANIC OR LATINO",
    ".arm": "Xanomeline Low Dose",
    ".armn": 1,
    ".mmse": 19,
    ".disease_duration": 75.7714,
    ".education": 12,
    ".weight": 52.4,
    ".height": 160,
    ".bmi": 20.5,
    ".randdt": "2013-12-03",
    ".rfstdtc": "2013-12-03"
  },
  {
    "STUDYID": "CDISCPILOT01",
    "DOMAIN": "DM",
    "USUBJID": "01-708-012",
    "SUBJID": "012",
    "SITEID": "708",
    "RFSTDTC": "2013-06-08",
    "RFXSTDTC": "2013-06-08",
    "AGE": 89,
    "AGEU": "YEARS",
    "SEX": "F",
    "RACE": "BLACK OR AFRICAN AMERICAN",
    "ARMCD": "Pbo",
    "ARM": "Placebo",
    "ACTARMCD": "Pbo",
    "ACTARM": "Placebo",
    "COUNTRY": "USA",
    "ETHNIC": "NOT HISPANIC OR LATINO",
    ".arm": "Placebo",
    ".armn": 0,
    ".mmse": 12,
    ".disease_duration": 31.6978,
    ".education": 11,
    ".weight": 58,
    ".height": 148.3,
    ".bmi": 26.4,
    ".randdt": "2013-06-08",
    ".rfstdtc": "2013-06-08"
  },
  {
    "STUDYID": "CDISCPILOT01",
    "DOMAIN": "DM",
    "USUBJID": "01-708-013",
    "SUBJID": "013",
    "SITEID": "708",
    "RFSTDTC": "2013-04-03",
    "RFXSTDTC": "2013-04-03",
    "AGE": 81,
    "AGEU": "YEARS",
    "SEX": "M",
    "RACE": "BLACK OR AFRICAN AMERICAN",
    "ARMCD": "Xan_Hi",
    "ARM": "Xanomeline High Dose",
    "ACTARMCD": "Xan_Hi",
    "ACTARM": "Xanomeline High Dose",
    "COUNTRY": "USA",
    "ETHNIC": "NOT HISPANIC OR LATINO",
    ".arm": "Xanomeline High Dose",
    ".armn": 2,
    ".mmse": 22,
    ".disease_duration": 29.9412,
    ".education": 12,
    ".weight": 49.4,
    ".height": 164.2,
    ".bmi": 18.3,
    ".randdt": "2013-04-02",
    ".rfstdtc": "2013-04-03"
  },
  {
    "STUDYID": "CDISCPILOT01",
    "DOMAIN": "DM",
    "USUBJID": "01-708-014",
    "SUBJID": "014",
    "SITEID": "708",
    "RFSTDTC": "2013-07-09",
    "RFXSTDTC": "2013-07-09",
    "AGE": 76,
    "AGEU": "YEARS",
    "SEX": "M",
    "RACE": "HISPANIC OR LATINO",
    "ARMCD": "Xan_Lo",
    "ARM": "Xanomeline Low Dose",
    "ACTARMCD": "Xan_Lo",
    "ACTARM": "Xanomeline Low Dose",
    "COUNTRY": "USA",
    "ETHNIC": "NOT HISPANIC OR LATINO",
    ".arm": "Xanomeline Low Dose",
    ".armn": 1,
    ".mmse": 18,
    ".disease_duration": 15.8544,
    ".education": 10,
    ".weight": 79.6,
    ".height": 169.4,
    ".bmi": 27.7,
    ".randdt": "2013-07-08",
    ".rfstdtc": "2013-07-09"
  },
  {
    "STUDYID": "CDISCPILOT01",
    "DOMAIN": "DM",
    "USUBJID": "01-708-015",
    "SUBJID": "015",
    "SITEID": "708",
    "RFSTDTC": "2013-10-05",
    "RFXSTDTC": "2013-10-05",
    "AGE": 80,
    "AGEU": "YEARS",
    "SEX": "M",
    "RACE": "WHITE",
    "ARMCD": "Pbo",
    "ARM": "Placebo",
    "ACTARMCD": "Pbo",
    "ACTARM": "Placebo",
    "COUNTRY": "USA",
    "ETHNIC": "NOT HISPANIC OR LATINO",
    ".arm": "Placebo",
    ".armn": 0,
    ".mmse": 15,
    ".disease_duration": 52.3008,
    ".education": 13,
    ".weight": 49.1,
    ".height": 168.7,
    ".bmi": 17.3,
    ".randdt": "2013-10-05",
    ".rfstdtc": "2013-10-05"
  },
  {
    "STUDYID": "CDISCPILOT01",
    "DOMAIN": "DM",
    "USUBJID": "01-708-016",
    "SUBJID": "016",
    "SITEID": "708",
    "RFSTDTC": "2013-02-07",
    "RFXSTDTC": "2013-02-07",
    "AGE": 72,
    "AGEU": "YEARS",
    "SEX": "F",
    "RACE": "WHITE",
    "ARMCD": "Xan_Lo",
    "ARM": "Xanomeline Low Dose",
    "ACTARMCD": "Xan_Lo",
    "ACTARM": "Xanomeline Low Dose",
    "COUNTRY": "USA",
    "ETHNIC": "NOT HISPANIC OR LATINO",
    ".arm": "Xanomeline Low Dose",
    ".armn": 1,
    ".mmse": 19,
    ".disease_duration": 78.7454,
    ".education": 7,
    ".weight": 68.1,
    ".height": 146.5,
    ".bmi": 31.7,
    ".randdt": "2013-02-07",
    ".rfstdtc": "2013-02-07"
  },
  {
    "STUDYID": "CDISCPILOT01",
    "DOMAIN": "DM",
    "USUBJID": "01-708-017",
    "SUBJID": "017",
    "SITEID": "708",
    "RFSTDTC": "2013-10-10",
    "RFXSTDTC": "2013-10-10",
    "AGE": 65,
    "AGEU": "YEARS",
    "SEX": "F",
    "RACE": "WHITE",
    "ARMCD": "Xan_Hi",
    "ARM": "Xanomeline High Dose",
    "ACTARMCD": "Xan_Hi",
    "ACTARM": "Xanomeline High Dose",
    "COUNTRY": "USA",
    "ETHNIC": "NOT HISPANIC OR LATINO",
    ".arm": "Xanomeline High Dose",
    ".armn": 2,
    ".mmse": 19,
    ".disease_duration": 39.716,
    ".education": 14,
    ".weight": 84.2,
    ".height": 147.6,
    ".bmi": 38.6,
    ".randdt": "2013-10-10",
    ".rfstdtc": "2013-10-10"
  },
  {
    "STUDYID": "CDISCPILOT01",
    "DOMAIN": "DM",
    "USUBJID": "01-708-018",
    "SUBJID": "018",
    "SITEID": "708",
    "RFSTDTC": "2013-09-19",
    "RFXSTDTC": "2013-09-19",
    "AGE": 61,
    "AGEU": "YEARS",
    "SEX": "M",
    "RACE": "HISPANIC OR LATINO",
    "ARMCD": "Xan_Hi",
    "ARM": "Xanomeline High Dose",
    "ACTARMCD": "Xan_Hi",
    "ACTARM": "Xanomeline High Dose",
    "COUNTRY": "USA",
    "ETHNIC": "NOT HISPANIC OR LATINO",
    ".arm": "Xanomeline High Dose",
    ".armn": 2,
    ".mmse": 16,
    ".disease_duration": 61.1737,
    ".education": 15,
    ".weight": 69.3,
    ".height": 174.2,
    ".bmi": 22.8,
    ".randdt": "2013-09-18",
    ".rfstdtc": "2013-09-19"
  },
  {
    "STUDYID": "CDISCPILOT01",
    "DOMAIN": "DM",
    "USUBJID": "01-708-019",
    "SUBJID": "019",
    "SITEID": "708",
    "RFSTDTC": "2013-08-30",
    "RFXSTDTC": "2013-08-30",
    "AGE": 84,
    "AGEU": "YEARS",
    "SEX": "F",
    "RACE": "WHITE",
    "ARMCD": "Xan_Lo",
    "ARM": "Xanomeline Low Dose",
    "ACTARMCD": "Xan_Lo",
    "ACTARM": "Xanomeline Low Dose",
    "COUNTRY": "USA",
    "ETHNIC": "NOT HISPANIC OR LATINO",
    ".arm": "Xanomeline Low Dose",
    ".armn": 1,
    ".mmse": 16,
    ".disease_duration": 21.2484,
    ".education": 11,
    ".weight": 87.4,
    ".height": 160.6,
    ".bmi": 33.9,
    ".randdt": "2013-08-30",
    ".rfstdtc": "2013-08-30"
  },
  {
    "STUDYID": "CDISCPILOT01",
    "DOMAIN": "DM",
    "USUBJID": "01-708-020",
    "SUBJID": "020",
    "SITEID": "708",
    "RFSTDTC": "2013-07-26",
    "RFXSTDTC": "2013-07-26",
    "AGE": 73,
    "AGEU": "YEARS",
    "SEX": "F",
    "RACE": "WHITE",
    "ARMCD": "Pbo",
    "ARM": "Placebo",
    "ACTARMCD": "Pbo",
    "ACTARM": "Placebo",
    "COUNTRY": "USA",
    "ETHNIC": "NOT HISPANIC OR LATINO",
    ".arm": "Placebo",
    ".armn": 0,
    ".mmse": 11,
    ".disease_duration": 23.7829,
    ".education": 11,
    ".weight": 49.7,
    ".height": 165.4,
    ".bmi": 18.2,
    ".randdt": "2013-07-25",
    ".rfstdtc": "2013-07-26"
  },
  {
    "STUDYID": "CDISCPILOT01",
    "DOMAIN": "DM",
    "USUBJID": "01-709-001",
    "SUBJID": "001",
    "SITEID": "709",
    "RFSTDTC": "2013-12-23",
    "RFXSTDTC": "2013-12-23",
    "AGE": 89,
    "AGEU": "YEARS",
    "SEX": "M",
    "RACE": "WHITE",
    "ARMCD": "Xan_Hi",
    "ARM": "Xanomeline High Dose",
    "ACTARMCD": "Xan_Hi",
    "ACTARM": "Xanomeline High Dose",
    "COUNTRY": "USA",
    "ETHNIC": "NOT HISPANIC OR LATINO",
    ".arm": "Xanomeline High Dose",
    ".armn": 2,
    ".mmse": 18,
    ".disease_duration": 32.779,
    ".education": 15,
    ".weight": 49.3,
    ".height": 172.9,
    ".bmi": 16.5,
    ".randdt": "2013-12-22",
    ".rfstdtc": "2013-12-23"
  },
  {
    "STUDYID": "CDISCPILOT01",
    "DOMAIN": "DM",
    "USUBJID": "01-709-002",
    "SUBJID": "002",
    "SITEID": "709",
    "RFSTDTC": "2013-02-22",
    "RFXSTDTC": "2013-02-22",
    "AGE": 84,
    "AGEU": "YEARS",
    "SEX": "M",
    "RACE": "WHITE",
    "ARMCD": "Pbo",
    "ARM": "Placebo",
    "ACTARMCD": "Pbo",
    "ACTARM": "Placebo",
    "COUNTRY": "USA",
    "ETHNIC": "NOT HISPANIC OR LATINO",
    ".arm": "Placebo",
    ".armn": 0,
    ".mmse": 15,
    ".disease_duration": 63.9787,
    ".education": 16,
    ".weight": 61.6,
    ".height": 186.5,
    ".bmi": 17.7,
    ".randdt": "2013-02-22",
    ".rfstdtc": "2013-02-22"
  },
  {
    "STUDYID": "CDISCPILOT01",
    "DOMAIN": "DM",
    "USUBJID": "01-709-003",
    "SUBJID": "003",
    "SITEID": "709",
    "RFSTDTC": "2013-10-20",
    "RFXSTDTC": "2013-10-20",
    "AGE": 69,
    "AGEU": "YEARS",
    "SEX": "F",
    "RACE": "WHITE",
    "ARMCD": "Xan_Hi",
    "ARM": "Xanomeline High Dose",
    "ACTARMCD": "Xan_Hi",
    "ACTARM": "Xanomeline High Dose",
    "COUNTRY": "USA",
    "ETHNIC": "NOT HISPANIC OR LATINO",
    ".arm": "Xanomeline High Dose",
    ".armn": 2,
    ".mmse": 24,
    ".disease_duration": 77.7794,
    ".education": 19,
    ".weight": 89,
    ".height": 159.9,
    ".bmi": 34.8,
    ".randdt": "2013-10-20",
    ".rfstdtc": "2013-10-20"
  },
  {
    "STUDYID": "CDISCPILOT01",
    "DOMAIN": "DM",
    "USUBJID": "01-709-004",
    "SUBJID": "004",
    "SITEID": "709",
    "RFSTDTC": "2013-10-14",
    "RFXSTDTC": "2013-10-14",
    "AGE": 75,
    "AGEU": "YEARS",
    "SEX": "F",
    "RACE": "WHITE",
    "ARMCD": "Xan_Hi",
    "ARM": "Xanomeline High Dose",
    "ACTARMCD": "Xan_Hi",
    "ACTARM": "Xanomeline High Dose",
    "COUNTRY": "USA",
    "ETHNIC": "NOT HISPANIC OR LATINO",
    ".arm": "Xanomeline High Dose",
    ".armn": 2,
    ".mmse": 11,
    ".disease_duration": 58.9807,
    ".education": 16,
    ".weight": 93.4,
    ".height": 154.5,
    ".bmi": 39.1,
    ".randdt": "2013-10-14",
    ".rfstdtc": "2013-10-14"
  },
  {
    "STUDYID": "CDISCPILOT01",
    "DOMAIN": "DM",
    "USUBJID": "01-709-005",
    "SUBJID": "005",
    "SITEID": "709",
    "RFSTDTC": "2013-03-13",
    "RFXSTDTC": "2013-03-13",
    "AGE": 89,
    "AGEU": "YEARS",
    "SEX": "F",
    "RACE": "WHITE",
    "ARMCD": "Xan_Hi",
    "ARM": "Xanomeline High Dose",
    "ACTARMCD": "Xan_Hi",
    "ACTARM": "Xanomeline High Dose",
    "COUNTRY": "USA",
    "ETHNIC": "NOT HISPANIC OR LATINO",
    ".arm": "Xanomeline High Dose",
    ".armn": 2,
    ".mmse": 17,
    ".disease_duration": 32.1572,
    ".education": 17,
    ".weight": 59.9,
    ".height": 158,
    ".bmi": 24,
    ".randdt": "2013-03-13",
    ".rfstdtc": "2013-03-13"
  },
  {
    "STUDYID": "CDISCPILOT01",
    "DOMAIN": "DM",
    "USUBJID": "01-709-006",
    "SUBJID": "006",
    "SITEID": "709",
    "RFSTDTC": "2013-04-09",
    "RFXSTDTC": "2013-04-09",
    "AGE": 60,
    "AGEU": "YEARS",
    "SEX": "M",
    "RACE": "WHITE",
    "ARMCD": "Xan_Lo",
    "ARM": "Xanomeline Low Dose",
    "ACTARMCD": "Xan_Lo",
    "ACTARM": "Xanomeline Low Dose",
    "COUNTRY": "USA",
    "ETHNIC": "NOT HISPANIC OR LATINO",
    ".arm": "Xanomeline Low Dose",
    ".armn": 1,
    ".mmse": 24,
    ".disease_duration": 77.7796,
    ".education": 14,
    ".weight": 67.2,
    ".height": 162.5,
    ".bmi": 25.4,
    ".randdt": "2013-04-09",
    ".rfstdtc": "2013-04-09"
  },
  {
    "STUDYID": "CDISCPILOT01",
    "DOMAIN": "DM",
    "USUBJID": "01-709-007",
    "SUBJID": "007",
    "SITEID": "709",
    "RFSTDTC": "2013-02-03",
    "RFXSTDTC": "2013-02-03",
    "AGE": 85,
    "AGEU": "YEARS",
    "SEX": "F",
    "RACE": "WHITE",
    "ARMCD": "Xan_Lo",
    "ARM": "Xanomeline Low Dose",
    "ACTARMCD": "Xan_Lo",
    "ACTARM": "Xanomeline Low Dose",
    "COUNTRY": "USA",
    "ETHNIC": "NOT HISPANIC OR LATINO",
    ".arm": "Xanomeline Low Dose",
    ".armn": 1,
    ".mmse": 15,
    ".disease_duration": 88.9126,
    ".education": 16,
    ".weight": 67.6,
    ".height": 158.7,
    ".bmi": 26.8,
    ".randdt": "2013-02-03",
    ".rfstdtc": "2013-02-03"
  },
  {
    "STUDYID": "CDISCPILOT01",
    "DOMAIN": "DM",
    "USUBJID": "01-709-008",
    "SUBJID": "008",
    "SITEID": "709",
    "RFSTDTC": "2013-06-03",
    "RFXSTDTC": "2013-06-03",
    "AGE": 59,
    "AGEU": "YEARS",
    "SEX": "F",
    "RACE": "HISPANIC OR LATINO",
    "ARMCD": "Pbo",
    "ARM": "Placebo",
    "ACTARMCD": "Pbo",
    "ACTARM": "Placebo",
    "COUNTRY": "USA",
    "ETHNIC": "NOT HISPANIC OR LATINO",
    ".arm": "Placebo",
    ".armn": 0,
    ".mmse": 19,
    ".disease_duration": 43.7339,
    ".education": 12,
    ".weight": 59.8,
    ".height": 159.1,
    ".bmi": 23.6,
    ".randdt": "2013-06-02",
    ".rfstdtc": "2013-06-03"
  },
  {
    "STUDYID": "CDISCPILOT01",
    "DOMAIN": "DM",
    "USUBJID": "01-709-009",
    "SUBJID": "009",
    "SITEID": "709",
    "RFSTDTC": "2013-10-30",
    "RFXSTDTC": "2013-10-30",
    "AGE": 77,
    "AGEU": "YEARS",
    "SEX": "F",
    "RACE": "WHITE",
    "ARMCD": "Xan_Lo",
    "ARM": "Xanomeline Low Dose",
    "ACTARMCD": "Xan_Lo",
    "ACTARM": "Xanomeline Low Dose",
    "COUNTRY": "USA",
    "ETHNIC": "NOT HISPANIC OR LATINO",
    ".arm": "Xanomeline Low Dose",
    ".armn": 1,
    ".mmse": 16,
    ".disease_duration": 37.6921,
    ".education": 9,
    ".weight": 68.6,
    ".height": 158.1,
    ".bmi": 27.4,
    ".randdt": "2013-10-29",
    ".rfstdtc": "2013-10-30"
  },
  {
    "STUDYID": "CDISCPILOT01",
    "DOMAIN": "DM",
    "USUBJID": "01-709-010",
    "SUBJID": "010",
    "SITEID": "709",
    "RFSTDTC": "2013-11-20",
    "RFXSTDTC": "2013-11-20",
    "AGE": 62,
    "AGEU": "YEARS",
    "SEX": "M",
    "RACE": "WHITE",
    "ARMCD": "Pbo",
    "ARM": "Placebo",
    "ACTARMCD": "Pbo",
    "ACTARM": "Placebo",
    "COUNTRY": "USA",
    "ETHNIC": "NOT HISPANIC OR LATINO",
    ".arm": "Placebo",
    ".armn": 0,
    ".mmse": 19,
    ".disease_duration": 24.4348,
    ".education": 13,
    ".weight": 54.4,
    ".height": 168.4,
    ".bmi": 19.2,
    ".randdt": "2013-11-19",
    ".rfstdtc": "2013-11-20"
  },
  {
    "STUDYID": "CDISCPILOT01",
    "DOMAIN": "DM",
    "USUBJID": "01-709-011",
    "SUBJID": "011",
    "SITEID": "709",
    "RFSTDTC": "2013-12-10",
    "RFXSTDTC": "2013-12-10",
    "AGE": 70,
    "AGEU": "YEARS",
    "SEX": "F",
    "RACE": "BLACK OR AFRICAN AMERICAN",
    "ARMCD": "Xan_Lo",
    "ARM": "Xanomeline Low Dose",
    "ACTARMCD": "Xan_Lo",
    "ACTARM": "Xanomeline Low Dose",
    "COUNTRY": "USA",
    "ETHNIC": "NOT HISPANIC OR LATINO",
    ".arm": "Xanomeline Low Dose",
    ".armn": 1,
    ".mmse": 24,
    ".disease_duration": 54.1184,
    ".education": 11,
    ".weight": 53.8,
    ".height": 159.1,
    ".bmi": 21.3,
    ".randdt": "2013-12-09",
    ".rfstdtc": "2013-12-10"
  },
  {
    "STUDYID": "CDISCPILOT01",
    "DOMAIN": "DM",
    "USUBJID": "01-709-012",
    "SUBJID": "012",
    "SITEID": "709",
    "RFSTDTC": "2013-07-01",
    "RFXSTDTC": "2013-07-01",
    "AGE": 79,
    "AGEU": "YEARS",
    "SEX": "M",
    "RACE": "WHITE",
    "ARMCD": "Xan_Lo",
    "ARM": "Xanomeline Low Dose",
    "ACTARMCD": "Xan_Lo",
    "ACTARM": "Xanomeline Low Dose",
    "COUNTRY": "USA",
    "ETHNIC": "NOT HISPANIC OR LATINO",
    ".arm": "Xanomeline Low Dose",
    ".armn": 1,
    ".mmse": 19,
    ".disease_duration": 43.7029,
    ".education": 10,
    ".weight": 82.1,
    ".height": 180.8,
    ".bmi": 25.1,
    ".randdt": "2013-06-30",
    ".rfstdtc": "2013-07-01"
  },
  {
    "STUDYID": "CDISCPILOT01",
    "DOMAIN": "DM",
    "USUBJID": "01-709-013",
    "SUBJID": "013",
    "SITEID": "709",
    "RFSTDTC": "2013-04-06",
    "RFXSTDTC": "2013-04-06",
    "AGE": 73,
    "AGEU": "YEARS",
    "SEX": "F",
    "RACE": "WHITE",
    "ARMCD": "Xan_Hi",
    "ARM": "Xanomeline High Dose",
    "ACTARMCD": "Xan_Hi",
    "ACTARM": "Xanomeline High Dose",
    "COUNTRY": "USA",
    "ETHNIC": "NOT HISPANIC OR LATINO",
    ".arm": "Xanomeline High Dose",
    ".armn": 2,
    ".mmse": 12,
    ".disease_duration": 59.9771,
    ".education": 15,
    ".weight": 73.6,
    ".height": 154.3,
    ".bmi": 30.9,
    ".randdt": "2013-04-05",
    ".rfstdtc": "2013-04-06"
  },
  {
    "STUDYID": "CDISCPILOT01",
    "DOMAIN": "DM",
    "USUBJID": "01-709-014",
    "SUBJID": "014",
    "SITEID": "709",
    "RFSTDTC": "2014-01-02",
    "RFXSTDTC": "2014-01-02",
    "AGE": 82,
    "AGEU": "YEARS",
    "SEX": "M",
    "RACE": "WHITE",
    "ARMCD": "Xan_Lo",
    "ARM": "Xanomeline Low Dose",
    "ACTARMCD": "Xan_Lo",
    "ACTARM": "Xanomeline Low Dose",
    "COUNTRY": "USA",
    "ETHNIC": "NOT HISPANIC OR LATINO",
    ".arm": "Xanomeline Low Dose",
    ".armn": 1,
    ".mmse": 12,
    ".disease_duration": 69.2963,
    ".education": 14,
    ".weight": 59.8,
    ".height": 169.1,
    ".bmi": 20.9,
    ".randdt": "2014-01-01",
    ".rfstdtc": "2014-01-02"
  },
  {
    "STUDYID": "CDISCPILOT01",
    "DOMAIN": "DM",
    "USUBJID": "01-709-015",
    "SUBJID": "015",
    "SITEID": "709",
    "RFSTDTC": "2013-05-04",
    "RFXSTDTC": "2013-05-04",
    "AGE": 78,
    "AGEU": "YEARS",
    "SEX": "F",
    "RACE": "WHITE",
    "ARMCD": "Xan_Lo",
    "ARM": "Xanomeline Low Dose",
    "ACTARMCD": "Xan_Lo",
    "ACTARM": "Xanomeline Low Dose",
    "COUNTRY": "USA",
    "ETHNIC": "NOT HISPANIC OR LATINO",
    ".arm": "Xanomeline Low Dose",
    ".armn": 1,
    ".mmse": 19,
    ".disease_duration": 58.0135,
    ".education": 11,
    ".weight": 84.7,
    ".height": 156.5,
    ".bmi": 34.6,
    ".randdt": "2013-05-04",
    ".rfstdtc": "2013-05-04"
  },
  {
    "STUDYID": "CDISCPILOT01",
    "DOMAIN": "DM",
    "USUBJID": "01-709-016",
    "SUBJID": "016",
    "SITEID": "709",
    "RFSTDTC": "2013-04-04",
    "RFXSTDTC": "2013-04-04",
    "AGE": 83,
    "AGEU": "YEARS",
    "SEX": "F",
    "RACE": "WHITE",
    "ARMCD": "Xan_Hi",
    "ARM": "Xanomeline High Dose",
    "ACTARMCD": "Xan_Hi",
    "ACTARM": "Xanomeline High Dose",
    "COUNTRY": "USA",
    "ETHNIC": "NOT HISPANIC OR LATINO",
    ".arm": "Xanomeline High Dose",
    ".armn": 2,
    ".mmse": 10,
    ".disease_duration": 69.115,
    ".education": 7,
    ".weight": 49,
    ".height": 163.1,
    ".bmi": 18.4,
    ".randdt": "2013-04-03",
    ".rfstdtc": "2013-04-04"
  },
  {
    "STUDYID": "CDISCPILOT01",
    "DOMAIN": "DM",
    "USUBJID": "01-709-017",
    "SUBJID": "017",
    "SITEID": "709",
    "RFSTDTC": "2013-01-02",
    "RFXSTDTC": "2013-01-02",
    "AGE": 79,
    "AGEU": "YEARS",
    "SEX": "M",
    "RACE": "WHITE",
    "ARMCD": "Xan_Hi",
    "ARM": "Xanomeline High Dose",
    "ACTARMCD": "Xan_Hi",
    "ACTARM": "Xanomeline High Dose",
    "COUNTRY": "USA",
    "ETHNIC": "NOT HISPANIC OR LATINO",
    ".arm": "Xanomeline High Dose",
    ".armn": 2,
    ".mmse": 18,
    ".disease_duration": 40.5698,
    ".education": 11,
    ".weight": 98.9,
    ".height": 168.4,
    ".bmi": 34.9,
    ".randdt": "2013-01-02",
    ".rfstdtc": "2013-01-02"
  },
  {
    "STUDYID": "CDISCPILOT01",
    "DOMAIN": "DM",
    "USUBJID": "01-709-018",
    "SUBJID": "018",
    "SITEID": "709",
    "RFSTDTC": "2013-01-30",
    "RFXSTDTC": "2013-01-30",
    "AGE": 74,
    "AGEU": "YEARS",
    "SEX": "F",
    "RACE": "WHITE",
    "ARMCD": "Pbo",
    "ARM": "Placebo",
    "ACTARMCD": "Pbo",
    "ACTARM": "Placebo",
    "COUNTRY": "USA",
    "ETHNIC": "NOT HISPANIC OR LATINO",
    ".arm": "Placebo",
    ".armn": 0,
    ".mmse": 18,
    ".disease_duration": 2,
    ".education": 14,
    ".weight": 75.2,
    ".height": 161.8,
    ".bmi": 28.7,
    ".randdt": "2013-01-29",
    ".rfstdtc": "2013-01-30"
  },
  {
    "STUDYID": "CDISCPILOT01",
    "DOMAIN": "DM",
    "USUBJID": "01-709-019",
    "SUBJID": "019",
    "SITEID": "709",
    "RFSTDTC": "2013-11-19",
    "RFXSTDTC": "2013-11-19",
    "AGE": 89,
    "AGEU": "YEARS",
    "SEX": "M",
    "RACE": "WHITE",
    "ARMCD": "Xan_Hi",
    "ARM": "Xanomeline High Dose",
    "ACTARMCD": "Xan_Hi",
    "ACTARM": "Xanomeline High Dose",
    "COUNTRY": "USA",
    "ETHNIC": "HISPANIC OR LATINO",
    ".arm": "Xanomeline High Dose",
    ".armn": 2,
    ".mmse": 10,
    ".disease_duration": 2,
    ".education": 16,
    ".weight": 80.1,
    ".height": 172.5,
    ".bmi": 26.9,
    ".randdt": "2013-11-18",
    ".rfstdtc": "2013-11-19"
  },
  {
    "STUDYID": "CDISCPILOT01",
    "DOMAIN": "DM",
    "USUBJID": "01-709-020",
    "SUBJID": "020",
    "SITEID": "709",
    "RFSTDTC": "2013-10-09",
    "RFXSTDTC": "2013-10-09",
    "AGE": 75,
    "AGEU": "YEARS",
    "SEX": "M",
    "RACE": "WHITE",
    "ARMCD": "Xan_Lo",
    "ARM": "Xanomeline Low Dose",
    "ACTARMCD": "Xan_Lo",
    "ACTARM": "Xanomeline Low Dose",
    "COUNTRY": "USA",
    "ETHNIC": "NOT HISPANIC OR LATINO",
    ".arm": "Xanomeline Low Dose",
    ".armn": 1,
    ".mmse": 15,
    ".disease_duration": 95.7058,
    ".education": 16,
    ".weight": 84.4,
    ".height": 161.9,
    ".bmi": 32.2,
    ".randdt": "2013-10-08",
    ".rfstdtc": "2013-10-09"
  },
  {
    "STUDYID": "CDISCPILOT01",
    "DOMAIN": "DM",
    "USUBJID": "01-709-021",
    "SUBJID": "021",
    "SITEID": "709",
    "RFSTDTC": "2013-04-08",
    "RFXSTDTC": "2013-04-08",
    "AGE": 81,
    "AGEU": "YEARS",
    "SEX": "M",
    "RACE": "WHITE",
    "ARMCD": "Pbo",
    "ARM": "Placebo",
    "ACTARMCD": "Pbo",
    "ACTARM": "Placebo",
    "COUNTRY": "USA",
    "ETHNIC": "NOT HISPANIC OR LATINO",
    ".arm": "Placebo",
    ".armn": 0,
    ".mmse": 17,
    ".disease_duration": 16.8498,
    ".education": 14,
    ".weight": 67.3,
    ".height": 166.8,
    ".bmi": 24.2,
    ".randdt": "2013-04-07",
    ".rfstdtc": "2013-04-08"
  },
  {
    "STUDYID": "CDISCPILOT01",
    "DOMAIN": "DM",
    "USUBJID": "01-709-022",
    "SUBJID": "022",
    "SITEID": "709",
    "RFSTDTC": "2013-05-17",
    "RFXSTDTC": "2013-05-17",
    "AGE": 61,
    "AGEU": "YEARS",
    "SEX": "F",
    "RACE": "HISPANIC OR LATINO",
    "ARMCD": "Xan_Lo",
    "ARM": "Xanomeline Low Dose",
    "ACTARMCD": "Xan_Lo",
    "ACTARM": "Xanomeline Low Dose",
    "COUNTRY": "USA",
    "ETHNIC": "NOT HISPANIC OR LATINO",
    ".arm": "Xanomeline Low Dose",
    ".armn": 1,
    ".mmse": 14,
    ".disease_duration": 2,
    ".education": 14,
    ".weight": 73.9,
    ".height": 167.3,
    ".bmi": 26.4,
    ".randdt": "2013-05-17",
    ".rfstdtc": "2013-05-17"
  },
  {
    "STUDYID": "CDISCPILOT01",
    "DOMAIN": "DM",
    "USUBJID": "01-709-023",
    "SUBJID": "023",
    "SITEID": "709",
    "RFSTDTC": "2013-07-01",
    "RFXSTDTC": "2013-07-01",
    "AGE": 74,
    "AGEU": "YEARS",
    "SEX": "F",
    "RACE": "WHITE",
    "ARMCD": "Xan_Lo",
    "ARM": "Xanomeline Low Dose",
    "ACTARMCD": "Xan_Lo",
    "ACTARM": "Xanomeline Low Dose",
    "COUNTRY": "USA",
    "ETHNIC": "NOT HISPANIC OR LATINO",
    ".arm": "Xanomeline Low Dose",
    ".armn": 1,
    ".mmse": 22,
    ".disease_duration": 44.9276,
    ".education": 16,
    ".weight": 41.1,
    ".height": 162.1,
    ".bmi": 15.6,
    ".randdt": "2013-06-30",
    ".rfstdtc": "2013-07-01"
  },
  {
    "STUDYID": "CDISCPILOT01",
    "DOMAIN": "DM",
    "USUBJID": "01-710-001",
    "SUBJID": "001",
    "SITEID": "710",
    "RFSTDTC": "2013-03-30",
    "RFXSTDTC": "2013-03-30",
    "AGE": 76,
    "AGEU": "YEARS",
    "SEX": "M",
    "RACE": "WHITE",
    "ARMCD": "Xan_Hi",
    "ARM": "Xanomeline High Dose",
    "ACTARMCD": "Xan_Hi",
    "ACTARM": "Xanomeline High Dose",
    "COUNTRY": "USA",
    "ETHNIC": "NOT HISPANIC OR LATINO",
    ".arm": "Xanomeline High Dose",
    ".armn": 2,
    ".mmse": 11,
    ".disease_duration": 53.1944,
    ".education": 18,
    ".weight": 68.2,
    ".height": 167.2,
    ".bmi": 24.4,
    ".randdt": "2013-03-29",
    ".rfstdtc": "2013-03-30"
  },
  {
    "STUDYID": "CDISCPILOT01",
    "DOMAIN": "DM",
    "USUBJID": "01-710-002",
    "SUBJID": "002",
    "SITEID": "710",
    "RFSTDTC": "2013-06-28",
    "RFXSTDTC": "2013-06-28",
    "AGE": 89,
    "AGEU": "YEARS",
    "SEX": "M",
    "RACE": "WHITE",
    "ARMCD": "Pbo",
    "ARM": "Placebo",
    "ACTARMCD": "Pbo",
    "ACTARM": "Placebo",
    "COUNTRY": "USA",
    "ETHNIC": "NOT HISPANIC OR LATINO",
    ".arm": "Placebo",
    ".armn": 0,
    ".mmse": 24,
    ".disease_duration": 31.1598,
    ".education": 12,
    ".weight": 71.1,
    ".height": 177.1,
    ".bmi": 22.7,
    ".randdt": "2013-06-28",
    ".rfstdtc": "2013-06-28"
  },
  {
    "STUDYID": "CDISCPILOT01",
    "DOMAIN": "DM",
    "USUBJID": "01-710-003",
    "SUBJID": "003",
    "SITEID": "710",
    "RFSTDTC": "2013-11-24",
    "RFXSTDTC": "2013-11-24",
    "AGE": 77,
    "AGEU": "YEARS",
    "SEX": "M",
    "RACE": "WHITE",
    "ARMCD": "Xan_Lo",
    "ARM": "Xanomeline Low Dose",
    "ACTARMCD": "Xan_Lo",
    "ACTARM": "Xanomeline Low Dose",
    "COUNTRY": "USA",
    "ETHNIC": "HISPANIC OR LATINO",
    ".arm": "Xanomeline Low Dose",
    ".armn": 1,
    ".mmse": 13,
    ".disease_duration": 77.8334,
    ".education": 14,
    ".weight": 66.4,
    ".height": 175.3,
    ".bmi": 21.6,
    ".randdt": "2013-11-23",
    ".rfstdtc": "2013-11-24"
  },
  {
    "STUDYID": "CDISCPILOT01",
    "DOMAIN": "DM",
    "USUBJID": "01-710-004",
    "SUBJID": "004",
    "SITEID": "710",
    "RFSTDTC": "2013-04-18",
    "RFXSTDTC": "2013-04-18",
    "AGE": 74,
    "AGEU": "YEARS",
    "SEX": "M",
    "RACE": "BLACK OR AFRICAN AMERICAN",
    "ARMCD": "Pbo",
    "ARM": "Placebo",
    "ACTARMCD": "Pbo",
    "ACTARM": "Placebo",
    "COUNTRY": "USA",
    "ETHNIC": "NOT HISPANIC OR LATINO",
    ".arm": "Placebo",
    ".armn": 0,
    ".mmse": 16,
    ".disease_duration": 30.4425,
    ".education": 12,
    ".weight": 44.8,
    ".height": 171.4,
    ".bmi": 15.2,
    ".randdt": "2013-04-17",
    ".rfstdtc": "2013-04-18"
  },
  {
    "STUDYID": "CDISCPILOT01",
    "DOMAIN": "DM",
    "USUBJID": "01-710-005",
    "SUBJID": "005",
    "SITEID": "710",
    "RFSTDTC": "2013-01-22",
    "RFXSTDTC": "2013-01-22",
    "AGE": 77,
    "AGEU": "YEARS",
    "SEX": "F",
    "RACE": "WHITE",
    "ARMCD": "Xan_Hi",
    "ARM": "Xanomeline High Dose",
    "ACTARMCD": "Xan_Hi",
    "ACTARM": "Xanomeline High Dose",
    "COUNTRY": "USA",
    "ETHNIC": "NOT HISPANIC OR LATINO",
    ".arm": "Xanomeline High Dose",
    ".armn": 2,
    ".mmse": 18,
    ".disease_duration": 25.7234,
    ".education": 8,
    ".weight": 75.3,
    ".height": 164.2,
    ".bmi": 27.9,
    ".randdt": "2013-01-21",
    ".rfstdtc": "2013-01-22"
  },
  {
    "STUDYID": "CDISCPILOT01",
    "DOMAIN": "DM",
    "USUBJID": "01-710-006",
    "SUBJID": "006",
    "SITEID": "710",
    "RFSTDTC": "2013-04-28",
    "RFXSTDTC": "2013-04-28",
    "AGE": 78,
    "AGEU": "YEARS",
    "SEX": "M",
    "RACE": "WHITE",
    "ARMCD": "Pbo",
    "ARM": "Placebo",
    "ACTARMCD": "Pbo",
    "ACTARM": "Placebo",
    "COUNTRY": "USA",
    "ETHNIC": "NOT HISPANIC OR LATINO",
    ".arm": "Placebo",
    ".armn": 0,
    ".mmse": 21,
    ".disease_duration": 51.8414,
    ".education": 11,
    ".weight": 56.6,
    ".height": 173.1,
    ".bmi": 18.9,
    ".randdt": "2013-04-27",
    ".rfstdtc": "2013-04-28"
  },
  {
    "STUDYID": "CDISCPILOT01",
    "DOMAIN": "DM",
    "USUBJID": "01-710-007",
    "SUBJID": "007",
    "SITEID": "710",
    "RFSTDTC": "2013-05-06",
    "RFXSTDTC": "2013-05-06",
    "AGE": 64,
    "AGEU": "YEARS",
    "SEX": "F",
    "RACE": "HISPANIC OR LATINO",
    "ARMCD": "Xan_Hi",
    "ARM": "Xanomeline High Dose",
    "ACTARMCD": "Xan_Hi",
    "ACTARM": "Xanomeline High Dose",
    "COUNTRY": "USA",
    "ETHNIC": "NOT HISPANIC OR LATINO",
    ".arm": "Xanomeline High Dose",
    ".armn": 2,
    ".mmse": 18,
    ".disease_duration": 55.0731,
    ".education": 9,
    ".weight": 67,
    ".height": 159,
    ".bmi": 26.5,
    ".randdt": "2013-05-06",
    ".rfstdtc": "2013-05-06"
  },
  {
    "STUDYID": "CDISCPILOT01",
    "DOMAIN": "DM",
    "USUBJID": "01-710-008",
    "SUBJID": "008",
    "SITEID": "710",
    "RFSTDTC": "2013-10-27",
    "RFXSTDTC": "2013-10-27",
    "AGE": 66,
    "AGEU": "YEARS",
    "SEX": "M",
    "RACE": "WHITE",
    "ARMCD": "Xan_Lo",
    "ARM": "Xanomeline Low Dose",
    "ACTARMCD": "Xan_Lo",
    "ACTARM": "Xanomeline Low Dose",
    "COUNTRY": "USA",
    "ETHNIC": "NOT HISPANIC OR LATINO",
    ".arm": "Xanomeline Low Dose",
    ".armn": 1,
    ".mmse": 20,
    ".disease_duration": 15.1999,
    ".education": 15,
    ".weight": 93.8,
    ".height": 179.3,
    ".bmi": 29.2,
    ".randdt": "2013-10-26",
    ".rfstdtc": "2013-10-27"
  },
  {
    "STUDYID": "CDISCPILOT01",
    "DOMAIN": "DM",
    "USUBJID": "01-710-009",
    "SUBJID": "009",
    "SITEID": "710",
    "RFSTDTC": "2013-10-14",
    "RFXSTDTC": "2013-10-14",
    "AGE": 75,
    "AGEU": "YEARS",
    "SEX": "F",
    "RACE": "WHITE",
    "ARMCD": "Xan_Lo",
    "ARM": "Xanomeline Low Dose",
    "ACTARMCD": "Xan_Lo",
    "ACTARM": "Xanomeline Low Dose",
    "COUNTRY": "USA",
    "ETHNIC": "NOT HISPANIC OR LATINO",
    ".arm": "Xanomeline Low Dose",
    ".armn": 1,
    ".mmse": 13,
    ".disease_duration": 2,
    ".education": 17,
    ".weight": 47.9,
    ".height": 163.7,
    ".bmi": 17.9,
    ".randdt": "2013-10-13",
    ".rfstdtc": "2013-10-14"
  },
  {
    "STUDYID": "CDISCPILOT01",
    "DOMAIN": "DM",
    "USUBJID": "01-710-010",
    "SUBJID": "010",
    "SITEID": "710",
    "RFSTDTC": "2013-07-15",
    "RFXSTDTC": "2013-07-15",
    "AGE": 65,
    "AGEU": "YEARS",
    "SEX": "F",
    "RACE": "WHITE",
    "ARMCD": "Xan_Lo",
    "ARM": "Xanomeline Low Dose",
    "ACTARMCD": "Xan_Lo",
    "ACTARM": "Xanomeline Low Dose",
    "COUNTRY": "USA",
    "ETHNIC": "NOT HISPANIC OR LATINO",
    ".arm": "Xanomeline Low Dose",
    ".armn": 1,
    ".mmse": 16,
    ".disease_duration": 50.3913,
    ".education": 19,
    ".weight": 61.5,
    ".height": 147.4,
    ".bmi": 28.3,
    ".randdt": "2013-07-14",
    ".rfstdtc": "2013-07-15"
  },
  {
    "STUDYID": "CDISCPILOT01",
    "DOMAIN": "DM",
    "USUBJID": "01-710-011",
    "SUBJID": "011",
    "SITEID": "710",
    "RFSTDTC": "2013-11-16",
    "RFXSTDTC": "2013-11-16",
    "AGE": 75,
    "AGEU": "YEARS",
    "SEX": "F",
    "RACE": "WHITE",
    "ARMCD": "Pbo",
    "ARM": "Placebo",
    "ACTARMCD": "Pbo",
    "ACTARM": "Placebo",
    "COUNTRY": "USA",
    "ETHNIC": "NOT HISPANIC OR LATINO",
    ".arm": "Placebo",
    ".armn": 0,
    ".mmse": 10,
    ".disease_duration": 10.7229,
    ".education": 7,
    ".weight": 75,
    ".height": 155.6,
    ".bmi": 31,
    ".randdt": "2013-11-16",
    ".rfstdtc": "2013-11-16"
  },
  {
    "STUDYID": "CDISCPILOT01",
    "DOMAIN": "DM",
    "USUBJID": "01-710-012",
    "SUBJID": "012",
    "SITEID": "710",
    "RFSTDTC": "2013-07-24",
    "RFXSTDTC": "2013-07-24",
    "AGE": 71,
    "AGEU": "YEARS",
    "SEX": "F",
    "RACE": "WHITE",
    "ARMCD": "Xan_Hi",
    "ARM": "Xanomeline High Dose",
    "ACTARMCD": "Xan_Hi",
    "ACTARM": "Xanomeline High Dose",
    "COUNTRY": "USA",
    "ETHNIC": "NOT HISPANIC OR LATINO",
    ".arm": "Xanomeline High Dose",
    ".armn": 2,
    ".mmse": 17,
    ".disease_duration": 20.9691,
    ".education": 12,
    ".weight": 69.1,
    ".height": 151.5,
    ".bmi": 30.1,
    ".randdt": "2013-07-24",
    ".rfstdtc": "2013-07-24"
  },
  {
    "STUDYID": "CDISCPILOT01",
    "DOMAIN": "DM",
    "USUBJID": "01-710-013",
    "SUBJID": "013",
    "SITEID": "710",
    "RFSTDTC": "2013-11-15",
    "RFXSTDTC": "2013-11-15",
    "AGE": 59,
    "AGEU": "YEARS",
    "SEX": "M",
    "RACE": "WHITE",
    "ARMCD": "Pbo",
    "ARM": "Placebo",
    "ACTARMCD": "Pbo",
    "ACTARM": "Placebo",
    "COUNTRY": "USA",
    "ETHNIC": "NOT HISPANIC OR LATINO",
    ".arm": "Placebo",
    ".armn": 0,
    ".mmse": 10,
    ".disease_duration": 51.9263,
    ".education": 11,
    ".weight": 56.1,
    ".height": 171.2,
    ".bmi": 19.1,
    ".randdt": "2013-11-15",
    ".rfstdtc": "2013-11-15"
  },
  {
    "STUDYID": "CDISCPILOT01",
    "DOMAIN": "DM",
    "USUBJID": "01-710-014",
    "SUBJID": "014",
    "SITEID": "710",
    "RFSTDTC": "2013-06-14",
    "RFXSTDTC": "2013-06-14",
    "AGE": 78,
    "AGEU": "YEARS",
    "SEX": "F",
    "RACE": "WHITE",
    "ARMCD": "Pbo",
    "ARM": "Placebo",
    "ACTARMCD": "Pbo",
    "ACTARM": "Placebo",
    "COUNTRY": "USA",
    "ETHNIC": "NOT HISPANIC OR LATINO",
    ".arm": "Placebo",
    ".armn": 0,
    ".mmse": 19,
    ".disease_duration": 74.865,
    ".education": 15,
    ".weight": 54.8,
    ".height": 162.8,
    ".bmi": 20.7,
    ".randdt": "2013-06-14",
    ".rfstdtc": "2013-06-14"
  },
  {
    "STUDYID": "CDISCPILOT01",
    "DOMAIN": "DM",
    "USUBJID": "01-710-015",
    "SUBJID": "015",
    "SITEID": "710",
    "RFSTDTC": "2013-07-27",
    "RFXSTDTC": "2013-07-27",
    "AGE": 61,
    "AGEU": "YEARS",
    "SEX": "F",
    "RACE": "WHITE",
    "ARMCD": "Pbo",
    "ARM": "Placebo",
    "ACTARMCD": "Pbo",
    "ACTARM": "Placebo",
    "COUNTRY": "USA",
    "ETHNIC": "NOT HISPANIC OR LATINO",
    ".arm": "Placebo",
    ".armn": 0,
    ".mmse": 17,
    ".disease_duration": 90.3551,
    ".education": 14,
    ".weight": 63.6,
    ".height": 159,
    ".bmi": 25.2,
    ".randdt": "2013-07-26",
    ".rfstdtc": "2013-07-27"
  },
  {
    "STUDYID": "CDISCPILOT01",
    "DOMAIN": "DM",
    "USUBJID": "01-710-016",
    "SUBJID": "016",
    "SITEID": "710",
    "RFSTDTC": "2013-03-28",
    "RFXSTDTC": "2013-03-28",
    "AGE": 56,
    "AGEU": "YEARS",
    "SEX": "F",
    "RACE": "WHITE",
    "ARMCD": "Xan_Hi",
    "ARM": "Xanomeline High Dose",
    "ACTARMCD": "Xan_Hi",
    "ACTARM": "Xanomeline High Dose",
    "COUNTRY": "USA",
    "ETHNIC": "NOT HISPANIC OR LATINO",
    ".arm": "Xanomeline High Dose",
    ".armn": 2,
    ".mmse": 13,
    ".disease_duration": 2,
    ".education": 13,
    ".weight": 70.6,
    ".height": 147,
    ".bmi": 32.7,
    ".randdt": "2013-03-27",
    ".rfstdtc": "2013-03-28"
  },
  {
    "STUDYID": "CDISCPILOT01",
    "DOMAIN": "DM",
    "USUBJID": "01-710-017",
    "SUBJID": "017",
    "SITEID": "710",
    "RFSTDTC": "2013-08-25",
    "RFXSTDTC": "2013-08-25",
    "AGE": 80,
    "AGEU": "YEARS",
    "SEX": "M",
    "RACE": "WHITE",
    "ARMCD": "Xan_Lo",
    "ARM": "Xanomeline Low Dose",
    "ACTARMCD": "Xan_Lo",
    "ACTARM": "Xanomeline Low Dose",
    "COUNTRY": "USA",
    "ETHNIC": "NOT HISPANIC OR LATINO",
    ".arm": "Xanomeline Low Dose",
    ".armn": 1,
    ".mmse": 19,
    ".disease_duration": 26.6633,
    ".education": 16,
    ".weight": 80.9,
    ".height": 168.6,
    ".bmi": 28.5,
    ".randdt": "2013-08-24",
    ".rfstdtc": "2013-08-25"
  },
  {
    "STUDYID": "CDISCPILOT01",
    "DOMAIN": "DM",
    "USUBJID": "01-710-018",
    "SUBJID": "018",
    "SITEID": "710",
    "RFSTDTC": "2013-08-28",
    "RFXSTDTC": "2013-08-28",
    "AGE": 78,
    "AGEU": "YEARS",
    "SEX": "M",
    "RACE": "WHITE",
    "ARMCD": "Pbo",
    "ARM": "Placebo",
    "ACTARMCD": "Pbo",
    "ACTARM": "Placebo",
    "COUNTRY": "USA",
    "ETHNIC": "NOT HISPANIC OR LATINO",
    ".arm": "Placebo",
    ".armn": 0,
    ".mmse": 24,
    ".disease_duration": 43.3303,
    ".education": 13,
    ".weight": 63.7,
    ".height": 152.5,
    ".bmi": 27.4,
    ".randdt": "2013-08-27",
    ".rfstdtc": "2013-08-28"
  },
  {
    "STUDYID": "CDISCPILOT01",
    "DOMAIN": "DM",
    "USUBJID": "01-710-019",
    "SUBJID": "019",
    "SITEID": "710",
    "RFSTDTC": "2013-02-25",
    "RFXSTDTC": "2013-02-25",
    "AGE": 65,
    "AGEU": "YEARS",
    "SEX": "F",
    "RACE": "BLACK OR AFRICAN AMERICAN",
    "ARMCD": "Xan_Hi",
    "ARM": "Xanomeline High Dose",
    "ACTARMCD": "Xan_Hi",
    "ACTARM": "Xanomeline High Dose",
    "COUNTRY": "USA",
    "ETHNIC": "NOT HISPANIC OR LATINO",
    ".arm": "Xanomeline High Dose",
    ".armn": 2,
    ".mmse": 18,
    ".disease_duration": 60.4677,
    ".education": 13,
    ".weight": 85.2,
    ".height": 154.7,
    ".bmi": 35.6,
    ".randdt": "2013-02-24",
    ".rfstdtc": "2013-02-25"
  },
  {
    "STUDYID": "CDISCPILOT01",
    "DOMAIN": "DM",
    "USUBJID": "01-710-020",
    "SUBJID": "020",
    "SITEID": "710",
    "RFSTDTC": "2013-05-22",
    "RFXSTDTC": "2013-05-22",
    "AGE": 85,
    "AGEU": "YEARS",
    "SEX": "F",
    "RACE": "WHITE",
    "ARMCD": "Pbo",
    "ARM": "Placebo",
    "ACTARMCD": "Pbo",
    "ACTARM": "Placebo",
    "COUNTRY": "USA",
    "ETHNIC": "NOT HISPANIC OR LATINO",
    ".arm": "Placebo",
    ".armn": 0,
    ".mmse": 24,
    ".disease_duration": 72.3689,
    ".education": 14,
    ".weight": 78.5,
    ".height": 155.4,
    ".bmi": 32.5,
    ".randdt": "2013-05-21",
    ".rfstdtc": "2013-05-22"
  },
  {
    "STUDYID": "CDISCPILOT01",
    "DOMAIN": "DM",
    "USUBJID": "01-710-021",
    "SUBJID": "021",
    "SITEID": "710",
    "RFSTDTC": "2013-07-03",
    "RFXSTDTC": "2013-07-03",
    "AGE": 75,
    "AGEU": "YEARS",
    "SEX": "F",
    "RACE": "HISPANIC OR LATINO",
    "ARMCD": "Pbo",
    "ARM": "Placebo",
    "ACTARMCD": "Pbo",
    "ACTARM": "Placebo",
    "COUNTRY": "USA",
    "ETHNIC": "NOT HISPANIC OR LATINO",
    ".arm": "Placebo",
    ".armn": 0,
    ".mmse": 15,
    ".disease_duration": 93.3846,
    ".education": 11,
    ".weight": 75.5,
    ".height": 155.8,
    ".bmi": 31.1,
    ".randdt": "2013-07-02",
    ".rfstdtc": "2013-07-03"
  },
  {
    "STUDYID": "CDISCPILOT01",
    "DOMAIN": "DM",
    "USUBJID": "01-710-022",
    "SUBJID": "022",
    "SITEID": "710",
    "RFSTDTC": "2013-03-05",
    "RFXSTDTC": "2013-03-05",
    "AGE": 82,
    "AGEU": "YEARS",
    "SEX": "M",
    "RACE": "WHITE",
    "ARMCD": "Xan_Lo",
    "ARM": "Xanomeline Low Dose",
    "ACTARMCD": "Xan_Lo",
    "ACTARM": "Xanomeline Low Dose",
    "COUNTRY": "USA",
    "ETHNIC": "NOT HISPANIC OR LATINO",
    ".arm": "Xanomeline Low Dose",
    ".armn": 1,
    ".mmse": 23,
    ".disease_duration": 44.6418,
    ".education": 11,
    ".weight": 85.9,
    ".height": 167.9,
    ".bmi": 30.5,
    ".randdt": "2013-03-04",
    ".rfstdtc": "2013-03-05"
  },
  {
    "STUDYID": "CDISCPILOT01",
    "DOMAIN": "DM",
    "USUBJID": "01-710-023",
    "SUBJID": "023",
    "SITEID": "710",
    "RFSTDTC": "2013-05-11",
    "RFXSTDTC": "2013-05-11",
    "AGE": 89,
    "AGEU": "YEARS",
    "SEX": "F",
    "RACE": "WHITE",
    "ARMCD": "Pbo",
    "ARM": "Placebo",
    "ACTARMCD": "Pbo",
    "ACTARM": "Placebo",
    "COUNTRY": "USA",
    "ETHNIC": "NOT HISPANIC OR LATINO",
    ".arm": "Placebo",
    ".armn": 0,
    ".mmse": 22,
    ".disease_duration": 2,
    ".education": 5,
    ".weight": 56.2,
    ".height": 154.3,
    ".bmi": 23.6,
    ".randdt": "2013-05-10",
    ".rfstdtc": "2013-05-11"
  },
  {
    "STUDYID": "CDISCPILOT01",
    "DOMAIN": "DM",
    "USUBJID": "01-710-024",
    "SUBJID": "024",
    "SITEID": "710",
    "RFSTDTC": "2013-09-18",
    "RFXSTDTC": "2013-09-18",
    "AGE": 80,
    "AGEU": "YEARS",
    "SEX": "F",
    "RACE": "WHITE",
    "ARMCD": "Xan_Lo",
    "ARM": "Xanomeline Low Dose",
    "ACTARMCD": "Xan_Lo",
    "ACTARM": "Xanomeline Low Dose",
    "COUNTRY": "USA",
    "ETHNIC": "NOT HISPANIC OR LATINO",
    ".arm": "Xanomeline Low Dose",
    ".armn": 1,
    ".mmse": 21,
    ".disease_duration": 126.0724,
    ".education": 13,
    ".weight": 61.5,
    ".height": 162,
    ".bmi": 23.4,
    ".randdt": "2013-09-17",
    ".rfstdtc": "2013-09-18"
  },
  {
    "STUDYID": "CDISCPILOT01",
    "DOMAIN": "DM",
    "USUBJID": "01-710-025",
    "SUBJID": "025",
    "SITEID": "710",
    "RFSTDTC": "2013-09-22",
    "RFXSTDTC": "2013-09-22",
    "AGE": 71,
    "AGEU": "YEARS",
    "SEX": "M",
    "RACE": "WHITE",
    "ARMCD": "Xan_Lo",
    "ARM": "Xanomeline Low Dose",
    "ACTARMCD": "Xan_Lo",
    "ACTARM": "Xanomeline Low Dose",
    "COUNTRY": "USA",
    "ETHNIC": "NOT HISPANIC OR LATINO",
    ".arm": "Xanomeline Low Dose",
    ".armn": 1,
    ".mmse": 19,
    ".disease_duration": 85.6559,
    ".education": 21,
    ".weight": 53.6,
    ".height": 169.3,
    ".bmi": 18.7,
    ".randdt": "2013-09-21",
    ".rfstdtc": "2013-09-22"
  },
  {
    "STUDYID": "CDISCPILOT01",
    "DOMAIN": "DM",
    "USUBJID": "01-710-026",
    "SUBJID": "026",
    "SITEID": "710",
    "RFSTDTC": "2013-02-15",
    "RFXSTDTC": "2013-02-15",
    "AGE": 77,
    "AGEU": "YEARS",
    "SEX": "F",
    "RACE": "BLACK OR AFRICAN AMERICAN",
    "ARMCD": "Xan_Hi",
    "ARM": "Xanomeline High Dose",
    "ACTARMCD": "Xan_Hi",
    "ACTARM": "Xanomeline High Dose",
    "COUNTRY": "USA",
    "ETHNIC": "NOT HISPANIC OR LATINO",
    ".arm": "Xanomeline High Dose",
    ".armn": 2,
    ".mmse": 21,
    ".disease_duration": 42.9444,
    ".education": 9,
    ".weight": 63.5,
    ".height": 161.8,
    ".bmi": 24.3,
    ".randdt": "2013-02-15",
    ".rfstdtc": "2013-02-15"
  },
  {
    "STUDYID": "CDISCPILOT01",
    "DOMAIN": "DM",
    "USUBJID": "01-710-027",
    "SUBJID": "027",
    "SITEID": "710",
    "RFSTDTC": "2013-03-09",
    "RFXSTDTC": "2013-03-09",
    "AGE": 85,
    "AGEU": "YEARS",
    "SEX": "M",
    "RACE": "WHITE",
    "ARMCD": "Xan_Lo",
    "ARM": "Xanomeline Low Dose",
    "ACTARMCD": "Xan_Lo",
    "ACTARM": "Xanomeline Low Dose",
    "COUNTRY": "USA",
    "ETHNIC": "NOT HISPANIC OR LATINO",
    ".arm": "Xanomeline Low Dose",
    ".armn": 1,
    ".mmse": 11,
    ".disease_duration": 47.1129,
    ".education": 11,
    ".weight": 74.3,
    ".height": 170.8,
    ".bmi": 25.5,
    ".randdt": "2013-03-09",
    ".rfstdtc": "2013-03-09"
  },
  {
    "STUDYID": "CDISCPILOT01",
    "DOMAIN": "DM",
    "USUBJID": "01-710-028",
    "SUBJID": "028",
    "SITEID": "710",
    "RFSTDTC": "2013-08-22",
    "RFXSTDTC": "2013-08-22",
    "AGE": 69,
    "AGEU": "YEARS",
    "SEX": "M",
    "RACE": "WHITE",
    "ARMCD": "Xan_Hi",
    "ARM": "Xanomeline High Dose",
    "ACTARMCD": "Xan_Hi",
    "ACTARM": "Xanomeline High Dose",
    "COUNTRY": "USA",
    "ETHNIC": "NOT HISPANIC OR LATINO",
    ".arm": "Xanomeline High Dose",
    ".armn": 2,
    ".mmse": 24,
    ".disease_duration": 73.2957,
    ".education": 8,
    ".weight": 96.2,
    ".height": 169.6,
    ".bmi": 33.4,
    ".randdt": "2013-08-22",
    ".rfstdtc": "2013-08-22"
  },
  {
    "STUDYID": "CDISCPILOT01",
    "DOMAIN": "DM",
    "USUBJID": "01-710-029",
    "SUBJID": "029",
    "SITEID": "710",
    "RFSTDTC": "2013-10-04",
    "RFXSTDTC": "2013-10-04",
    "AGE": 75,
    "AGEU": "YEARS",
    "SEX": "F",
    "RACE": "WHITE",
    "ARMCD": "Pbo",
    "ARM": "Placebo",
    "ACTARMCD": "Pbo",
    "ACTARM": "Placebo",
    "COUNTRY": "USA",
    "ETHNIC": "NOT HISPANIC OR LATINO",
    ".arm": "Placebo",
    ".armn": 0,
    ".mmse": 18,
    ".disease_duration": 66.3806,
    ".education": 17,
    ".weight": 48.1,
    ".height": 154.6,
    ".bmi": 20.1,
    ".randdt": "2013-10-04",
    ".rfstdtc": "2013-10-04"
  },
  {
    "STUDYID": "CDISCPILOT01",
    "DOMAIN": "DM",
    "USUBJID": "01-711-001",
    "SUBJID": "001",
    "SITEID": "711",
    "RFSTDTC": "2013-08-06",
    "RFXSTDTC": "2013-08-06",
    "AGE": 78,
    "AGEU": "YEARS",
    "SEX": "F",
    "RACE": "WHITE",
    "ARMCD": "Pbo",
    "ARM": "Placebo",
    "ACTARMCD": "Pbo",
    "ACTARM": "Placebo",
    "COUNTRY": "USA",
    "ETHNIC": "NOT HISPANIC OR LATINO",
    ".arm": "Placebo",
    ".armn": 0,
    ".mmse": 15,
    ".disease_duration": 34.8257,
    ".education": 19,
    ".weight": 81.1,
    ".height": 152.9,
    ".bmi": 34.7,
    ".randdt": "2013-08-06",
    ".rfstdtc": "2013-08-06"
  },
  {
    "STUDYID": "CDISCPILOT01",
    "DOMAIN": "DM",
    "USUBJID": "01-711-002",
    "SUBJID": "002",
    "SITEID": "711",
    "RFSTDTC": "2013-01-03",
    "RFXSTDTC": "2013-01-03",
    "AGE": 71,
    "AGEU": "YEARS",
    "SEX": "F",
    "RACE": "WHITE",
    "ARMCD": "Pbo",
    "ARM": "Placebo",
    "ACTARMCD": "Pbo",
    "ACTARM": "Placebo",
    "COUNTRY": "USA",
    "ETHNIC": "NOT HISPANIC OR LATINO",
    ".arm": "Placebo",
    ".armn": 0,
    ".mmse": 15,
    ".disease_duration": 42.6577,
    ".education": 18,
    ".weight": 74.2,
    ".height": 157.5,
    ".bmi": 29.9,
    ".randdt": "2013-01-03",
    ".rfstdtc": "2013-01-03"
  },
  {
    "STUDYID": "CDISCPILOT01",
    "DOMAIN": "DM",
    "USUBJID": "01-711-003",
    "SUBJID": "003",
    "SITEID": "711",
    "RFSTDTC": "2013-11-19",
    "RFXSTDTC": "2013-11-19",
    "AGE": 74,
    "AGEU": "YEARS",
    "SEX": "F",
    "RACE": "WHITE",
    "ARMCD": "Xan_Hi",
    "ARM": "Xanomeline High Dose",
    "ACTARMCD": "Xan_Hi",
    "ACTARM": "Xanomeline High Dose",
    "COUNTRY": "USA",
    "ETHNIC": "NOT HISPANIC OR LATINO",
    ".arm": "Xanomeline High Dose",
    ".armn": 2,
    ".mmse": 24,
    ".disease_duration": 45.6862,
    ".education": 17,
    ".weight": 67.9,
    ".height": 159.4,
    ".bmi": 26.7,
    ".randdt": "2013-11-18",
    ".rfstdtc": "2013-11-19"
  },
  {
    "STUDYID": "CDISCPILOT01",
    "DOMAIN": "DM",
    "USUBJID": "01-711-004",
    "SUBJID": "004",
    "SITEID": "711",
    "RFSTDTC": "2013-10-02",
    "RFXSTDTC": "2013-10-02",
    "AGE": 66,
    "AGEU": "YEARS",
    "SEX": "M",
    "RACE": "WHITE",
    "ARMCD": "Xan_Lo",
    "ARM": "Xanomeline Low Dose",
    "ACTARMCD": "Xan_Lo",
    "ACTARM": "Xanomeline Low Dose",
    "COUNTRY": "USA",
    "ETHNIC": "NOT HISPANIC OR LATINO",
    ".arm": "Xanomeline Low Dose",
    ".armn": 1,
    ".mmse": 18,
    ".disease_duration": 2,
    ".education": 19,
    ".weight": 65,
    ".height": 170.5,
    ".bmi": 22.4,
    ".randdt": "2013-10-01",
    ".rfstdtc": "2013-10-02"
  },
  {
    "STUDYID": "CDISCPILOT01",
    "DOMAIN": "DM",
    "USUBJID": "01-713-001",
    "SUBJID": "001",
    "SITEID": "713",
    "RFSTDTC": "2013-01-03",
    "RFXSTDTC": "2013-01-03",
    "AGE": 75,
    "AGEU": "YEARS",
    "SEX": "M",
    "RACE": "WHITE",
    "ARMCD": "Pbo",
    "ARM": "Placebo",
    "ACTARMCD": "Pbo",
    "ACTARM": "Placebo",
    "COUNTRY": "USA",
    "ETHNIC": "NOT HISPANIC OR LATINO",
    ".arm": "Placebo",
    ".armn": 0,
    ".mmse": 15,
    ".disease_duration": 32.0647,
    ".education": 13,
    ".weight": 71.1,
    ".height": 176.1,
    ".bmi": 22.9,
    ".randdt": "2013-01-02",
    ".rfstdtc": "2013-01-03"
  },
  {
    "STUDYID": "CDISCPILOT01",
    "DOMAIN": "DM",
    "USUBJID": "01-713-002",
    "SUBJID": "002",
    "SITEID": "713",
    "RFSTDTC": "2013-05-27",
    "RFXSTDTC": "2013-05-27",
    "AGE": 64,
    "AGEU": "YEARS",
    "SEX": "M",
    "RACE": "WHITE",
    "ARMCD": "Xan_Lo",
    "ARM": "Xanomeline Low Dose",
    "ACTARMCD": "Xan_Lo",
    "ACTARM": "Xanomeline Low Dose",
    "COUNTRY": "USA",
    "ETHNIC": "NOT HISPANIC OR LATINO",
    ".arm": "Xanomeline Low Dose",
    ".armn": 1,
    ".mmse": 17,
    ".disease_duration": 31.8821,
    ".education": 15,
    ".weight": 78.5,
    ".height": 163.6,
    ".bmi": 29.3,
    ".randdt": "2013-05-26",
    ".rfstdtc": "2013-05-27"
  },
  {
    "STUDYID": "CDISCPILOT01",
    "DOMAIN": "DM",
    "USUBJID": "01-713-003",
    "SUBJID": "003",
    "SITEID": "713",
    "RFSTDTC": "2013-09-19",
    "RFXSTDTC": "2013-09-19",
    "AGE": 75,
    "AGEU": "YEARS",
    "SEX": "M",
    "RACE": "WHITE",
    "ARMCD": "Xan_Hi",
    "ARM": "Xanomeline High Dose",
    "ACTARMCD": "Xan_Hi",
    "ACTARM": "Xanomeline High Dose",
    "COUNTRY": "USA",
    "ETHNIC": "NOT HISPANIC OR LATINO",
    ".arm": "Xanomeline High Dose",
    ".armn": 2,
    ".mmse": 16,
    ".disease_duration": 9.9292,
    ".education": 9,
    ".weight": 61.9,
    ".height": 157.6,
    ".bmi": 24.9,
    ".randdt": "2013-09-18",
    ".rfstdtc": "2013-09-19"
  },
  {
    "STUDYID": "CDISCPILOT01",
    "DOMAIN": "DM",
    "USUBJID": "01-713-004",
    "SUBJID": "004",
    "SITEID": "713",
    "RFSTDTC": "2013-06-21",
    "RFXSTDTC": "2013-06-21",
    "AGE": 81,
    "AGEU": "YEARS",
    "SEX": "F",
    "RACE": "WHITE",
    "ARMCD": "Xan_Hi",
    "ARM": "Xanomeline High Dose",
    "ACTARMCD": "Xan_Hi",
    "ACTARM": "Xanomeline High Dose",
    "COUNTRY": "USA",
    "ETHNIC": "NOT HISPANIC OR LATINO",
    ".arm": "Xanomeline High Dose",
    ".armn": 2,
    ".mmse": 14,
    ".disease_duration": 32.802,
    ".education": 12,
    ".weight": 76.2,
    ".height": 169,
    ".bmi": 26.7,
    ".randdt": "2013-06-20",
    ".rfstdtc": "2013-06-21"
  },
  {
    "STUDYID": "CDISCPILOT01",
    "DOMAIN": "DM",
    "USUBJID": "01-713-005",
    "SUBJID": "005",
    "SITEID": "713",
    "RFSTDTC": "2013-07-12",
    "RFXSTDTC": "2013-07-12",
    "AGE": 89,
    "AGEU": "YEARS",
    "SEX": "M",
    "RACE": "WHITE",
    "ARMCD": "Pbo",
    "ARM": "Placebo",
    "ACTARMCD": "Pbo",
    "ACTARM": "Placebo",
    "COUNTRY": "USA",
    "ETHNIC": "NOT HISPANIC OR LATINO",
    ".arm": "Placebo",
    ".armn": 0,
    ".mmse": 10,
    ".disease_duration": 61.4538,
    ".education": 16,
    ".weight": 66,
    ".height": 167.2,
    ".bmi": 23.6,
    ".randdt": "2013-07-12",
    ".rfstdtc": "2013-07-12"
  },
  {
    "STUDYID": "CDISCPILOT01",
    "DOMAIN": "DM",
    "USUBJID": "01-713-006",
    "SUBJID": "006",
    "SITEID": "713",
    "RFSTDTC": "2013-10-23",
    "RFXSTDTC": "2013-10-23",
    "AGE": 69,
    "AGEU": "YEARS",
    "SEX": "F",
    "RACE": "WHITE",
    "ARMCD": "Xan_Hi",
    "ARM": "Xanomeline High Dose",
    "ACTARMCD": "Xan_Hi",
    "ACTARM": "Xanomeline High Dose",
    "COUNTRY": "USA",
    "ETHNIC": "NOT HISPANIC OR LATINO",
    ".arm": "Xanomeline High Dose",
    ".armn": 2,
    ".mmse": 24,
    ".disease_duration": 46.3017,
    ".education": 14,
    ".weight": 67.2,
    ".height": 153.8,
    ".bmi": 28.4,
    ".randdt": "2013-10-22",
    ".rfstdtc": "2013-10-23"
  },
  {
    "STUDYID": "CDISCPILOT01",
    "DOMAIN": "DM",
    "USUBJID": "01-713-007",
    "SUBJID": "007",
    "SITEID": "713",
    "RFSTDTC": "2013-04-23",
    "RFXSTDTC": "2013-04-23",
    "AGE": 73,
    "AGEU": "YEARS",
    "SEX": "M",
    "RACE": "WHITE",
    "ARMCD": "Pbo",
    "ARM": "Placebo",
    "ACTARMCD": "Pbo",
    "ACTARM": "Placebo",
    "COUNTRY": "USA",
    "ETHNIC": "NOT HISPANIC OR LATINO",
    ".arm": "Placebo",
    ".armn": 0,
    ".mmse": 22,
    ".disease_duration": 74.6289,
    ".education": 18,
    ".weight": 49.7,
    ".height": 164.1,
    ".bmi": 18.5,
    ".randdt": "2013-04-22",
    ".rfstdtc": "2013-04-23"
  },
  {
    "STUDYID": "CDISCPILOT01",
    "DOMAIN": "DM",
    "USUBJID": "01-713-008",
    "SUBJID": "008",
    "SITEID": "713",
    "RFSTDTC": "2013-12-08",
    "RFXSTDTC": "2013-12-08",
    "AGE": 65,
    "AGEU": "YEARS",
    "SEX": "F",
    "RACE": "WHITE",
    "ARMCD": "Xan_Lo",
    "ARM": "Xanomeline Low Dose",
    "ACTARMCD": "Xan_Lo",
    "ACTARM": "Xanomeline Low Dose",
    "COUNTRY": "USA",
    "ETHNIC": "NOT HISPANIC OR LATINO",
    ".arm": "Xanomeline Low Dose",
    ".armn": 1,
    ".mmse": 16,
    ".disease_duration": 51.5208,
    ".education": 19,
    ".weight": 49.7,
    ".height": 153,
    ".bmi": 21.2,
    ".randdt": "2013-12-07",
    ".rfstdtc": "2013-12-08"
  },
  {
    "STUDYID": "CDISCPILOT01",
    "DOMAIN": "DM",
    "USUBJID": "01-714-001",
    "SUBJID": "001",
    "SITEID": "714",
    "RFSTDTC": "2013-10-06",
    "RFXSTDTC": "2013-10-06",
    "AGE": 68,
    "AGEU": "YEARS",
    "SEX": "M",
    "RACE": "WHITE",
    "ARMCD": "Pbo",
    "ARM": "Placebo",
    "ACTARMCD": "Pbo",
    "ACTARM": "Placebo",
    "COUNTRY": "USA",
    "ETHNIC": "NOT HISPANIC OR LATINO",
    ".arm": "Placebo",
    ".armn": 0,
    ".mmse": 14,
    ".disease_duration": 53.7236,
    ".education": 10,
    ".weight": 68.8,
    ".height": 171.2,
    ".bmi": 23.5,
    ".randdt": "2013-10-06",
    ".rfstdtc": "2013-10-06"
  },
  {
    "STUDYID": "CDISCPILOT01",
    "DOMAIN": "DM",
    "USUBJID": "01-714-002",
    "SUBJID": "002",
    "SITEID": "714",
    "RFSTDTC": "2013-10-26",
    "RFXSTDTC": "2013-10-26",
    "AGE": 84,
    "AGEU": "YEARS",
    "SEX": "M",
    "RACE": "WHITE",
    "ARMCD": "Xan_Lo",
    "ARM": "Xanomeline Low Dose",
    "ACTARMCD": "Xan_Lo",
    "ACTARM": "Xanomeline Low Dose",
    "COUNTRY": "USA",
    "ETHNIC": "NOT HISPANIC OR LATINO",
    ".arm": "Xanomeline Low Dose",
    ".armn": 1,
    ".mmse": 15,
    ".disease_duration": 60.5935,
    ".education": 12,
    ".weight": 61.6,
    ".height": 166.3,
    ".bmi": 22.3,
    ".randdt": "2013-10-25",
    ".rfstdtc": "2013-10-26"
  },
  {
    "STUDYID": "CDISCPILOT01",
    "DOMAIN": "DM",
    "USUBJID": "01-714-003",
    "SUBJID": "003",
    "SITEID": "714",
    "RFSTDTC": "2013-10-24",
    "RFXSTDTC": "2013-10-24",
    "AGE": 69,
    "AGEU": "YEARS",
    "SEX": "F",
    "RACE": "WHITE",
    "ARMCD": "Xan_Lo",
    "ARM": "Xanomeline Low Dose",
    "ACTARMCD": "Xan_Lo",
    "ACTARM": "Xanomeline Low Dose",
    "COUNTRY": "USA",
    "ETHNIC": "NOT HISPANIC OR LATINO",
    ".arm": "Xanomeline Low Dose",
    ".armn": 1,
    ".mmse": 16,
    ".disease_duration": 57.4645,
    ".education": 13,
    ".weight": 62.4,
    ".height": 150.2,
    ".bmi": 27.7,
    ".randdt": "2013-10-24",
    ".rfstdtc": "2013-10-24"
  },
  {
    "STUDYID": "CDISCPILOT01",
    "DOMAIN": "DM",
    "USUBJID": "01-715-001",
    "SUBJID": "001",
    "SITEID": "715",
    "RFSTDTC": "2013-08-01",
    "RFXSTDTC": "2013-08-01",
    "AGE": 70,
    "AGEU": "YEARS",
    "SEX": "F",
    "RACE": "WHITE",
    "ARMCD": "Xan_Hi",
    "ARM": "Xanomeline High Dose",
    "ACTARMCD": "Xan_Hi",
    "ACTARM": "Xanomeline High Dose",
    "COUNTRY": "USA",
    "ETHNIC": "NOT HISPANIC OR LATINO",
    ".arm": "Xanomeline High Dose",
    ".armn": 2,
    ".mmse": 24,
    ".disease_duration": 55.2968,
    ".education": 13,
    ".weight": 51.8,
    ".height": 157.9,
    ".bmi": 20.8,
    ".randdt": "2013-07-31",
    ".rfstdtc": "2013-08-01"
  },
  {
    "STUDYID": "CDISCPILOT01",
    "DOMAIN": "DM",
    "USUBJID": "01-715-002",
    "SUBJID": "002",
    "SITEID": "715",
    "RFSTDTC": "2013-05-30",
    "RFXSTDTC": "2013-05-30",
    "AGE": 59,
    "AGEU": "YEARS",
    "SEX": "F",
    "RACE": "BLACK OR AFRICAN AMERICAN",
    "ARMCD": "Xan_Hi",
    "ARM": "Xanomeline High Dose",
    "ACTARMCD": "Xan_Hi",
    "ACTARM": "Xanomeline High Dose",
    "COUNTRY": "USA",
    "ETHNIC": "NOT HISPANIC OR LATINO",
    ".arm": "Xanomeline High Dose",
    ".armn": 2,
    ".mmse": 19,
    ".disease_duration": 16.9617,
    ".education": 13,
    ".weight": 92.4,
    ".height": 163,
    ".bmi": 34.8,
    ".randdt": "2013-05-29",
    ".rfstdtc": "2013-05-30"
  },
  {
    "STUDYID": "CDISCPILOT01",
    "DOMAIN": "DM",
    "USUBJID": "01-715-003",
    "SUBJID": "003",
    "SITEID": "715",
    "RFSTDTC": "2013-10-16",
    "RFXSTDTC": "2013-10-16",
    "AGE": 68,
    "AGEU": "YEARS",
    "SEX": "M",
    "RACE": "HISPANIC OR LATINO",
    "ARMCD": "Pbo",
    "ARM": "Placebo",
    "ACTARMCD": "Pbo",
    "ACTARM": "Placebo",
    "COUNTRY": "USA",
    "ETHNIC": "NOT HISPANIC OR LATINO",
    ".arm": "Placebo",
    ".armn": 0,
    ".mmse": 21,
    ".disease_duration": 2,
    ".education": 6,
    ".weight": 62.5,
    ".height": 183.3,
    ".bmi": 18.6,
    ".randdt": "2013-10-16",
    ".rfstdtc": "2013-10-16"
  },
  {
    "STUDYID": "CDISCPILOT01",
    "DOMAIN": "DM",
    "USUBJID": "01-715-004",
    "SUBJID": "004",
    "SITEID": "715",
    "RFSTDTC": "2013-10-21",
    "RFXSTDTC": "2013-10-21",
    "AGE": 76,
    "AGEU": "YEARS",
    "SEX": "F",
    "RACE": "WHITE",
    "ARMCD": "Pbo",
    "ARM": "Placebo",
    "ACTARMCD": "Pbo",
    "ACTARM": "Placebo",
    "COUNTRY": "USA",
    "ETHNIC": "NOT HISPANIC OR LATINO",
    ".arm": "Placebo",
    ".armn": 0,
    ".mmse": 22,
    ".disease_duration": 56.8933,
    ".education": 15,
    ".weight": 86.5,
    ".height": 154.6,
    ".bmi": 36.2,
    ".randdt": "2013-10-21",
    ".rfstdtc": "2013-10-21"
  },
  {
    "STUDYID": "CDISCPILOT01",
    "DOMAIN": "DM",
    "USUBJID": "01-715-005",
    "SUBJID": "005",
    "SITEID": "715",
    "RFSTDTC": "2013-12-08",
    "RFXSTDTC": "2013-12-08",
    "AGE": 66,
    "AGEU": "YEARS",
    "SEX": "F",
    "RACE": "WHITE",
    "ARMCD": "Pbo",
    "ARM": "Placebo",
    "ACTARMCD": "Pbo",
    "ACTARM": "Placebo",
    "COUNTRY": "USA",
    "ETHNIC": "NOT HISPANIC OR LATINO",
    ".arm": "Placebo",
    ".armn": 0,
    ".mmse": 15,
    ".disease_duration": 79.2307,
    ".education": 14,
    ".weight": 66.9,
    ".height": 155.9,
    ".bmi": 27.5,
    ".randdt": "2013-12-08",
    ".rfstdtc": "2013-12-08"
  },
  {
    "STUDYID": "CDISCPILOT01",
    "DOMAIN": "DM",
    "USUBJID": "01-715-006",
    "SUBJID": "006",
    "SITEID": "715",
    "RFSTDTC": "2013-02-08",
    "RFXSTDTC": "2013-02-08",
    "AGE": 79,
    "AGEU": "YEARS",
    "SEX": "F",
    "RACE": "WHITE",
    "ARMCD": "Xan_Lo",
    "ARM": "Xanomeline Low Dose",
    "ACTARMCD": "Xan_Lo",
    "ACTARM": "Xanomeline Low Dose",
    "COUNTRY": "USA",
    "ETHNIC": "NOT HISPANIC OR LATINO",
    ".arm": "Xanomeline Low Dose",
    ".armn": 1,
    ".mmse": 18,
    ".disease_duration": 29.7323,
    ".education": 14,
    ".weight": 36.3,
    ".height": 164.9,
    ".bmi": 13.3,
    ".randdt": "2013-02-08",
    ".rfstdtc": "2013-02-08"
  },
  {
    "STUDYID": "CDISCPILOT01",
    "DOMAIN": "DM",
    "USUBJID": "01-715-007",
    "SUBJID": "007",
    "SITEID": "715",
    "RFSTDTC": "2013-11-07",
    "RFXSTDTC": "2013-11-07",
    "AGE": 62,
    "AGEU": "YEARS",
    "SEX": "F",
    "RACE": "WHITE",
    "ARMCD": "Pbo",
    "ARM": "Placebo",
    "ACTARMCD": "Pbo",
    "ACTARM": "Placebo",
    "COUNTRY": "USA",
    "ETHNIC": "NOT HISPANIC OR LATINO",
    ".arm": "Placebo",
    ".armn": 0,
    ".mmse": 16,
    ".disease_duration": 67.6203,
    ".education": 17,
    ".weight": 34,
    ".height": 152.7,
    ".bmi": 14.6,
    ".randdt": "2013-11-06",
    ".rfstdtc": "2013-11-07"
  },
  {
    "STUDYID": "CDISCPILOT01",
    "DOMAIN": "DM",
    "USUBJID": "01-716-001",
    "SUBJID": "001",
    "SITEID": "716",
    "RFSTDTC": "2013-05-19",
    "RFXSTDTC": "2013-05-19",
    "AGE": 76,
    "AGEU": "YEARS",
    "SEX": "M",
    "RACE": "BLACK OR AFRICAN AMERICAN",
    "ARMCD": "Xan_Lo",
    "ARM": "Xanomeline Low Dose",
    "ACTARMCD": "Xan_Lo",
    "ACTARM": "Xanomeline Low Dose",
    "COUNTRY": "USA",
    "ETHNIC": "NOT HISPANIC OR LATINO",
    ".arm": "Xanomeline Low Dose",
    ".armn": 1,
    ".mmse": 20,
    ".disease_duration": 24.6473,
    ".education": 13,
    ".weight": 59.6,
    ".height": 175.9,
    ".bmi": 19.3,
    ".randdt": "2013-05-19",
    ".rfstdtc": "2013-05-19"
  },
  {
    "STUDYID": "CDISCPILOT01",
    "DOMAIN": "DM",
    "USUBJID": "01-716-002",
    "SUBJID": "002",
    "SITEID": "716",
    "RFSTDTC": "2013-08-27",
    "RFXSTDTC": "2013-08-27",
    "AGE": 62,
    "AGEU": "YEARS",
    "SEX": "F",
    "RACE": "WHITE",
    "ARMCD": "Xan_Lo",
    "ARM": "Xanomeline Low Dose",
    "ACTARMCD": "Xan_Lo",
    "ACTARM": "Xanomeline Low Dose",
    "COUNTRY": "USA",
    "ETHNIC": "NOT HISPANIC OR LATINO",
    ".arm": "Xanomeline Low Dose",
    ".armn": 1,
    ".mmse": 17,
    ".disease_duration": 28.2996,
    ".education": 14,
    ".weight": 87.6,
    ".height": 154.6,
    ".bmi": 36.7,
    ".randdt": "2013-08-26",
    ".rfstdtc": "2013-08-27"
  },
  {
    "STUDYID": "CDISCPILOT01",
    "DOMAIN": "DM",
    "USUBJID": "01-716-003",
    "SUBJID": "003",
    "SITEID": "716",
    "RFSTDTC": "2013-11-13",
    "RFXSTDTC": "2013-11-13",
    "AGE": 76,
    "AGEU": "YEARS",
    "SEX": "F",
    "RACE": "WHITE",
    "ARMCD": "Pbo",
    "ARM": "Placebo",
    "ACTARMCD": "Pbo",
    "ACTARM": "Placebo",
    "COUNTRY": "USA",
    "ETHNIC": "NOT HISPANIC OR LATINO",
    ".arm": "Placebo",
    ".armn": 0,
    ".mmse": 22,
    ".disease_duration": 65.0531,
    ".education": 15,
    ".weight": 60.4,
    ".height": 159.4,
    ".bmi": 23.8,
    ".randdt": "2013-11-12",
    ".rfstdtc": "2013-11-13"
  },
  {
    "STUDYID": "CDISCPILOT01",
    "DOMAIN": "DM",
    "USUBJID": "01-716-004",
    "SUBJID": "004",
    "SITEID": "716",
    "RFSTDTC": "2013-09-08",
    "RFXSTDTC": "2013-09-08",
    "AGE": 70,
    "AGEU": "YEARS",
    "SEX": "F",
    "RACE": "WHITE",
    "ARMCD": "Xan_Hi",
    "ARM": "Xanomeline High Dose",
    "ACTARMCD": "Xan_Hi",
    "ACTARM": "Xanomeline High Dose",
    "COUNTRY": "USA",
    "ETHNIC": "NOT HISPANIC OR LATINO",
    ".arm": "Xanomeline High Dose",
    ".armn": 2,
    ".mmse": 18,
    ".disease_duration": 47.405,
    ".education": 14,
    ".weight": 83.8,
    ".height": 151.2,
    ".bmi": 36.7,
    ".randdt": "2013-09-08",
    ".rfstdtc": "2013-09-08"
  },
  {
    "STUDYID": "CDISCPILOT01",
    "DOMAIN": "DM",
    "USUBJID": "01-716-005",
    "SUBJID": "005",
    "SITEID": "716",
    "RFSTDTC": "2013-08-31",
    "RFXSTDTC": "2013-08-31",
    "AGE": 81,
    "AGEU": "YEARS",
    "SEX": "M",
    "RACE": "WHITE",
    "ARMCD": "Xan_Hi",
    "ARM": "Xanomeline High Dose",
    "ACTARMCD": "Xan_Hi",
    "ACTARM": "Xanomeline High Dose",
    "COUNTRY": "USA",
    "ETHNIC": "NOT HISPANIC OR LATINO",
    ".arm": "Xanomeline High Dose",
    ".armn": 2,
    ".mmse": 23,
    ".disease_duration": 67.1923,
    ".education": 11,
    ".weight": 79.8,
    ".height": 166.7,
    ".bmi": 28.7,
    ".randdt": "2013-08-30",
    ".rfstdtc": "2013-08-31"
  },
  {
    "STUDYID": "CDISCPILOT01",
    "DOMAIN": "DM",
    "USUBJID": "01-716-006",
    "SUBJID": "006",
    "SITEID": "716",
    "RFSTDTC": "2013-11-10",
    "RFXSTDTC": "2013-11-10",
    "AGE": 76,
    "AGEU": "YEARS",
    "SEX": "F",
    "RACE": "WHITE",
    "ARMCD": "Xan_Hi",
    "ARM": "Xanomeline High Dose",
    "ACTARMCD": "Xan_Hi",
    "ACTARM": "Xanomeline High Dose",
    "COUNTRY": "USA",
    "ETHNIC": "NOT HISPANIC OR LATINO",
    ".arm": "Xanomeline High Dose",
    ".armn": 2,
    ".mmse": 24,
    ".disease_duration": 29.6669,
    ".education": 7,
    ".weight": 62,
    ".height": 152.6,
    ".bmi": 26.6,
    ".randdt": "2013-11-09",
    ".rfstdtc": "2013-11-10"
  },
  {
    "STUDYID": "CDISCPILOT01",
    "DOMAIN": "DM",
    "USUBJID": "01-716-007",
    "SUBJID": "007",
    "SITEID": "716",
    "RFSTDTC": "2013-03-18",
    "RFXSTDTC": "2013-03-18",
    "AGE": 84,
    "AGEU": "YEARS",
    "SEX": "F",
    "RACE": "WHITE",
    "ARMCD": "Pbo",
    "ARM": "Placebo",
    "ACTARMCD": "Pbo",
    "ACTARM": "Placebo",
    "COUNTRY": "USA",
    "ETHNIC": "NOT HISPANIC OR LATINO",
    ".arm": "Placebo",
    ".armn": 0,
    ".mmse": 22,
    ".disease_duration": 2,
    ".education": 10,
    ".weight": 68.1,
    ".height": 161,
    ".bmi": 26.3,
    ".randdt": "2013-03-18",
    ".rfstdtc": "2013-03-18"
  },
  {
    "STUDYID": "CDISCPILOT01",
    "DOMAIN": "DM",
    "USUBJID": "01-716-008",
    "SUBJID": "008",
    "SITEID": "716",
    "RFSTDTC": "2013-04-22",
    "RFXSTDTC": "2013-04-22",
    "AGE": 78,
    "AGEU": "YEARS",
    "SEX": "F",
    "RACE": "WHITE",
    "ARMCD": "Xan_Hi",
    "ARM": "Xanomeline High Dose",
    "ACTARMCD": "Xan_Hi",
    "ACTARM": "Xanomeline High Dose",
    "COUNTRY": "USA",
    "ETHNIC": "NOT HISPANIC OR LATINO",
    ".arm": "Xanomeline High Dose",
    ".armn": 2,
    ".mmse": 13,
    ".disease_duration": 3.1968,
    ".education": 7,
    ".weight": 45,
    ".height": 166.8,
    ".bmi": 16.2,
    ".randdt": "2013-04-21",
    ".rfstdtc": "2013-04-22"
  },
  {
    "STUDYID": "CDISCPILOT01",
    "DOMAIN": "DM",
    "USUBJID": "01-716-009",
    "SUBJID": "009",
    "SITEID": "716",
    "RFSTDTC": "2013-09-23",
    "RFXSTDTC": "2013-09-23",
    "AGE": 78,
    "AGEU": "YEARS",
    "SEX": "M",
    "RACE": "WHITE",
    "ARMCD": "Xan_Hi",
    "ARM": "Xanomeline High Dose",
    "ACTARMCD": "Xan_Hi",
    "ACTARM": "Xanomeline High Dose",
    "COUNTRY": "USA",
    "ETHNIC": "NOT HISPANIC OR LATINO",
    ".arm": "Xanomeline High Dose",
    ".armn": 2,
    ".mmse": 19,
    ".disease_duration": 89.9941,
    ".education": 14,
    ".weight": 86.8,
    ".height": 182.2,
    ".bmi": 26.1,
    ".randdt": "2013-09-22",
    ".rfstdtc": "2013-09-23"
  },
  {
    "STUDYID": "CDISCPILOT01",
    "DOMAIN": "DM",
    "USUBJID": "01-716-010",
    "SUBJID": "010",
    "SITEID": "716",
    "RFSTDTC": "2013-12-28",
    "RFXSTDTC": "2013-12-28",
    "AGE": 87,
    "AGEU": "YEARS",
    "SEX": "F",
    "RACE": "BLACK OR AFRICAN AMERICAN",
    "ARMCD": "Xan_Hi",
    "ARM": "Xanomeline High Dose",
    "ACTARMCD": "Xan_Hi",
    "ACTARM": "Xanomeline High Dose",
    "COUNTRY": "USA",
    "ETHNIC": "NOT HISPANIC OR LATINO",
    ".arm": "Xanomeline High Dose",
    ".armn": 2,
    ".mmse": 16,
    ".disease_duration": 28.3193,
    ".education": 19,
    ".weight": 58.1,
    ".height": 162,
    ".bmi": 22.1,
    ".randdt": "2013-12-27",
    ".rfstdtc": "2013-12-28"
  },
  {
    "STUDYID": "CDISCPILOT01",
    "DOMAIN": "DM",
    "USUBJID": "01-716-011",
    "SUBJID": "011",
    "SITEID": "716",
    "RFSTDTC": "2013-12-30",
    "RFXSTDTC": "2013-12-30",
    "AGE": 76,
    "AGEU": "YEARS",
    "SEX": "M",
    "RACE": "WHITE",
    "ARMCD": "Xan_Hi",
    "ARM": "Xanomeline High Dose",
    "ACTARMCD": "Xan_Hi",
    "ACTARM": "Xanomeline High Dose",
    "COUNTRY": "USA",
    "ETHNIC": "NOT HISPANIC OR LATINO",
    ".arm": "Xanomeline High Dose",
    ".armn": 2,
    ".mmse": 13,
    ".disease_duration": 44.5883,
    ".education": 12,
    ".weight": 60.8,
    ".height": 170.4,
    ".bmi": 20.9,
    ".randdt": "2013-12-29",
    ".rfstdtc": "2013-12-30"
  },
  {
    "STUDYID": "CDISCPILOT01",
    "DOMAIN": "DM",
    "USUBJID": "01-716-012",
    "SUBJID": "012",
    "SITEID": "716",
    "RFSTDTC": "2013-11-21",
    "RFXSTDTC": "2013-11-21",
    "AGE": 64,
    "AGEU": "YEARS",
    "SEX": "F",
    "RACE": "OTHER",
    "ARMCD": "Pbo",
    "ARM": "Placebo",
    "ACTARMCD": "Pbo",
    "ACTARM": "Placebo",
    "COUNTRY": "USA",
    "ETHNIC": "NOT HISPANIC OR LATINO",
    ".arm": "Placebo",
    ".armn": 0,
    ".mmse": 15,
    ".disease_duration": 50.5544,
    ".education": 12,
    ".weight": 79.4,
    ".height": 160.6,
    ".bmi": 30.8,
    ".randdt": "2013-11-20",
    ".rfstdtc": "2013-11-21"
  },
  {
    "STUDYID": "CDISCPILOT01",
    "DOMAIN": "DM",
    "USUBJID": "01-716-013",
    "SUBJID": "013",
    "SITEID": "716",
    "RFSTDTC": "2013-11-19",
    "RFXSTDTC": "2013-11-19",
    "AGE": 73,
    "AGEU": "YEARS",
    "SEX": "F",
    "RACE": "WHITE",
    "ARMCD": "Xan_Lo",
    "ARM": "Xanomeline Low Dose",
    "ACTARMCD": "Xan_Lo",
    "ACTARM": "Xanomeline Low Dose",
    "COUNTRY": "USA",
    "ETHNIC": "NOT HISPANIC OR LATINO",
    ".arm": "Xanomeline Low Dose",
    ".armn": 1,
    ".mmse": 17,
    ".disease_duration": 44.2636,
    ".education": 6,
    ".weight": 91.8,
    ".height": 162.5,
    ".bmi": 34.8,
    ".randdt": "2013-11-19",
    ".rfstdtc": "2013-11-19"
  },
  {
    "STUDYID": "CDISCPILOT01",
    "DOMAIN": "DM",
    "USUBJID": "01-716-014",
    "SUBJID": "014",
    "SITEID": "716",
    "RFSTDTC": "2013-12-26",
    "RFXSTDTC": "2013-12-26",
    "AGE": 69,
    "AGEU": "YEARS",
    "SEX": "F",
    "RACE": "WHITE",
    "ARMCD": "Xan_Hi",
    "ARM": "Xanomeline High Dose",
    "ACTARMCD": "Xan_Hi",
    "ACTARM": "Xanomeline High Dose",
    "COUNTRY": "USA",
    "ETHNIC": "NOT HISPANIC OR LATINO",
    ".arm": "Xanomeline High Dose",
    ".armn": 2,
    ".mmse": 16,
    ".disease_duration": 10.1932,
    ".education": 13,
    ".weight": 78.5,
    ".height": 159.5,
    ".bmi": 30.9,
    ".randdt": "2013-12-25",
    ".rfstdtc": "2013-12-26"
  },
  {
    "STUDYID": "CDISCPILOT01",
    "DOMAIN": "DM",
    "USUBJID": "01-716-015",
    "SUBJID": "015",
    "SITEID": "716",
    "RFSTDTC": "2013-02-12",
    "RFXSTDTC": "2013-02-12",
    "AGE": 77,
    "AGEU": "YEARS",
    "SEX": "F",
    "RACE": "WHITE",
    "ARMCD": "Xan_Hi",
    "ARM": "Xanomeline High Dose",
    "ACTARMCD": "Xan_Hi",
    "ACTARM": "Xanomeline High Dose",
    "COUNTRY": "USA",
    "ETHNIC": "NOT HISPANIC OR LATINO",
    ".arm": "Xanomeline High Dose",
    ".armn": 2,
    ".mmse": 24,
    ".disease_duration": 11.932,
    ".education": 14,
    ".weight": 97.2,
    ".height": 151.8,
    ".bmi": 42.2,
    ".randdt": "2013-02-11",
    ".rfstdtc": "2013-02-12"
  },
  {
    "STUDYID": "CDISCPILOT01",
    "DOMAIN": "DM",
    "USUBJID": "01-716-016",
    "SUBJID": "016",
    "SITEID": "716",
    "RFSTDTC": "2013-07-24",
    "RFXSTDTC": "2013-07-24",
    "AGE": 74,
    "AGEU": "YEARS",
    "SEX": "F",
    "RACE": "WHITE",
    "ARMCD": "Xan_Hi",
    "ARM": "Xanomeline High Dose",
    "ACTARMCD": "Xan_Hi",
    "ACTARM": "Xanomeline High Dose",
    "COUNTRY": "USA",
    "ETHNIC": "NOT HISPANIC OR LATINO",
    ".arm": "Xanomeline High Dose",
    ".armn": 2,
    ".mmse": 14,
    ".disease_duration": 73.173,
    ".education": 11,
    ".weight": 56.8,
    ".height": 162.5,
    ".bmi": 21.5,
    ".randdt": "2013-07-24",
    ".rfstdtc": "2013-07-24"
  },
  {
    "STUDYID": "CDISCPILOT01",
    "DOMAIN": "DM",
    "USUBJID": "01-716-017",
    "SUBJID": "017",
    "SITEID": "716",
    "RFSTDTC": "2013-02-11",
    "RFXSTDTC": "2013-02-11",
    "AGE": 61,
    "AGEU": "YEARS",
    "SEX": "M",
    "RACE": "WHITE",
    "ARMCD": "Xan_Lo",
    "ARM": "Xanomeline Low Dose",
    "ACTARMCD": "Xan_Lo",
    "ACTARM": "Xanomeline Low Dose",
    "COUNTRY": "USA",
    "ETHNIC": "NOT HISPANIC OR LATINO",
    ".arm": "Xanomeline Low Dose",
    ".armn": 1,
    ".mmse": 13,
    ".disease_duration": 61.8699,
    ".education": 15,
    ".weight": 69.8,
    ".height": 159.7,
    ".bmi": 27.4,
    ".randdt": "2013-02-10",
    ".rfstdtc": "2013-02-11"
  },
  {
    "STUDYID": "CDISCPILOT01",
    "DOMAIN": "DM",
    "USUBJID": "01-716-018",
    "SUBJID": "018",
    "SITEID": "716",
    "RFSTDTC": "2013-11-26",
    "RFXSTDTC": "2013-11-26",
    "AGE": 66,
    "AGEU": "YEARS",
    "SEX": "M",
    "RACE": "WHITE",
    "ARMCD": "Xan_Lo",
    "ARM": "Xanomeline Low Dose",
    "ACTARMCD": "Xan_Lo",
    "ACTARM": "Xanomeline Low Dose",
    "COUNTRY": "USA",
    "ETHNIC": "NOT HISPANIC OR LATINO",
    ".arm": "Xanomeline Low Dose",
    ".armn": 1,
    ".mmse": 24,
    ".disease_duration": 89.6259,
    ".education": 15,
    ".weight": 62.8,
    ".height": 169.4,
    ".bmi": 21.9,
    ".randdt": "2013-11-26",
    ".rfstdtc": "2013-11-26"
  },
  {
    "STUDYID": "CDISCPILOT01",
    "DOMAIN": "DM",
    "USUBJID": "01-716-019",
    "SUBJID": "019",
    "SITEID": "716",
    "RFSTDTC": "2013-07-14",
    "RFXSTDTC": "2013-07-14",
    "AGE": 75,
    "AGEU": "YEARS",
    "SEX": "M",
    "RACE": "WHITE",
    "ARMCD": "Pbo",
    "ARM": "Placebo",
    "ACTARMCD": "Pbo",
    "ACTARM": "Placebo",
    "COUNTRY": "USA",
    "ETHNIC": "NOT HISPANIC OR LATINO",
    ".arm": "Placebo",
    ".armn": 0,
    ".mmse": 20,
    ".disease_duration": 60.2499,
    ".education": 15,
    ".weight": 64.1,
    ".height": 163.7,
    ".bmi": 23.9,
    ".randdt": "2013-07-13",
    ".rfstdtc": "2013-07-14"
  },
  {
    "STUDYID": "CDISCPILOT01",
    "DOMAIN": "DM",
    "USUBJID": "01-716-020",
    "SUBJID": "020",
    "SITEID": "716",
    "RFSTDTC": "2013-09-08",
    "RFXSTDTC": "2013-09-08",
    "AGE": 80,
    "AGEU": "YEARS",
    "SEX": "F",
    "RACE": "WHITE",
    "ARMCD": "Pbo",
    "ARM": "Placebo",
    "ACTARMCD": "Pbo",
    "ACTARM": "Placebo",
    "COUNTRY": "USA",
    "ETHNIC": "NOT HISPANIC OR LATINO",
    ".arm": "Placebo",
    ".armn": 0,
    ".mmse": 22,
    ".disease_duration": 35.2019,
    ".education": 8,
    ".weight": 34,
    ".height": 158.5,
    ".bmi": 13.5,
    ".randdt": "2013-09-07",
    ".rfstdtc": "2013-09-08"
  },
  {
    "STUDYID": "CDISCPILOT01",
    "DOMAIN": "DM",
    "USUBJID": "01-716-021",
    "SUBJID": "021",
    "SITEID": "716",
    "RFSTDTC": "2013-11-08",
    "RFXSTDTC": "2013-11-08",
    "AGE": 70,
    "AGEU": "YEARS",
    "SEX": "F",
    "RACE": "WHITE",
    "ARMCD": "Pbo",
    "ARM": "Placebo",
    "ACTARMCD": "Pbo",
    "ACTARM": "Placebo",
    "COUNTRY": "USA",
    "ETHNIC": "NOT HISPANIC OR LATINO",
    ".arm": "Placebo",
    ".armn": 0,
    ".mmse": 10,
    ".disease_duration": 21.7772,
    ".education": 9,
    ".weight": 72.3,
    ".height": 159.3,
    ".bmi": 28.5,
    ".randdt": "2013-11-08",
    ".rfstdtc": "2013-11-08"
  },
  {
    "STUDYID": "CDISCPILOT01",
    "DOMAIN": "DM",
    "USUBJID": "01-716-022",
    "SUBJID": "022",
    "SITEID": "716",
    "RFSTDTC": "2013-08-08",
    "RFXSTDTC": "2013-08-08",
    "AGE": 83,
    "AGEU": "YEARS",
    "SEX": "F",
    "RACE": "WHITE",
    "ARMCD": "Xan_Lo",
    "ARM": "Xanomeline Low Dose",
    "ACTARMCD": "Xan_Lo",
    "ACTARM": "Xanomeline Low Dose",
    "COUNTRY": "USA",
    "ETHNIC": "NOT HISPANIC OR LATINO",
    ".arm": "Xanomeline Low Dose",
    ".armn": 1,
    ".mmse": 21,
    ".disease_duration": 2,
    ".education": 4,
    ".weight": 73.2,
    ".height": 166.7,
    ".bmi": 26.3,
    ".randdt": "2013-08-08",
    ".rfstdtc": "2013-08-08"
  },
  {
    "STUDYID": "CDISCPILOT01",
    "DOMAIN": "DM",
    "USUBJID": "01-716-023",
    "SUBJID": "023",
    "SITEID": "716",
    "RFSTDTC": "2013-07-18",
    "RFXSTDTC": "2013-07-18",
    "AGE": 68,
    "AGEU": "YEARS",
    "SEX": "M",
    "RACE": "WHITE",
    "ARMCD": "Pbo",
    "ARM": "Placebo",
    "ACTARMCD": "Pbo",
    "ACTARM": "Placebo",
    "COUNTRY": "USA",
    "ETHNIC": "HISPANIC OR LATINO",
    ".arm": "Placebo",
    ".armn": 0,
    ".mmse": 24,
    ".disease_duration": 38.1305,
    ".education": 11,
    ".weight": 71.2,
    ".height": 164.6,
    ".bmi": 26.3,
    ".randdt": "2013-07-18",
    ".rfstdtc": "2013-07-18"
  },
  {
    "STUDYID": "CDISCPILOT01",
    "DOMAIN": "DM",
    "USUBJID": "01-716-024",
    "SUBJID": "024",
    "SITEID": "716",
    "RFSTDTC": "2013-01-10",
    "RFXSTDTC": "2013-01-10",
    "AGE": 70,
    "AGEU": "YEARS",
    "SEX": "M",
    "RACE": "WHITE",
    "ARMCD": "Xan_Lo",
    "ARM": "Xanomeline Low Dose",
    "ACTARMCD": "Xan_Lo",
    "ACTARM": "Xanomeline Low Dose",
    "COUNTRY": "USA",
    "ETHNIC": "NOT HISPANIC OR LATINO",
    ".arm": "Xanomeline Low Dose",
    ".armn": 1,
    ".mmse": 23,
    ".disease_duration": 73.1417,
    ".education": 14,
    ".weight": 79.7,
    ".height": 159.8,
    ".bmi": 31.2,
    ".randdt": "2013-01-09",
    ".rfstdtc": "2013-01-10"
  },
  {
    "STUDYID": "CDISCPILOT01",
    "DOMAIN": "DM",
    "USUBJID": "01-716-025",
    "SUBJID": "025",
    "SITEID": "716",
    "RFSTDTC": "2013-02-26",
    "RFXSTDTC": "2013-02-26",
    "AGE": 77,
    "AGEU": "YEARS",
    "SEX": "F",
    "RACE": "WHITE",
    "ARMCD": "Xan_Hi",
    "ARM": "Xanomeline High Dose",
    "ACTARMCD": "Xan_Hi",
    "ACTARM": "Xanomeline High Dose",
    "COUNTRY": "USA",
    "ETHNIC": "NOT HISPANIC OR LATINO",
    ".arm": "Xanomeline High Dose",
    ".armn": 2,
    ".mmse": 15,
    ".disease_duration": 16.1128,
    ".education": 17,
    ".weight": 40.4,
    ".height": 166.4,
    ".bmi": 14.6,
    ".randdt": "2013-02-26",
    ".rfstdtc": "2013-02-26"
  },
  {
    "STUDYID": "CDISCPILOT01",
    "DOMAIN": "DM",
    "USUBJID": "01-716-026",
    "SUBJID": "026",
    "SITEID": "716",
    "RFSTDTC": "2013-08-02",
    "RFXSTDTC": "2013-08-02",
    "AGE": 69,
    "AGEU": "YEARS",
    "SEX": "M",
    "RACE": "WHITE",
    "ARMCD": "Xan_Lo",
    "ARM": "Xanomeline Low Dose",
    "ACTARMCD": "Xan_Lo",
    "ACTARM": "Xanomeline Low Dose",
    "COUNTRY": "USA",
    "ETHNIC": "NOT HISPANIC OR LATINO",
    ".arm": "Xanomeline Low Dose",
    ".armn": 1,
    ".mmse": 21,
    ".disease_duration": 30.6219,
    ".education": 19,
    ".weight": 46.1,
    ".height": 190.4,
    ".bmi": 12.7,
    ".randdt": "2013-08-01",
    ".rfstdtc": "2013-08-02"
  },
  {
    "STUDYID": "CDISCPILOT01",
    "DOMAIN": "DM",
    "USUBJID": "01-716-027",
    "SUBJID": "027",
    "SITEID": "716",
    "RFSTDTC": "2013-03-17",
    "RFXSTDTC": "2013-03-17",
    "AGE": 72,
    "AGEU": "YEARS",
    "SEX": "F",
    "RACE": "WHITE",
    "ARMCD": "Xan_Hi",
    "ARM": "Xanomeline High Dose",
    "ACTARMCD": "Xan_Hi",
    "ACTARM": "Xanomeline High Dose",
    "COUNTRY": "USA",
    "ETHNIC": "NOT HISPANIC OR LATINO",
    ".arm": "Xanomeline High Dose",
    ".armn": 2,
    ".mmse": 18,
    ".disease_duration": 37.9943,
    ".education": 15,
    ".weight": 72.2,
    ".height": 152.9,
    ".bmi": 30.9,
    ".randdt": "2013-03-17",
    ".rfstdtc": "2013-03-17"
  },
  {
    "STUDYID": "CDISCPILOT01",
    "DOMAIN": "DM",
    "USUBJID": "01-717-001",
    "SUBJID": "001",
    "SITEID": "717",
    "RFSTDTC": "2013-11-02",
    "RFXSTDTC": "2013-11-02",
    "AGE": 89,
    "AGEU": "YEARS",
    "SEX": "M",
    "RACE": "WHITE",
    "ARMCD": "Xan_Hi",
    "ARM": "Xanomeline High Dose",
    "ACTARMCD": "Xan_Hi",
    "ACTARM": "Xanomeline High Dose",
    "COUNTRY": "USA",
    "ETHNIC": "NOT HISPANIC OR LATINO",
    ".arm": "Xanomeline High Dose",
    ".armn": 2,
    ".mmse": 22,
    ".disease_duration": 15.5175,
    ".education": 13,
    ".weight": 70.7,
    ".height": 163.5,
    ".bmi": 26.4,
    ".randdt": "2013-11-02",
    ".rfstdtc": "2013-11-02"
  },
  {
    "STUDYID": "CDISCPILOT01",
    "DOMAIN": "DM",
    "USUBJID": "01-717-002",
    "SUBJID": "002",
    "SITEID": "717",
    "RFSTDTC": "2013-04-09",
    "RFXSTDTC": "2013-04-09",
    "AGE": 74,
    "AGEU": "YEARS",
    "SEX": "M",
    "RACE": "WHITE",
    "ARMCD": "Xan_Hi",
    "ARM": "Xanomeline High Dose",
    "ACTARMCD": "Xan_Hi",
    "ACTARM": "Xanomeline High Dose",
    "COUNTRY": "USA",
    "ETHNIC": "NOT HISPANIC OR LATINO",
    ".arm": "Xanomeline High Dose",
    ".armn": 2,
    ".mmse": 21,
    ".disease_duration": 71.2655,
    ".education": 9,
    ".weight": 72.5,
    ".height": 161.2,
    ".bmi": 27.9,
    ".randdt": "2013-04-09",
    ".rfstdtc": "2013-04-09"
  },
  {
    "STUDYID": "CDISCPILOT01",
    "DOMAIN": "DM",
    "USUBJID": "01-717-003",
    "SUBJID": "003",
    "SITEID": "717",
    "RFSTDTC": "2013-01-17",
    "RFXSTDTC": "2013-01-17",
    "AGE": 66,
    "AGEU": "YEARS",
    "SEX": "F",
    "RACE": "WHITE",
    "ARMCD": "Pbo",
    "ARM": "Placebo",
    "ACTARMCD": "Pbo",
    "ACTARM": "Placebo",
    "COUNTRY": "USA",
    "ETHNIC": "NOT HISPANIC OR LATINO",
    ".arm": "Placebo",
    ".armn": 0,
    ".mmse": 24,
    ".disease_duration": 40.4302,
    ".education": 9,
    ".weight": 65.7,
    ".height": 155,
    ".bmi": 27.3,
    ".randdt": "2013-01-16",
    ".rfstdtc": "2013-01-17"
  },
  {
    "STUDYID": "CDISCPILOT01",
    "DOMAIN": "DM",
    "USUBJID": "01-718-001",
    "SUBJID": "001",
    "SITEID": "718",
    "RFSTDTC": "2013-06-05",
    "RFXSTDTC": "2013-06-05",
    "AGE": 82,
    "AGEU": "YEARS",
    "SEX": "M",
    "RACE": "WHITE",
    "ARMCD": "Xan_Hi",
    "ARM": "Xanomeline High Dose",
    "ACTARMCD": "Xan_Hi",
    "ACTARM": "Xanomeline High Dose",
    "COUNTRY": "USA",
    "ETHNIC": "NOT HISPANIC OR LATINO",
    ".arm": "Xanomeline High Dose",
    ".armn": 2,
    ".mmse": 18,
    ".disease_duration": 55.0934,
    ".education": 14,
    ".weight": 80.9,
    ".height": 167.1,
    ".bmi": 29,
    ".randdt": "2013-06-04",
    ".rfstdtc": "2013-06-05"
  },
  {
    "STUDYID": "CDISCPILOT01",
    "DOMAIN": "DM",
    "USUBJID": "01-718-002",
    "SUBJID": "002",
    "SITEID": "718",
    "RFSTDTC": "2013-05-08",
    "RFXSTDTC": "2013-05-08",
    "AGE": 73,
    "AGEU": "YEARS",
    "SEX": "F",
    "RACE": "WHITE",
    "ARMCD": "Pbo",
    "ARM": "Placebo",
    "ACTARMCD": "Pbo",
    "ACTARM": "Placebo",
    "COUNTRY": "USA",
    "ETHNIC": "NOT HISPANIC OR LATINO",
    ".arm": "Placebo",
    ".armn": 0,
    ".mmse": 19,
    ".disease_duration": 25.2757,
    ".education": 13,
    ".weight": 82.5,
    ".height": 150.6,
    ".bmi": 36.4,
    ".randdt": "2013-05-08",
    ".rfstdtc": "2013-05-08"
  },
  {
    "STUDYID": "CDISCPILOT01",
    "DOMAIN": "DM",
    "USUBJID": "01-718-003",
    "SUBJID": "003",
    "SITEID": "718",
    "RFSTDTC": "2013-05-15",
    "RFXSTDTC": "2013-05-15",
    "AGE": 85,
    "AGEU": "YEARS",
    "SEX": "M",
    "RACE": "BLACK OR AFRICAN AMERICAN",
    "ARMCD": "Xan_Lo",
    "ARM": "Xanomeline Low Dose",
    "ACTARMCD": "Xan_Lo",
    "ACTARM": "Xanomeline Low Dose",
    "COUNTRY": "USA",
    "ETHNIC": "NOT HISPANIC OR LATINO",
    ".arm": "Xanomeline Low Dose",
    ".armn": 1,
    ".mmse": 16,
    ".disease_duration": 93.45,
    ".education": 13,
    ".weight": 60.9,
    ".height": 168.7,
    ".bmi": 21.4,
    ".randdt": "2013-05-14",
    ".rfstdtc": "2013-05-15"
  },
  {
    "STUDYID": "CDISCPILOT01",
    "DOMAIN": "DM",
    "USUBJID": "01-718-004",
    "SUBJID": "004",
    "SITEID": "718",
    "RFSTDTC": "2013-12-27",
    "RFXSTDTC": "2013-12-27",
    "AGE": 79,
    "AGEU": "YEARS",
    "SEX": "F",
    "RACE": "WHITE",
    "ARMCD": "Xan_Hi",
    "ARM": "Xanomeline High Dose",
    "ACTARMCD": "Xan_Hi",
    "ACTARM": "Xanomeline High Dose",
    "COUNTRY": "USA",
    "ETHNIC": "NOT HISPANIC OR LATINO",
    ".arm": "Xanomeline High Dose",
    ".armn": 2,
    ".mmse": 20,
    ".disease_duration": 31.7187,
    ".education": 17,
    ".weight": 83.7,
    ".height": 147.6,
    ".bmi": 38.4,
    ".randdt": "2013-12-27",
    ".rfstdtc": "2013-12-27"
  },
  {
    "STUDYID": "CDISCPILOT01",
    "DOMAIN": "DM",
    "USUBJID": "01-718-005",
    "SUBJID": "005",
    "SITEID": "718",
    "RFSTDTC": "2013-06-09",
    "RFXSTDTC": "2013-06-09",
    "AGE": 82,
    "AGEU": "YEARS",
    "SEX": "F",
    "RACE": "WHITE",
    "ARMCD": "Xan_Lo",
    "ARM": "Xanomeline Low Dose",
    "ACTARMCD": "Xan_Lo",
    "ACTARM": "Xanomeline Low Dose",
    "COUNTRY": "USA",
    "ETHNIC": "NOT HISPANIC OR LATINO",
    ".arm": "Xanomeline Low Dose",
    ".armn": 1,
    ".mmse": 19,
    ".disease_duration": 63.4768,
    ".education": 14,
    ".weight": 65.4,
    ".height": 162,
    ".bmi": 24.9,
    ".randdt": "2013-06-08",
    ".rfstdtc": "2013-06-09"
  },
  {
    "STUDYID": "CDISCPILOT01",
    "DOMAIN": "DM",
    "USUBJID": "01-718-006",
    "SUBJID": "006",
    "SITEID": "718",
    "RFSTDTC": "2013-05-31",
    "RFXSTDTC": "2013-05-31",
    "AGE": 72,
    "AGEU": "YEARS",
    "SEX": "F",
    "RACE": "WHITE",
    "ARMCD": "Xan_Hi",
    "ARM": "Xanomeline High Dose",
    "ACTARMCD": "Xan_Hi",
    "ACTARM": "Xanomeline High Dose",
    "COUNTRY": "USA",
    "ETHNIC": "NOT HISPANIC OR LATINO",
    ".arm": "Xanomeline High Dose",
    ".armn": 2,
    ".mmse": 18,
    ".disease_duration": 2,
    ".education": 16,
    ".weight": 65,
    ".height": 165.6,
    ".bmi": 23.7,
    ".randdt": "2013-05-31",
    ".rfstdtc": "2013-05-31"
  },
  {
    "STUDYID": "CDISCPILOT01",
    "DOMAIN": "DM",
    "USUBJID": "01-718-007",
    "SUBJID": "007",
    "SITEID": "718",
    "RFSTDTC": "2013-09-22",
    "RFXSTDTC": "2013-09-22",
    "AGE": 63,
    "AGEU": "YEARS",
    "SEX": "M",
    "RACE": "WHITE",
    "ARMCD": "Xan_Hi",
    "ARM": "Xanomeline High Dose",
    "ACTARMCD": "Xan_Hi",
    "ACTARM": "Xanomeline High Dose",
    "COUNTRY": "USA",
    "ETHNIC": "NOT HISPANIC OR LATINO",
    ".arm": "Xanomeline High Dose",
    ".armn": 2,
    ".mmse": 20,
    ".disease_duration": 62.9374,
    ".education": 11,
    ".weight": 77.1,
    ".height": 179.9,
    ".bmi": 23.8,
    ".randdt": "2013-09-22",
    ".rfstdtc": "2013-09-22"
  },
  {
    "STUDYID": "CDISCPILOT01",
    "DOMAIN": "DM",
    "USUBJID": "01-718-008",
    "SUBJID": "008",
    "SITEID": "718",
    "RFSTDTC": "2013-09-16",
    "RFXSTDTC": "2013-09-16",
    "AGE": 80,
    "AGEU": "YEARS",
    "SEX": "F",
    "RACE": "WHITE",
    "ARMCD": "Xan_Lo",
    "ARM": "Xanomeline Low Dose",
    "ACTARMCD": "Xan_Lo",
    "ACTARM": "Xanomeline Low Dose",
    "COUNTRY": "USA",
    "ETHNIC": "NOT HISPANIC OR LATINO",
    ".arm": "Xanomeline Low Dose",
    ".armn": 1,
    ".mmse": 24,
    ".disease_duration": 29.9757,
    ".education": 10,
    ".weight": 66.5,
    ".height": 167.3,
    ".bmi": 23.8,
    ".randdt": "2013-09-16",
    ".rfstdtc": "2013-09-16"
  },
  {
    "STUDYID": "CDISCPILOT01",
    "DOMAIN": "DM",
    "USUBJID": "01-718-009",
    "SUBJID": "009",
    "SITEID": "718",
    "RFSTDTC": "2013-03-13",
    "RFXSTDTC": "2013-03-13",
    "AGE": 69,
    "AGEU": "YEARS",
    "SEX": "M",
    "RACE": "WHITE",
    "ARMCD": "Pbo",
    "ARM": "Placebo",
    "ACTARMCD": "Pbo",
    "ACTARM": "Placebo",
    "COUNTRY": "USA",
    "ETHNIC": "NOT HISPANIC OR LATINO",
    ".arm": "Placebo",
    ".armn": 0,
    ".mmse": 20,
    ".disease_duration": 80.8624,
    ".education": 16,
    ".weight": 56.6,
    ".height": 175.9,
    ".bmi": 18.3,
    ".randdt": "2013-03-12",
    ".rfstdtc": "2013-03-13"
  },
  {
    "STUDYID": "CDISCPILOT01",
    "DOMAIN": "DM",
    "USUBJID": "01-718-010",
    "SUBJID": "010",
    "SITEID": "718",
    "RFSTDTC": "2013-03-11",
    "RFXSTDTC": "2013-03-11",
    "AGE": 85,
    "AGEU": "YEARS",
    "SEX": "M",
    "RACE": "WHITE",
    "ARMCD": "Pbo",
    "ARM": "Placebo",
    "ACTARMCD": "Pbo",
    "ACTARM": "Placebo",
    "COUNTRY": "USA",
    "ETHNIC": "NOT HISPANIC OR LATINO",
    ".arm": "Placebo",
    ".armn": 0,
    ".mmse": 22,
    ".disease_duration": 41.0647,
    ".education": 12,
    ".weight": 64.6,
    ".height": 172.8,
    ".bmi": 21.6,
    ".randdt": "2013-03-11",
    ".rfstdtc": "2013-03-11"
  },
  {
    "STUDYID": "CDISCPILOT01",
    "DOMAIN": "DM",
    "USUBJID": "01-718-011",
    "SUBJID": "011",
    "SITEID": "718",
    "RFSTDTC": "2013-11-21",
    "RFXSTDTC": "2013-11-21",
    "AGE": 72,
    "AGEU": "YEARS",
    "SEX": "F",
    "RACE": "WHITE",
    "ARMCD": "Xan_Hi",
    "ARM": "Xanomeline High Dose",
    "ACTARMCD": "Xan_Hi",
    "ACTARM": "Xanomeline High Dose",
    "COUNTRY": "USA",
    "ETHNIC": "NOT HISPANIC OR LATINO",
    ".arm": "Xanomeline High Dose",
    ".armn": 2,
    ".mmse": 23,
    ".disease_duration": 28.7776,
    ".education": 10,
    ".weight": 83.6,
    ".height": 154,
    ".bmi": 35.3,
    ".randdt": "2013-11-20",
    ".rfstdtc": "2013-11-21"
  },
  {
    "STUDYID": "CDISCPILOT01",
    "DOMAIN": "DM",
    "USUBJID": "01-718-012",
    "SUBJID": "012",
    "SITEID": "718",
    "RFSTDTC": "2013-11-26",
    "RFXSTDTC": "2013-11-26",
    "AGE": 63,
    "AGEU": "YEARS",
    "SEX": "F",
    "RACE": "WHITE",
    "ARMCD": "Pbo",
    "ARM": "Placebo",
    "ACTARMCD": "Pbo",
    "ACTARM": "Placebo",
    "COUNTRY": "USA",
    "ETHNIC": "NOT HISPANIC OR LATINO",
    ".arm": "Placebo",
    ".armn": 0,
    ".mmse": 14,
    ".disease_duration": 50.3741,
    ".education": 20,
    ".weight": 53.7,
    ".height": 163.2,
    ".bmi": 20.2,
    ".randdt": "2013-11-26",
    ".rfstdtc": "2013-11-26"
  },
  {
    "STUDYID": "CDISCPILOT01",
    "DOMAIN": "DM",
    "USUBJID": "01-718-013",
    "SUBJID": "013",
    "SITEID": "718",
    "RFSTDTC": "2013-05-24",
    "RFXSTDTC": "2013-05-24",
    "AGE": 74,
    "AGEU": "YEARS",
    "SEX": "M",
    "RACE": "WHITE",
    "ARMCD": "Xan_Lo",
    "ARM": "Xanomeline Low Dose",
    "ACTARMCD": "Xan_Lo",
    "ACTARM": "Xanomeline Low Dose",
    "COUNTRY": "USA",
    "ETHNIC": "NOT HISPANIC OR LATINO",
    ".arm": "Xanomeline Low Dose",
    ".armn": 1,
    ".mmse": 23,
    ".disease_duration": 65.2161,
    ".education": 12,
    ".weight": 56.2,
    ".height": 165.9,
    ".bmi": 20.4,
    ".randdt": "2013-05-23",
    ".rfstdtc": "2013-05-24"
  },
  {
    "STUDYID": "CDISCPILOT01",
    "DOMAIN": "DM",
    "USUBJID": "01-718-014",
    "SUBJID": "014",
    "SITEID": "718",
    "RFSTDTC": "2013-07-05",
    "RFXSTDTC": "2013-07-05",
    "AGE": 75,
    "AGEU": "YEARS",
    "SEX": "M",
    "RACE": "WHITE",
    "ARMCD": "Xan_Lo",
    "ARM": "Xanomeline Low Dose",
    "ACTARMCD": "Xan_Lo",
    "ACTARM": "Xanomeline Low Dose",
    "COUNTRY": "USA",
    "ETHNIC": "NOT HISPANIC OR LATINO",
    ".arm": "Xanomeline Low Dose",
    ".armn": 1,
    ".mmse": 19,
    ".disease_duration": 47.9569,
    ".education": 18,
    ".weight": 80.2,
    ".height": 176.6,
    ".bmi": 25.7,
    ".randdt": "2013-07-05",
    ".rfstdtc": "2013-07-05"
  },
  {
    "STUDYID": "CDISCPILOT01",
    "DOMAIN": "DM",
    "USUBJID": "01-718-015",
    "SUBJID": "015",
    "SITEID": "718",
    "RFSTDTC": "2013-03-12",
    "RFXSTDTC": "2013-03-12",
    "AGE": 71,
    "AGEU": "YEARS",
    "SEX": "M",
    "RACE": "HISPANIC OR LATINO",
    "ARMCD": "Xan_Lo",
    "ARM": "Xanomeline Low Dose",
    "ACTARMCD": "Xan_Lo",
    "ACTARM": "Xanomeline Low Dose",
    "COUNTRY": "USA",
    "ETHNIC": "NOT HISPANIC OR LATINO",
    ".arm": "Xanomeline Low Dose",
    ".armn": 1,
    ".mmse": 16,
    ".disease_duration": 68.8694,
    ".education": 15,
    ".weight": 72.9,
    ".height": 171.4,
    ".bmi": 24.8,
    ".randdt": "2013-03-12",
    ".rfstdtc": "2013-03-12"
  },
  {
    "STUDYID": "CDISCPILOT01",
    "DOMAIN": "DM",
    "USUBJID": "01-718-016",
    "SUBJID": "016",
    "SITEID": "718",
    "RFSTDTC": "2013-03-03",
    "RFXSTDTC": "2013-03-03",
    "AGE": 69,
    "AGEU": "YEARS",
    "SEX": "F",
    "RACE": "BLACK OR AFRICAN AMERICAN",
    "ARMCD": "Xan_Hi",
    "ARM": "Xanomeline High Dose",
    "ACTARMCD": "Xan_Hi",
    "ACTARM": "Xanomeline High Dose",
    "COUNTRY": "USA",
    "ETHNIC": "NOT HISPANIC OR LATINO",
    ".arm": "Xanomeline High Dose",
    ".armn": 2,
    ".mmse": 10,
    ".disease_duration": 39.1286,
    ".education": 11,
    ".weight": 65.5,
    ".height": 151.3,
    ".bmi": 28.6,
    ".randdt": "2013-03-02",
    ".rfstdtc": "2013-03-03"
  },
  {
    "STUDYID": "CDISCPILOT01",
    "DOMAIN": "DM",
    "USUBJID": "01-718-017",
    "SUBJID": "017",
    "SITEID": "718",
    "RFSTDTC": "2013-03-28",
    "RFXSTDTC": "2013-03-28",
    "AGE": 67,
    "AGEU": "YEARS",
    "SEX": "F",
    "RACE": "WHITE",
    "ARMCD": "Pbo",
    "ARM": "Placebo",
    "ACTARMCD": "Pbo",
    "ACTARM": "Placebo",
    "COUNTRY": "USA",
    "ETHNIC": "NOT HISPANIC OR LATINO",
    ".arm": "Placebo",
    ".armn": 0,
    ".mmse": 24,
    ".disease_duration": 13.5191,
    ".education": 12,
    ".weight": 57.3,
    ".height": 160.8,
    ".bmi": 22.2,
    ".randdt": "2013-03-28",
    ".rfstdtc": "2013-03-28"
  },
  {
    "STUDYID": "CDISCPILOT01",
    "DOMAIN": "DM",
    "USUBJID": "01-718-018",
    "SUBJID": "018",
    "SITEID": "718",
    "RFSTDTC": "2013-10-06",
    "RFXSTDTC": "2013-10-06",
    "AGE": 88,
    "AGEU": "YEARS",
    "SEX": "F",
    "RACE": "BLACK OR AFRICAN AMERICAN",
    "ARMCD": "Pbo",
    "ARM": "Placebo",
    "ACTARMCD": "Pbo",
    "ACTARM": "Placebo",
    "COUNTRY": "USA",
    "ETHNIC": "HISPANIC OR LATINO",
    ".arm": "Placebo",
    ".armn": 0,
    ".mmse": 24,
    ".disease_duration": 43.2043,
    ".education": 14,
    ".weight": 57.4,
    ".height": 158.7,
    ".bmi": 22.8,
    ".randdt": "2013-10-05",
    ".rfstdtc": "2013-10-06"
  },
  {
    "STUDYID": "CDISCPILOT01",
    "DOMAIN": "DM",
    "USUBJID": "01-718-019",
    "SUBJID": "019",
    "SITEID": "718",
    "RFSTDTC": "2013-05-25",
    "RFXSTDTC": "2013-05-25",
    "AGE": 75,
    "AGEU": "YEARS",
    "SEX": "F",
    "RACE": "WHITE",
    "ARMCD": "Xan_Lo",
    "ARM": "Xanomeline Low Dose",
    "ACTARMCD": "Xan_Lo",
    "ACTARM": "Xanomeline Low Dose",
    "COUNTRY": "USA",
    "ETHNIC": "NOT HISPANIC OR LATINO",
    ".arm": "Xanomeline Low Dose",
    ".armn": 1,
    ".mmse": 12,
    ".disease_duration": 36.6521,
    ".education": 10,
    ".weight": 52.3,
    ".height": 161.1,
    ".bmi": 20.2,
    ".randdt": "2013-05-25",
    ".rfstdtc": "2013-05-25"
  },
  {
    "STUDYID": "CDISCPILOT01",
    "DOMAIN": "DM",
    "USUBJID": "01-718-020",
    "SUBJID": "020",
    "SITEID": "718",
    "RFSTDTC": "2013-02-06",
    "RFXSTDTC": "2013-02-06",
    "AGE": 79,
    "AGEU": "YEARS",
    "SEX": "F",
    "RACE": "WHITE",
    "ARMCD": "Xan_Hi",
    "ARM": "Xanomeline High Dose",
    "ACTARMCD": "Xan_Hi",
    "ACTARM": "Xanomeline High Dose",
    "COUNTRY": "USA",
    "ETHNIC": "NOT HISPANIC OR LATINO",
    ".arm": "Xanomeline High Dose",
    ".armn": 2,
    ".mmse": 13,
    ".disease_duration": 15.4577,
    ".education": 12,
    ".weight": 63.8,
    ".height": 160.3,
    ".bmi": 24.8,
    ".randdt": "2013-02-05",
    ".rfstdtc": "2013-02-06"
  },
  {
    "STUDYID": "CDISCPILOT01",
    "DOMAIN": "DM",
    "USUBJID": "01-718-021",
    "SUBJID": "021",
    "SITEID": "718",
    "RFSTDTC": "2013-09-05",
    "RFXSTDTC": "2013-09-05",
    "AGE": 81,
    "AGEU": "YEARS",
    "SEX": "M",
    "RACE": "WHITE",
    "ARMCD": "Xan_Hi",
    "ARM": "Xanomeline High Dose",
    "ACTARMCD": "Xan_Hi",
    "ACTARM": "Xanomeline High Dose",
    "COUNTRY": "USA",
    "ETHNIC": "NOT HISPANIC OR LATINO",
    ".arm": "Xanomeline High Dose",
    ".armn": 2,
    ".mmse": 24,
    ".disease_duration": 66.8795,
    ".education": 18,
    ".weight": 40.9,
    ".height": 172.5,
    ".bmi": 13.7,
    ".randdt": "2013-09-05",
    ".rfstdtc": "2013-09-05"
  },
  {
    "STUDYID": "CDISCPILOT01",
    "DOMAIN": "DM",
    "USUBJID": "01-718-022",
    "SUBJID": "022",
    "SITEID": "718",
    "RFSTDTC": "2013-09-24",
    "RFXSTDTC": "2013-09-24",
    "AGE": 57,
    "AGEU": "YEARS",
    "SEX": "M",
    "RACE": "BLACK OR AFRICAN AMERICAN",
    "ARMCD": "Pbo",
    "ARM": "Placebo",
    "ACTARMCD": "Pbo",
    "ACTARM": "Placebo",
    "COUNTRY": "USA",
    "ETHNIC": "NOT HISPANIC OR LATINO",
    ".arm": "Placebo",
    ".armn": 0,
    ".mmse": 13,
    ".disease_duration": 28.7242,
    ".education": 14,
    ".weight": 56.3,
    ".height": 162.4,
    ".bmi": 21.3,
    ".randdt": "2013-09-24",
    ".rfstdtc": "2013-09-24"
  }
]
