[
  {
    "STUDYID": "CDISCPILOT01",
    "DOMAIN": "EX",
    "USUBJID": "01-701-001",
    "EXSEQ": 1,
    "EXTRT": "XANOMELINE",
    "EXDOSE": 51.8,
    "EXDOSU": "mg",
    "EXDOSFRQ": "QD",
    "EXDOSFRM": "PATCH",
    "EXROUTE": "TRANSDERMAL",
    "EXSTDTC": "2013-06-18",
    "EXENDTC": "2013-12-02",
    "EXSTDY": 1,
    "EXENDY": 168,
    "EXDUR": 168,
    "EXCUMDOS": 8698.2
  },
  {
    "STUDYID": "CDISCPILOT01",
    "DOMAIN": "EX",
    "USUBJID": "01-701-002",
    "EXSEQ": 1,
    "EXTRT": "XANOMELINE",
    "EXDOSE": 52.9,
    "EXDOSU": "mg",
    "EXDOSFRQ": "QD",
    "EXDOSFRM": "PATCH",
    "EXROUTE": "TRANSDERMAL",
    "EXSTDTC": "2013-03-31",
    "EXENDTC": "2013-09-14",
    "EXSTDY": 1,
    "EXENDY": 168,
    "EXDUR": 168,
    "EXCUMDOS": 8882.2
  },
  {
    "STUDYID": "CDISCPILOT01",
    "DOMAIN": "EX",
    "USUBJID": "01-701-003",
    "EXSEQ": 1,
    "EXTRT": "PLACEBO",
    "EXDOSE": 0,
    "EXDOSU": "mg",
    "EXDOSFRQ": "QD",
    "EXDOSFRM": "PATCH",
    "EXROUTE": "TRANSDERMAL",
    "EXSTDTC": "2013-01-01",
    "EXENDTC": "2013-06-17",
    "EXSTDY": 1,
    "EXENDY": 168,
    "EXDUR": 168,
    "EXCUMDOS": 0
  },
  {
    "STUDYID": "CDISCPILOT01",
    "DOMAIN": "EX",
    "USUBJID": "01-701-004",
    "EXSEQ": 1,
    "EXTRT": "XANOMELINE",
    "EXDOSE": 78.4,
    "EXDOSU": "mg",
    "EXDOSFRQ": "QD",
    "EXDOSFRM": "PATCH",
    "EXROUTE": "TRANSDERMAL",
    "EXSTDTC": "2013-08-24",
    "EXENDTC": "2013-11-15",
    "EXSTDY": 1,
    "EXENDY": 84,
    "EXDUR": 84,
    "EXCUMDOS": 6586.2
  },
  {
    "STUDYID": "CDISCPILOT01",
    "DOMAIN": "EX",
    "USUBJID": "01-701-005",
    "EXSEQ": 1,
    "EXTRT": "PLACEBO",
    "EXDOSE": 0,
    "EXDOSU": "mg",
    "EXDOSFRQ": "QD",
    "EXDOSFRM": "PATCH",
    "EXROUTE": "TRANSDERMAL",
    "EXSTDTC": "2013-02-07",
    "EXENDTC": "2013-07-24",
    "EXSTDY": 1,
    "EXENDY": 168,
    "EXDUR": 168,
    "EXCUMDOS": 0
  },
  {
    "STUDYID": "CDISCPILOT01",
    "DOMAIN": "EX",
    "USUBJID": "01-701-006",
    "EXSEQ": 1,
    "EXTRT": "PLACEBO",
    "EXDOSE": 0,
    "EXDOSU": "mg",
    "EXDOSFRQ": "QD",
    "EXDOSFRM": "PATCH",
    "EXROUTE": "TRANSDERMAL",
    "EXSTDTC": "2013-06-27",
    "EXENDTC": "2013-12-11",
    "EXSTDY": 1,
    "EXENDY": 168,
    "EXDUR": 168,
    "EXCUMDOS": 0
  },
  {
    "STUDYID": "CDISCPILOT01",
    "DOMAIN": "EX",
    "USUBJID": "01-701-007",
    "EXSEQ": 1,
    "EXTRT": "PLACEBO",
    "EXDOSE": 0,
    "EXDOSU": "mg",
    "EXDOSFRQ": "QD",
    "EXDOSFRM": "PATCH",
    "EXROUTE": "TRANSDERMAL",
    "EXSTDTC": "2013-07-16",
    "EXENDTC": "2013-12-30",
    "EXSTDY": 1,
    "EXENDY": 168,
    "EXDUR": 168,
    "EXCUMDOS": 0
  },
  {
    "STUDYID": "CDISCPILOT01",
    "DOMAIN": "EX",
    "USUBJID": "01-701-008",
    "EXSEQ": 1,
    "EXTRT": "XANOMELINE",
    "EXDOSE": 52.9,
    "EXDOSU": "mg",
    "EXDOSFRQ": "QD",
    "EXDOSFRM": "PATCH",
    "EXROUTE": "TRANSDERMAL",
    "EXSTDTC": "2013-11-24",
    "EXENDTC": "2014-05-10",
    "EXSTDY": 1,
    "EXENDY": 168,
    "EXDUR": 168,
    "EXCUMDOS": 8891.9
  },
  {
    "STUDYID": "CDISCPILOT01",
    "DOMAIN": "EX",
    "USUBJID": "01-701-009",
    "EXSEQ": 1,
    "EXTRT": "XANOMELINE",
    "EXDOSE": 53.6,
    "EXDOSU": "mg",
    "EXDOSFRQ": "QD",
    "EXDOSFRM": "PATCH",
    "EXROUTE": "TRANSDERMAL",
    "EXSTDTC": "2013-06-08",
    "EXENDTC": "2013-07-12",
    "EXSTDY": 1,
    "EXENDY": 35,
    "EXDUR": 35,
    "EXCUMDOS": 1876.7
  },
  {
    "STUDYID": "CDISCPILOT01",
    "DOMAIN": "EX",
    "USUBJID": "01-701-010",
    "EXSEQ": 1,
    "EXTRT": "XANOMELINE",
    "EXDOSE": 53.3,
    "EXDOSU": "mg",
    "EXDOSFRQ": "QD",
    "EXDOSFRM": "PATCH",
    "EXROUTE": "TRANSDERMAL",
    "EXSTDTC": "2013-12-03",
    "EXENDTC": "2014-05-19",
    "EXSTDY": 1,
    "EXENDY": 168,
    "EXDUR": 168,
    "EXCUMDOS": 8953
  },
  {
    "STUDYID": "CDISCPILOT01",
    "DOMAIN": "EX",
    "USUBJID": "01-701-011",
    "EXSEQ": 1,
    "EXTRT": "XANOMELINE",
    "EXDOSE": 77.7,
    "EXDOSU": "mg",
    "EXDOSFRQ": "QD",
    "EXDOSFRM": "PATCH",
    "EXROUTE": "TRANSDERMAL",
    "EXSTDTC": "2013-08-01",
    "EXENDTC": "2014-01-15",
    "EXSTDY": 1,
    "EXENDY": 168,
    "EXDUR": 168,
    "EXCUMDOS": 13052.5
  },
  {
    "STUDYID": "CDISCPILOT01",
    "DOMAIN": "EX",
    "USUBJID": "01-701-012",
    "EXSEQ": 1,
    "EXTRT": "PLACEBO",
    "EXDOSE": 0,
    "EXDOSU": "mg",
    "EXDOSFRQ": "QD",
    "EXDOSFRM": "PATCH",
    "EXROUTE": "TRANSDERMAL",
    "EXSTDTC": "2013-03-09",
    "EXENDTC": "2013-08-23",
    "EXSTDY": 1,
    "EXENDY": 168,
    "EXDUR": 168,
    "EXCUMDOS": 0
  },
  {
    "STUDYID": "CDISCPILOT01",
    "DOMAIN": "EX",
    "USUBJID": "01-701-013",
    "EXSEQ": 1,
    "EXTRT": "XANOMELINE",
    "EXDOSE": 79.4,
    "EXDOSU": "mg",
    "EXDOSFRQ": "QD",
    "EXDOSFRM": "PATCH",
    "EXROUTE": "TRANSDERMAL",
    "EXSTDTC": "2013-10-22",
    "EXENDTC": "2014-01-06",
    "EXSTDY": 1,
    "EXENDY": 77,
    "EXDUR": 77,
    "EXCUMDOS": 6110.5
  },
  {
    "STUDYID": "CDISCPILOT01",
    "DOMAIN": "EX",
    "USUBJID": "01-701-014",
    "EXSEQ": 1,
    "EXTRT": "XANOMELINE",
    "EXDOSE": 51.8,
    "EXDOSU": "mg",
    "EXDOSFRQ": "QD",
    "EXDOSFRM": "PATCH",
    "EXROUTE": "TRANSDERMAL",
    "EXSTDTC": "2013-12-08",
    "EXENDTC": "2014-05-17",
    "EXSTDY": 1,
    "EXENDY": 161,
    "EXDUR": 161,
    "EXCUMDOS": 8347.2
  },
  {
    "STUDYID": "CDISCPILOT01",
    "DOMAIN": "EX",
    "USUBJID": "01-701-015",
    "EXSEQ": 1,
    "EXTRT": "PLACEBO",
    "EXDOSE": 0,
    "EXDOSU": "mg",
    "EXDOSFRQ": "QD",
    "EXDOSFRM": "PATCH",
    "EXROUTE": "TRANSDERMAL",
    "EXSTDTC": "2013-07-01",
    "EXENDTC": "2013-12-15",
    "EXSTDY": 1,
    "EXENDY": 168,
    "EXDUR": 168,
    "EXCUMDOS": 0
  },
  {
    "STUDYID": "CDISCPILOT01",
    "DOMAIN": "EX",
    "USUBJID": "01-701-016",
    "EXSEQ": 1,
    "EXTRT": "XANOMELINE",
    "EXDOSE": 79.6,
    "EXDOSU": "mg",
    "EXDOSFRQ": "QD",
    "EXDOSFRM": "PATCH",
    "EXROUTE": "TRANSDERMAL",
    "EXSTDTC": "2013-09-14",
    "EXENDTC": "2014-02-28",
    "EXSTDY": 1,
    "EXENDY": 168,
    "EXDUR": 168,
    "EXCUMDOS": 13377
  },
  {
    "STUDYID": "CDISCPILOT01",
    "DOMAIN": "EX",
    "USUBJID": "01-701-017",
    "EXSEQ": 1,
    "EXTRT": "PLACEBO",
    "EXDOSE": 0,
    "EXDOSU": "mg",
    "EXDOSFRQ": "QD",
    "EXDOSFRM": "PATCH",
    "EXROUTE": "TRANSDERMAL",
    "EXSTDTC": "2013-05-29",
    "EXENDTC": "2013-11-12",
    "EXSTDY": 1,
    "EXENDY": 168,
    "EXDUR": 168,
    "EXCUMDOS": 0
  },
  {
    "STUDYID": "CDISCPILOT01",
    "DOMAIN": "EX",
    "USUBJID": "01-701-018",
    "EXSEQ": 1,
    "EXTRT": "PLACEBO",
    "EXDOSE": 0,
    "EXDOSU": "mg",
    "EXDOSFRQ": "QD",
    "EXDOSFRM": "PATCH",
    "EXROUTE": "TRANSDERMAL",
    "EXSTDTC": "2013-04-14",
    "EXENDTC": "2013-09-28",
    "EXSTDY": 1,
    "EXENDY": 168,
    "EXDUR": 168,
    "EXCUMDOS": 0
  },
  {
    "STUDYID": "CDISCPILOT01",
    "DOMAIN": "EX",
    "USUBJID": "01-701-019",
    "EXSEQ": 1,
    "EXTRT": "XANOMELINE",
    "EXDOSE": 79.3,
    "EXDOSU": "mg",
    "EXDOSFRQ": "QD",
    "EXDOSFRM": "PATCH",
    "EXROUTE": "TRANSDERMAL",
    "EXSTDTC": "2013-04-14",
    "EXENDTC": "2013-05-04",
    "EXSTDY": 1,
    "EXENDY": 21,
    "EXDUR": 21,
    "EXCUMDOS": 1666.1
  },
  {
    "STUDYID": "CDISCPILOT01",
    "DOMAIN": "EX",
    "USUBJID": "01-701-020",
    "EXSEQ": 1,
    "EXTRT": "XANOMELINE",
    "EXDOSE": 54,
    "EXDOSU": "mg",
    "EXDOSFRQ": "QD",
    "EXDOSFRM": "PATCH",
    "EXROUTE": "TRANSDERMAL",
    "EXSTDTC": "2013-04-10",
    "EXENDTC": "2013-09-24",
    "EXSTDY": 1,
    "EXENDY": 168,
    "EXDUR": 168,
    "EXCUMDOS": 9068.4
  },
  {
    "STUDYID": "CDISCPILOT01",
    "DOMAIN": "EX",
    "USUBJID": "01-701-021",
    "EXSEQ": 1,
    "EXTRT": "PLACEBO",
    "EXDOSE": 0,
    "EXDOSU": "mg",
    "EXDOSFRQ": "QD",
    "EXDOSFRM": "PATCH",
    "EXROUTE": "TRANSDERMAL",
    "EXSTDTC": "2013-04-13",
    "EXENDTC": "2013-09-27",
    "EXSTDY": 1,
    "EXENDY": 168,
    "EXDUR": 168,
    "EXCUMDOS": 0
  },
  {
    "STUDYID": "CDISCPILOT01",
    "DOMAIN": "EX",
    "USUBJID": "01-701-022",
    "EXSEQ": 1,
    "EXTRT": "XANOMELINE",
    "EXDOSE": 79.1,
    "EXDOSU": "mg",
    "EXDOSFRQ": "QD",
    "EXDOSFRM": "PATCH",
    "EXROUTE": "TRANSDERMAL",
    "EXSTDTC": "2013-09-30",
    "EXENDTC": "2014-03-16",
    "EXSTDY": 1,
    "EXENDY": 168,
    "EXDUR": 168,
    "EXCUMDOS": 13296.1
  },
  {
    "STUDYID": "CDISCPILOT01",
    "DOMAIN": "EX",
    "USUBJID": "01-701-023",
    "EXSEQ": 1,
    "EXTRT": "XANOMELINE",
    "EXDOSE": 80.4,
    "EXDOSU": "mg",
    "EXDOSFRQ": "QD",
    "EXDOSFRM": "PATCH",
    "EXROUTE": "TRANSDERMAL",
    "EXSTDTC": "2013-07-26",
    "EXENDTC": "2014-01-09",
    "EXSTDY": 1,
    "EXENDY": 168,
    "EXDUR": 168,
    "EXCUMDOS": 13505.7
  },
  {
    "STUDYID": "CDISCPILOT01",
    "DOMAIN": "EX",
    "USUBJID": "01-701-024",
    "EXSEQ": 1,
    "EXTRT": "PLACEBO",
    "EXDOSE": 0,
    "EXDOSU": "mg",
    "EXDOSFRQ": "QD",
    "EXDOSFRM": "PATCH",
    "EXROUTE": "TRANSDERMAL",
    "EXSTDTC": "2013-12-20",
    "EXENDTC": "2014-06-05",
    "EXSTDY": 1,
    "EXENDY": 168,
    "EXDUR": 168,
    "EXCUMDOS": 0
  },
  {
    "STUDYID": "CDISCPILOT01",
    "DOMAIN": "EX",
    "USUBJID": "01-701-025",
    "EXSEQ": 1,
    "EXTRT": "PLACEBO",
    "EXDOSE": 0,
    "EXDOSU": "mg",
    "EXDOSFRQ": "QD",
    "EXDOSFRM": "PATCH",
    "EXROUTE": "TRANSDERMAL",
    "EXSTDTC": "2013-11-23",
    "EXENDTC": "2014-05-09",
    "EXSTDY": 1,
    "EXENDY": 168,
    "EXDUR": 168,
    "EXCUMDOS": 0
  },
  {
    "STUDYID": "CDISCPILOT01",
    "DOMAIN": "EX",
    "USUBJID": "01-701-026",
    "EXSEQ": 1,
    "EXTRT": "XANOMELINE",
    "EXDOSE": 53.7,
    "EXDOSU": "mg",
    "EXDOSFRQ": "QD",
    "EXDOSFRM": "PATCH",
    "EXROUTE": "TRANSDERMAL",
    "EXSTDTC": "2013-03-06",
    "EXENDTC": "2013-08-20",
    "EXSTDY": 1,
    "EXENDY": 168,
    "EXDUR": 168,
    "EXCUMDOS": 9018.5
  },
  {
    "STUDYID": "CDISCPILOT01",
    "DOMAIN": "EX",
    "USUBJID": "01-701-027",
    "EXSEQ": 1,
    "EXTRT": "XANOMELINE",
    "EXDOSE": 80.2,
    "EXDOSU": "mg",
    "EXDOSFRQ": "QD",
    "EXDOSFRM": "PATCH",
    "EXROUTE": "TRANSDERMAL",
    "EXSTDTC": "2013-11-28",
    "EXENDTC": "2014-02-05",
    "EXSTDY": 1,
    "EXENDY": 70,
    "EXDUR": 70,
    "EXCUMDOS": 5611.2
  },
  {
    "STUDYID": "CDISCPILOT01",
    "DOMAIN": "EX",
    "USUBJID": "01-701-028",
    "EXSEQ": 1,
    "EXTRT": "XANOMELINE",
    "EXDOSE": 77.6,
    "EXDOSU": "mg",
    "EXDOSFRQ": "QD",
    "EXDOSFRM": "PATCH",
    "EXROUTE": "TRANSDERMAL",
    "EXSTDTC": "2013-07-27",
    "EXENDTC": "2014-01-10",
    "EXSTDY": 1,
    "EXENDY": 168,
    "EXDUR": 168,
    "EXCUMDOS": 13034.6
  },
  {
    "STUDYID": "CDISCPILOT01",
    "DOMAIN": "EX",
    "USUBJID": "01-701-029",
    "EXSEQ": 1,
    "EXTRT": "XANOMELINE",
    "EXDOSE": 77.1,
    "EXDOSU": "mg",
    "EXDOSFRQ": "QD",
    "EXDOSFRM": "PATCH",
    "EXROUTE": "TRANSDERMAL",
    "EXSTDTC": "2013-10-29",
    "EXENDTC": "2013-12-02",
    "EXSTDY": 1,
    "EXENDY": 35,
    "EXDUR": 35,
    "EXCUMDOS": 2697.3
  },
  {
    "STUDYID": "CDISCPILOT01",
    "DOMAIN": "EX",
    "USUBJID": "01-701-030",
    "EXSEQ": 1,
    "EXTRT": "XANOMELINE",
    "EXDOSE": 53.7,
    "EXDOSU": "mg",
    "EXDOSFRQ": "QD",
    "EXDOSFRM": "PATCH",
    "EXROUTE": "TRANSDERMAL",
    "EXSTDTC": "2013-06-30",
    "EXENDTC": "2013-12-14",
    "EXSTDY": 1,
    "EXENDY": 168,
    "EXDUR": 168,
    "EXCUMDOS": 9025.5
  },
  {
    "STUDYID": "CDISCPILOT01",
    "DOMAIN": "EX",
    "USUBJID": "01-701-031",
    "EXSEQ": 1,
    "EXTRT": "XANOMELINE",
    "EXDOSE": 79.5,
    "EXDOSU": "mg",
    "EXDOSFRQ": "QD",
    "EXDOSFRM": "PATCH",
    "EXROUTE": "TRANSDERMAL",
    "EXSTDTC": "2013-09-16",
    "EXENDTC": "2013-10-13",
    "EXSTDY": 1,
    "EXENDY": 28,
    "EXDUR": 28,
    "EXCUMDOS": 2225.9
  },
  {
    "STUDYID": "CDISCPILOT01",
    "DOMAIN": "EX",
    "USUBJID": "01-701-032",
    "EXSEQ": 1,
    "EXTRT": "XANOMELINE",
    "EXDOSE": 79.3,
    "EXDOSU": "mg",
    "EXDOSFRQ": "QD",
    "EXDOSFRM": "PATCH",
    "EXROUTE": "TRANSDERMAL",
    "EXSTDTC": "2013-03-15",
    "EXENDTC": "2013-03-28",
    "EXSTDY": 1,
    "EXENDY": 14,
    "EXDUR": 14,
    "EXCUMDOS": 1109.8
  },
  {
    "STUDYID": "CDISCPILOT01",
    "DOMAIN": "EX",
    "USUBJID": "01-701-033",
    "EXSEQ": 1,
    "EXTRT": "XANOMELINE",
    "EXDOSE": 52.2,
    "EXDOSU": "mg",
    "EXDOSFRQ": "QD",
    "EXDOSFRM": "PATCH",
    "EXROUTE": "TRANSDERMAL",
    "EXSTDTC": "2013-11-06",
    "EXENDTC": "2014-04-22",
    "EXSTDY": 1,
    "EXENDY": 168,
    "EXDUR": 168,
    "EXCUMDOS": 8762.3
  },
  {
    "STUDYID": "CDISCPILOT01",
    "DOMAIN": "EX",
    "USUBJID": "01-701-034",
    "EXSEQ": 1,
    "EXTRT": "XANOMELINE",
    "EXDOSE": 52.1,
    "EXDOSU": "mg",
    "EXDOSFRQ": "QD",
    "EXDOSFRM": "PATCH",
    "EXROUTE": "TRANSDERMAL",
    "EXSTDTC": "2013-08-15",
    "EXENDTC": "2014-01-29",
    "EXSTDY": 1,
    "EXENDY": 168,
    "EXDUR": 168,
    "EXCUMDOS": 8757.1
  },
  {
    "STUDYID": "CDISCPILOT01",
    "DOMAIN": "EX",
    "USUBJID": "01-701-035",
    "EXSEQ": 1,
    "EXTRT": "XANOMELINE",
    "EXDOSE": 77.1,
    "EXDOSU": "mg",
    "EXDOSFRQ": "QD",
    "EXDOSFRM": "PATCH",
    "EXROUTE": "TRANSDERMAL",
    "EXSTDTC": "2013-04-25",
    "EXENDTC": "2013-10-09",
    "EXSTDY": 1,
    "EXENDY": 168,
    "EXDUR": 168,
    "EXCUMDOS": 12952.9
  },
  {
    "STUDYID": "CDISCPILOT01",
    "DOMAIN": "EX",
    "USUBJID": "01-701-036",
    "EXSEQ": 1,
    "EXTRT": "XANOMELINE",
    "EXDOSE": 51.8,
    "EXDOSU": "mg",
    "EXDOSFRQ": "QD",
    "EXDOSFRM": "PATCH",
    "EXROUTE": "TRANSDERMAL",
    "EXSTDTC": "2013-08-16",
    "EXENDTC": "2013-09-19",
    "EXSTDY": 1,
    "EXENDY": 35,
    "EXDUR": 35,
    "EXCUMDOS": 1814.4
  },
  {
    "STUDYID": "CDISCPILOT01",
    "DOMAIN": "EX",
    "USUBJID": "01-701-037",
    "EXSEQ": 1,
    "EXTRT": "XANOMELINE",
    "EXDOSE": 53.2,
    "EXDOSU": "mg",
    "EXDOSFRQ": "QD",
    "EXDOSFRM": "PATCH",
    "EXROUTE": "TRANSDERMAL",
    "EXSTDTC": "2013-01-05",
    "EXENDTC": "2013-06-21",
    "EXSTDY": 1,
    "EXENDY": 168,
    "EXDUR": 168,
    "EXCUMDOS": 8930.3
  },
  {
    "STUDYID": "CDISCPILOT01",
    "DOMAIN": "EX",
    "USUBJID": "01-701-038",
    "EXSEQ": 1,
    "EXTRT": "XANOMELINE",
    "EXDOSE": 79.9,
    "EXDOSU": "mg",
    "EXDOSFRQ": "QD",
    "EXDOSFRM": "PATCH",
    "EXROUTE": "TRANSDERMAL",
    "EXSTDTC": "2013-06-14",
    "EXENDTC": "2013-08-08",
    "EXSTDY": 1,
    "EXENDY": 56,
    "EXDUR": 56,
    "EXCUMDOS": 4474.9
  },
  {
    "STUDYID": "CDISCPILOT01",
    "DOMAIN": "EX",
    "USUBJID": "01-701-039",
    "EXSEQ": 1,
    "EXTRT": "XANOMELINE",
    "EXDOSE": 80.4,
    "EXDOSU": "mg",
    "EXDOSFRQ": "QD",
    "EXDOSFRM": "PATCH",
    "EXROUTE": "TRANSDERMAL",
    "EXSTDTC": "2013-04-27",
    "EXENDTC": "2013-05-24",
    "EXSTDY": 1,
    "EXENDY": 28,
    "EXDUR": 28,
    "EXCUMDOS": 2250
  },
  {
    "STUDYID": "CDISCPILOT01",
    "DOMAIN": "EX",
    "USUBJID": "01-701-040",
    "EXSEQ": 1,
    "EXTRT": "XANOMELINE",
    "EXDOSE": 53.4,
    "EXDOSU": "mg",
    "EXDOSFRQ": "QD",
    "EXDOSFRM": "PATCH",
    "EXROUTE": "TRANSDERMAL",
    "EXSTDTC": "2013-10-03",
    "EXENDTC": "2013-10-30",
    "EXSTDY": 1,
    "EXENDY": 28,
    "EXDUR": 28,
    "EXCUMDOS": 1494.7
  },
  {
    "STUDYID": "CDISCPILOT01",
    "DOMAIN": "EX",
    "USUBJID": "01-701-041",
    "EXSEQ": 1,
    "EXTRT": "XANOMELINE",
    "EXDOSE": 77.4,
    "EXDOSU": "mg",
    "EXDOSFRQ": "QD",
    "EXDOSFRM": "PATCH",
    "EXROUTE": "TRANSDERMAL",
    "EXSTDTC": "2013-11-06",
    "EXENDTC": "2014-04-22",
    "EXSTDY": 1,
    "EXENDY": 168,
    "EXDUR": 168,
    "EXCUMDOS": 12994.9
  },
  {
    "STUDYID": "CDISCPILOT01",
    "DOMAIN": "EX",
    "USUBJID": "01-701-042",
    "EXSEQ": 1,
    "EXTRT": "PLACEBO",
    "EXDOSE": 0,
    "EXDOSU": "mg",
    "EXDOSFRQ": "QD",
    "EXDOSFRM": "PATCH",
    "EXROUTE": "TRANSDERMAL",
    "EXSTDTC": "2013-09-03",
    "EXENDTC": "2014-02-17",
    "EXSTDY": 1,
    "EXENDY": 168,
    "EXDUR": 168,
    "EXCUMDOS": 0
  },
  {
    "STUDYID": "CDISCPILOT01",
    "DOMAIN": "EX",
    "USUBJID": "01-701-043",
    "EXSEQ": 1,
    "EXTRT": "XANOMELINE",
    "EXDOSE": 77.4,
    "EXDOSU": "mg",
    "EXDOSFRQ": "QD",
    "EXDOSFRM": "PATCH",
    "EXROUTE": "TRANSDERMAL",
    "EXSTDTC": "2013-06-15",
    "EXENDTC": "2013-06-28",
    "EXSTDY": 1,
    "EXENDY": 14,
    "EXDUR": 14,
    "EXCUMDOS": 1083.6
  },
  {
    "STUDYID": "CDISCPILOT01",
    "DOMAIN": "EX",
    "USUBJID": "01-703-001",
    "EXSEQ": 1,
    "EXTRT": "PLACEBO",
    "EXDOSE": 0,
    "EXDOSU": "mg",
    "EXDOSFRQ": "QD",
    "EXDOSFRM": "PATCH",
    "EXROUTE": "TRANSDERMAL",
    "EXSTDTC": "2013-01-12",
    "EXENDTC": "2013-06-28",
    "EXSTDY": 1,
    "EXENDY": 168,
    "EXDUR": 168,
    "EXCUMDOS": 0
  },
  {
    "STUDYID": "CDISCPILOT01",
    "DOMAIN": "EX",
    "USUBJID": "01-703-002",
    "EXSEQ": 1,
    "EXTRT": "XANOMELINE",
    "EXDOSE": 78.1,
    "EXDOSU": "mg",
    "EXDOSFRQ": "QD",
    "EXDOSFRM": "PATCH",
    "EXROUTE": "TRANSDERMAL",
    "EXSTDTC": "2013-02-03",
    "EXENDTC": "2013-06-29",
    "EXSTDY": 1,
    "EXENDY": 147,
    "EXDUR": 147,
    "EXCUMDOS": 11475.1
  },
  {
    "STUDYID": "CDISCPILOT01",
    "DOMAIN": "EX",
    "USUBJID": "01-703-003",
    "EXSEQ": 1,
    "EXTRT": "XANOMELINE",
    "EXDOSE": 78.6,
    "EXDOSU": "mg",
    "EXDOSFRQ": "QD",
    "EXDOSFRM": "PATCH",
    "EXROUTE": "TRANSDERMAL",
    "EXSTDTC": "2013-08-12",
    "EXENDTC": "2014-01-26",
    "EXSTDY": 1,
    "EXENDY": 168,
    "EXDUR": 168,
    "EXCUMDOS": 13201.3
  },
  {
    "STUDYID": "CDISCPILOT01",
    "DOMAIN": "EX",
    "USUBJID": "01-703-004",
    "EXSEQ": 1,
    "EXTRT": "PLACEBO",
    "EXDOSE": 0,
    "EXDOSU": "mg",
    "EXDOSFRQ": "QD",
    "EXDOSFRM": "PATCH",
    "EXROUTE": "TRANSDERMAL",
    "EXSTDTC": "2013-07-30",
    "EXENDTC": "2013-12-23",
    "EXSTDY": 1,
    "EXENDY": 147,
    "EXDUR": 147,
    "EXCUMDOS": 0
  },
  {
    "STUDYID": "CDISCPILOT01",
    "DOMAIN": "EX",
    "USUBJID": "01-703-005",
    "EXSEQ": 1,
    "EXTRT": "XANOMELINE",
    "EXDOSE": 53.9,
    "EXDOSU": "mg",
    "EXDOSFRQ": "QD",
    "EXDOSFRM": "PATCH",
    "EXROUTE": "TRANSDERMAL",
    "EXSTDTC": "2013-03-05",
    "EXENDTC": "2013-04-29",
    "EXSTDY": 1,
    "EXENDY": 56,
    "EXDUR": 56,
    "EXCUMDOS": 3016.9
  },
  {
    "STUDYID": "CDISCPILOT01",
    "DOMAIN": "EX",
    "USUBJID": "01-703-006",
    "EXSEQ": 1,
    "EXTRT": "PLACEBO",
    "EXDOSE": 0,
    "EXDOSU": "mg",
    "EXDOSFRQ": "QD",
    "EXDOSFRM": "PATCH",
    "EXROUTE": "TRANSDERMAL",
    "EXSTDTC": "2013-07-24",
    "EXENDTC": "2013-09-03",
    "EXSTDY": 1,
    "EXENDY": 42,
    "EXDUR": 42,
    "EXCUMDOS": 0
  },
  {
    "STUDYID": "CDISCPILOT01",
    "DOMAIN": "EX",
    "USUBJID": "01-703-007",
    "EXSEQ": 1,
    "EXTRT": "PLACEBO",
    "EXDOSE": 0,
    "EXDOSU": "mg",
    "EXDOSFRQ": "QD",
    "EXDOSFRM": "PATCH",
    "EXROUTE": "TRANSDERMAL",
    "EXSTDTC": "2013-02-21",
    "EXENDTC": "2013-05-08",
    "EXSTDY": 1,
    "EXENDY": 77,
    "EXDUR": 77,
    "EXCUMDOS": 0
  },
  {
    "STUDYID": "CDISCPILOT01",
    "DOMAIN": "EX",
    "USUBJID": "01-703-008",
    "EXSEQ": 1,
    "EXTRT": "XANOMELINE",
    "EXDOSE": 52.7,
    "EXDOSU": "mg",
    "EXDOSFRQ": "QD",
    "EXDOSFRM": "PATCH",
    "EXROUTE": "TRANSDERMAL",
    "EXSTDTC": "2014-01-01",
    "EXENDTC": "2014-06-17",
    "EXSTDY": 1,
    "EXENDY": 168,
    "EXDUR": 168,
    "EXCUMDOS": 8849
  },
  {
    "STUDYID": "CDISCPILOT01",
    "DOMAIN": "EX",
    "USUBJID": "01-703-009",
    "EXSEQ": 1,
    "EXTRT": "XANOMELINE",
    "EXDOSE": 80.3,
    "EXDOSU": "mg",
    "EXDOSFRQ": "QD",
    "EXDOSFRM": "PATCH",
    "EXROUTE": "TRANSDERMAL",
    "EXSTDTC": "2013-06-04",
    "EXENDTC": "2013-07-15",
    "EXSTDY": 1,
    "EXENDY": 42,
    "EXDUR": 42,
    "EXCUMDOS": 3373.8
  },
  {
    "STUDYID": "CDISCPILOT01",
    "DOMAIN": "EX",
    "USUBJID": "01-703-010",
    "EXSEQ": 1,
    "EXTRT": "PLACEBO",
    "EXDOSE": 0,
    "EXDOSU": "mg",
    "EXDOSFRQ": "QD",
    "EXDOSFRM": "PATCH",
    "EXROUTE": "TRANSDERMAL",
    "EXSTDTC": "2013-07-02",
    "EXENDTC": "2013-07-22",
    "EXSTDY": 1,
    "EXENDY": 21,
    "EXDUR": 21,
    "EXCUMDOS": 0
  },
  {
    "STUDYID": "CDISCPILOT01",
    "DOMAIN": "EX",
    "USUBJID": "01-703-011",
    "EXSEQ": 1,
    "EXTRT": "XANOMELINE",
    "EXDOSE": 80.7,
    "EXDOSU": "mg",
    "EXDOSFRQ": "QD",
    "EXDOSFRM": "PATCH",
    "EXROUTE": "TRANSDERMAL",
    "EXSTDTC": "2013-12-22",
    "EXENDTC": "2014-06-07",
    "EXSTDY": 1,
    "EXENDY": 168,
    "EXDUR": 168,
    "EXCUMDOS": 13549.3
  },
  {
    "STUDYID": "CDISCPILOT01",
    "DOMAIN": "EX",
    "USUBJID": "01-703-012",
    "EXSEQ": 1,
    "EXTRT": "XANOMELINE",
    "EXDOSE": 78.2,
    "EXDOSU": "mg",
    "EXDOSFRQ": "QD",
    "EXDOSFRM": "PATCH",
    "EXROUTE": "TRANSDERMAL",
    "EXSTDTC": "2013-02-06",
    "EXENDTC": "2013-02-19",
    "EXSTDY": 1,
    "EXENDY": 14,
    "EXDUR": 14,
    "EXCUMDOS": 1094.7
  },
  {
    "STUDYID": "CDISCPILOT01",
    "DOMAIN": "EX",
    "USUBJID": "01-703-013",
    "EXSEQ": 1,
    "EXTRT": "XANOMELINE",
    "EXDOSE": 53.5,
    "EXDOSU": "mg",
    "EXDOSFRQ": "QD",
    "EXDOSFRM": "PATCH",
    "EXROUTE": "TRANSDERMAL",
    "EXSTDTC": "2013-04-28",
    "EXENDTC": "2013-08-31",
    "EXSTDY": 1,
    "EXENDY": 126,
    "EXDUR": 126,
    "EXCUMDOS": 6740.7
  },
  {
    "STUDYID": "CDISCPILOT01",
    "DOMAIN": "EX",
    "USUBJID": "01-703-014",
    "EXSEQ": 1,
    "EXTRT": "XANOMELINE",
    "EXDOSE": 51.8,
    "EXDOSU": "mg",
    "EXDOSFRQ": "QD",
    "EXDOSFRM": "PATCH",
    "EXROUTE": "TRANSDERMAL",
    "EXSTDTC": "2013-07-17",
    "EXENDTC": "2013-08-20",
    "EXSTDY": 1,
    "EXENDY": 35,
    "EXDUR": 35,
    "EXCUMDOS": 1811.4
  },
  {
    "STUDYID": "CDISCPILOT01",
    "DOMAIN": "EX",
    "USUBJID": "01-703-015",
    "EXSEQ": 1,
    "EXTRT": "XANOMELINE",
    "EXDOSE": 53.6,
    "EXDOSU": "mg",
    "EXDOSFRQ": "QD",
    "EXDOSFRM": "PATCH",
    "EXROUTE": "TRANSDERMAL",
    "EXSTDTC": "2013-02-11",
    "EXENDTC": "2013-07-28",
    "EXSTDY": 1,
    "EXENDY": 168,
    "EXDUR": 168,
    "EXCUMDOS": 8999.3
  },
  {
    "STUDYID": "CDISCPILOT01",
    "DOMAIN": "EX",
    "USUBJID": "01-703-016",
    "EXSEQ": 1,
    "EXTRT": "PLACEBO",
    "EXDOSE": 0,
    "EXDOSU": "mg",
    "EXDOSFRQ": "QD",
    "EXDOSFRM": "PATCH",
    "EXROUTE": "TRANSDERMAL",
    "EXSTDTC": "2013-05-02",
    "EXENDTC": "2013-08-14",
    "EXSTDY": 1,
    "EXENDY": 105,
    "EXDUR": 105,
    "EXCUMDOS": 0
  },
  {
    "STUDYID": "CDISCPILOT01",
    "DOMAIN": "EX",
    "USUBJID": "01-703-017",
    "EXSEQ": 1,
    "EXTRT": "XANOMELINE",
    "EXDOSE": 52.1,
    "EXDOSU": "mg",
    "EXDOSFRQ": "QD",
    "EXDOSFRM": "PATCH",
    "EXROUTE": "TRANSDERMAL",
    "EXSTDTC": "2013-11-18",
    "EXENDTC": "2013-12-22",
    "EXSTDY": 1,
    "EXENDY": 35,
    "EXDUR": 35,
    "EXCUMDOS": 1821.8
  },
  {
    "STUDYID": "CDISCPILOT01",
    "DOMAIN": "EX",
    "USUBJID": "01-703-018",
    "EXSEQ": 1,
    "EXTRT": "XANOMELINE",
    "EXDOSE": 52,
    "EXDOSU": "mg",
    "EXDOSFRQ": "QD",
    "EXDOSFRM": "PATCH",
    "EXROUTE": "TRANSDERMAL",
    "EXSTDTC": "2013-08-23",
    "EXENDTC": "2013-09-26",
    "EXSTDY": 1,
    "EXENDY": 35,
    "EXDUR": 35,
    "EXCUMDOS": 1818.6
  },
  {
    "STUDYID": "CDISCPILOT01",
    "DOMAIN": "EX",
    "USUBJID": "01-703-019",
    "EXSEQ": 1,
    "EXTRT": "XANOMELINE",
    "EXDOSE": 77.6,
    "EXDOSU": "mg",
    "EXDOSFRQ": "QD",
    "EXDOSFRM": "PATCH",
    "EXROUTE": "TRANSDERMAL",
    "EXSTDTC": "2013-11-03",
    "EXENDTC": "2014-04-19",
    "EXSTDY": 1,
    "EXENDY": 168,
    "EXDUR": 168,
    "EXCUMDOS": 13038.9
  },
  {
    "STUDYID": "CDISCPILOT01",
    "DOMAIN": "EX",
    "USUBJID": "01-703-020",
    "EXSEQ": 1,
    "EXTRT": "XANOMELINE",
    "EXDOSE": 53.7,
    "EXDOSU": "mg",
    "EXDOSFRQ": "QD",
    "EXDOSFRM": "PATCH",
    "EXROUTE": "TRANSDERMAL",
    "EXSTDTC": "2013-07-07",
    "EXENDTC": "2013-12-21",
    "EXSTDY": 1,
    "EXENDY": 168,
    "EXDUR": 168,
    "EXCUMDOS": 9027.6
  },
  {
    "STUDYID": "CDISCPILOT01",
    "DOMAIN": "EX",
    "USUBJID": "01-704-001",
    "EXSEQ": 1,
    "EXTRT": "PLACEBO",
    "EXDOSE": 0,
    "EXDOSU": "mg",
    "EXDOSFRQ": "QD",
    "EXDOSFRM": "PATCH",
    "EXROUTE": "TRANSDERMAL",
    "EXSTDTC": "2013-12-14",
    "EXENDTC": "2014-05-30",
    "EXSTDY": 1,
    "EXENDY": 168,
    "EXDUR": 168,
    "EXCUMDOS": 0
  },
  {
    "STUDYID": "CDISCPILOT01",
    "DOMAIN": "EX",
    "USUBJID": "01-704-002",
    "EXSEQ": 1,
    "EXTRT": "PLACEBO",
    "EXDOSE": 0,
    "EXDOSU": "mg",
    "EXDOSFRQ": "QD",
    "EXDOSFRM": "PATCH",
    "EXROUTE": "TRANSDERMAL",
    "EXSTDTC": "2013-02-21",
    "EXENDTC": "2013-08-07",
    "EXSTDY": 1,
    "EXENDY": 168,
    "EXDUR": 168,
    "EXCUMDOS": 0
  },
  {
    "STUDYID": "CDISCPILOT01",
    "DOMAIN": "EX",
    "USUBJID": "01-704-003",
    "EXSEQ": 1,
    "EXTRT": "XANOMELINE",
    "EXDOSE": 51.3,
    "EXDOSU": "mg",
    "EXDOSFRQ": "QD",
    "EXDOSFRM": "PATCH",
    "EXROUTE": "TRANSDERMAL",
    "EXSTDTC": "2013-06-22",
    "EXENDTC": "2013-12-06",
    "EXSTDY": 1,
    "EXENDY": 168,
    "EXDUR": 168,
    "EXCUMDOS": 8621.5
  },
  {
    "STUDYID": "CDISCPILOT01",
    "DOMAIN": "EX",
    "USUBJID": "01-704-004",
    "EXSEQ": 1,
    "EXTRT": "XANOMELINE",
    "EXDOSE": 52.5,
    "EXDOSU": "mg",
    "EXDOSFRQ": "QD",
    "EXDOSFRM": "PATCH",
    "EXROUTE": "TRANSDERMAL",
    "EXSTDTC": "2013-09-29",
    "EXENDTC": "2013-11-16",
    "EXSTDY": 1,
    "EXENDY": 49,
    "EXDUR": 49,
    "EXCUMDOS": 2570.8
  },
  {
    "STUDYID": "CDISCPILOT01",
    "DOMAIN": "EX",
    "USUBJID": "01-704-005",
    "EXSEQ": 1,
    "EXTRT": "PLACEBO",
    "EXDOSE": 0,
    "EXDOSU": "mg",
    "EXDOSFRQ": "QD",
    "EXDOSFRM": "PATCH",
    "EXROUTE": "TRANSDERMAL",
    "EXSTDTC": "2013-11-08",
    "EXENDTC": "2013-12-05",
    "EXSTDY": 1,
    "EXENDY": 28,
    "EXDUR": 28,
    "EXCUMDOS": 0
  },
  {
    "STUDYID": "CDISCPILOT01",
    "DOMAIN": "EX",
    "USUBJID": "01-704-006",
    "EXSEQ": 1,
    "EXTRT": "PLACEBO",
    "EXDOSE": 0,
    "EXDOSU": "mg",
    "EXDOSFRQ": "QD",
    "EXDOSFRM": "PATCH",
    "EXROUTE": "TRANSDERMAL",
    "EXSTDTC": "2013-10-29",
    "EXENDTC": "2013-11-18",
    "EXSTDY": 1,
    "EXENDY": 21,
    "EXDUR": 21,
    "EXCUMDOS": 0
  },
  {
    "STUDYID": "CDISCPILOT01",
    "DOMAIN": "EX",
    "USUBJID": "01-704-007",
    "EXSEQ": 1,
    "EXTRT": "PLACEBO",
    "EXDOSE": 0,
    "EXDOSU": "mg",
    "EXDOSFRQ": "QD",
    "EXDOSFRM": "PATCH",
    "EXROUTE": "TRANSDERMAL",
    "EXSTDTC": "2013-12-16",
    "EXENDTC": "2014-06-01",
    "EXSTDY": 1,
    "EXENDY": 168,
    "EXDUR": 168,
    "EXCUMDOS": 0
  },
  {
    "STUDYID": "CDISCPILOT01",
    "DOMAIN": "EX",
    "USUBJID": "01-704-008",
    "EXSEQ": 1,
    "EXTRT": "XANOMELINE",
    "EXDOSE": 77,
    "EXDOSU": "mg",
    "EXDOSFRQ": "QD",
    "EXDOSFRM": "PATCH",
    "EXROUTE": "TRANSDERMAL",
    "EXSTDTC": "2013-07-05",
    "EXENDTC": "2013-12-19",
    "EXSTDY": 1,
    "EXENDY": 168,
    "EXDUR": 168,
    "EXCUMDOS": 12931.8
  },
  {
    "STUDYID": "CDISCPILOT01",
    "DOMAIN": "EX",
    "USUBJID": "01-704-009",
    "EXSEQ": 1,
    "EXTRT": "XANOMELINE",
    "EXDOSE": 79.6,
    "EXDOSU": "mg",
    "EXDOSFRQ": "QD",
    "EXDOSFRM": "PATCH",
    "EXROUTE": "TRANSDERMAL",
    "EXSTDTC": "2013-07-11",
    "EXENDTC": "2013-12-25",
    "EXSTDY": 1,
    "EXENDY": 168,
    "EXDUR": 168,
    "EXCUMDOS": 13367.2
  },
  {
    "STUDYID": "CDISCPILOT01",
    "DOMAIN": "EX",
    "USUBJID": "01-704-010",
    "EXSEQ": 1,
    "EXTRT": "XANOMELINE",
    "EXDOSE": 80.1,
    "EXDOSU": "mg",
    "EXDOSFRQ": "QD",
    "EXDOSFRM": "PATCH",
    "EXROUTE": "TRANSDERMAL",
    "EXSTDTC": "2013-09-21",
    "EXENDTC": "2014-01-31",
    "EXSTDY": 1,
    "EXENDY": 133,
    "EXDUR": 133,
    "EXCUMDOS": 10654.7
  },
  {
    "STUDYID": "CDISCPILOT01",
    "DOMAIN": "EX",
    "USUBJID": "01-704-011",
    "EXSEQ": 1,
    "EXTRT": "PLACEBO",
    "EXDOSE": 0,
    "EXDOSU": "mg",
    "EXDOSFRQ": "QD",
    "EXDOSFRM": "PATCH",
    "EXROUTE": "TRANSDERMAL",
    "EXSTDTC": "2013-11-09",
    "EXENDTC": "2014-04-25",
    "EXSTDY": 1,
    "EXENDY": 168,
    "EXDUR": 168,
    "EXCUMDOS": 0
  },
  {
    "STUDYID": "CDISCPILOT01",
    "DOMAIN": "EX",
    "USUBJID": "01-704-012",
    "EXSEQ": 1,
    "EXTRT": "XANOMELINE",
    "EXDOSE": 53.7,
    "EXDOSU": "mg",
    "EXDOSFRQ": "QD",
    "EXDOSFRM": "PATCH",
    "EXROUTE": "TRANSDERMAL",
    "EXSTDTC": "2013-11-17",
    "EXENDTC": "2014-01-11",
    "EXSTDY": 1,
    "EXENDY": 56,
    "EXDUR": 56,
    "EXCUMDOS": 3006.1
  },
  {
    "STUDYID": "CDISCPILOT01",
    "DOMAIN": "EX",
    "USUBJID": "01-704-013",
    "EXSEQ": 1,
    "EXTRT": "PLACEBO",
    "EXDOSE": 0,
    "EXDOSU": "mg",
    "EXDOSFRQ": "QD",
    "EXDOSFRM": "PATCH",
    "EXROUTE": "TRANSDERMAL",
    "EXSTDTC": "2013-05-06",
    "EXENDTC": "2013-10-20",
    "EXSTDY": 1,
    "EXENDY": 168,
    "EXDUR": 168,
    "EXCUMDOS": 0
  },
  {
    "STUDYID": "CDISCPILOT01",
    "DOMAIN": "EX",
    "USUBJID": "01-704-014",
    "EXSEQ": 1,
    "EXTRT": "PLACEBO",
    "EXDOSE": 0,
    "EXDOSU": "mg",
    "EXDOSFRQ": "QD",
    "EXDOSFRM": "PATCH",
    "EXROUTE": "TRANSDERMAL",
    "EXSTDTC": "2013-09-04",
    "EXENDTC": "2013-12-31",
    "EXSTDY": 1,
    "EXENDY": 119,
    "EXDUR": 119,
    "EXCUMDOS": 0
  },
  {
    "STUDYID": "CDISCPILOT01",
    "DOMAIN": "EX",
    "USUBJID": "01-704-015",
    "EXSEQ": 1,
    "EXTRT": "XANOMELINE",
    "EXDOSE": 53.2,
    "EXDOSU": "mg",
    "EXDOSFRQ": "QD",
    "EXDOSFRM": "PATCH",
    "EXROUTE": "TRANSDERMAL",
    "EXSTDTC": "2013-05-08",
    "EXENDTC": "2013-10-01",
    "EXSTDY": 1,
    "EXENDY": 147,
    "EXDUR": 147,
    "EXCUMDOS": 7827.2
  },
  {
    "STUDYID": "CDISCPILOT01",
    "DOMAIN": "EX",
    "USUBJID": "01-704-016",
    "EXSEQ": 1,
    "EXTRT": "XANOMELINE",
    "EXDOSE": 51.5,
    "EXDOSU": "mg",
    "EXDOSFRQ": "QD",
    "EXDOSFRM": "PATCH",
    "EXROUTE": "TRANSDERMAL",
    "EXSTDTC": "2013-09-02",
    "EXENDTC": "2014-02-16",
    "EXSTDY": 1,
    "EXENDY": 168,
    "EXDUR": 168,
    "EXCUMDOS": 8649.6
  },
  {
    "STUDYID": "CDISCPILOT01",
    "DOMAIN": "EX",
    "USUBJID": "01-704-017",
    "EXSEQ": 1,
    "EXTRT": "PLACEBO",
    "EXDOSE": 0,
    "EXDOSU": "mg",
    "EXDOSFRQ": "QD",
    "EXDOSFRM": "PATCH",
    "EXROUTE": "TRANSDERMAL",
    "EXSTDTC": "2013-01-11",
    "EXENDTC": "2013-06-27",
    "EXSTDY": 1,
    "EXENDY": 168,
    "EXDUR": 168,
    "EXCUMDOS": 0
  },
  {
    "STUDYID": "CDISCPILOT01",
    "DOMAIN": "EX",
    "USUBJID": "01-704-018",
    "EXSEQ": 1,
    "EXTRT": "PLACEBO",
    "EXDOSE": 0,
    "EXDOSU": "mg",
    "EXDOSFRQ": "QD",
    "EXDOSFRM": "PATCH",
    "EXROUTE": "TRANSDERMAL",
    "EXSTDTC": "2013-06-21",
    "EXENDTC": "2013-11-28",
    "EXSTDY": 1,
    "EXENDY": 161,
    "EXDUR": 161,
    "EXCUMDOS": 0
  },
  {
    "STUDYID": "CDISCPILOT01",
    "DOMAIN": "EX",
    "USUBJID": "01-704-019",
    "EXSEQ": 1,
    "EXTRT": "XANOMELINE",
    "EXDOSE": 53.9,
    "EXDOSU": "mg",
    "EXDOSFRQ": "QD",
    "EXDOSFRM": "PATCH",
    "EXROUTE": "TRANSDERMAL",
    "EXSTDTC": "2013-08-07",
    "EXENDTC": "2014-01-21",
    "EXSTDY": 1,
    "EXENDY": 168,
    "EXDUR": 168,
    "EXCUMDOS": 9049
  },
  {
    "STUDYID": "CDISCPILOT01",
    "DOMAIN": "EX",
    "USUBJID": "01-704-020",
    "EXSEQ": 1,
    "EXTRT": "XANOMELINE",
    "EXDOSE": 77,
    "EXDOSU": "mg",
    "EXDOSFRQ": "QD",
    "EXDOSFRM": "PATCH",
    "EXROUTE": "TRANSDERMAL",
    "EXSTDTC": "2013-02-28",
    "EXENDTC": "2013-03-27",
    "EXSTDY": 1,
    "EXENDY": 28,
    "EXDUR": 28,
    "EXCUMDOS": 2155.3
  },
  {
    "STUDYID": "CDISCPILOT01",
    "DOMAIN": "EX",
    "USUBJID": "01-704-021",
    "EXSEQ": 1,
    "EXTRT": "PLACEBO",
    "EXDOSE": 0,
    "EXDOSU": "mg",
    "EXDOSFRQ": "QD",
    "EXDOSFRM": "PATCH",
    "EXROUTE": "TRANSDERMAL",
    "EXSTDTC": "2013-05-30",
    "EXENDTC": "2013-11-13",
    "EXSTDY": 1,
    "EXENDY": 168,
    "EXDUR": 168,
    "EXCUMDOS": 0
  },
  {
    "STUDYID": "CDISCPILOT01",
    "DOMAIN": "EX",
    "USUBJID": "01-704-022",
    "EXSEQ": 1,
    "EXTRT": "XANOMELINE",
    "EXDOSE": 52.7,
    "EXDOSU": "mg",
    "EXDOSFRQ": "QD",
    "EXDOSFRM": "PATCH",
    "EXROUTE": "TRANSDERMAL",
    "EXSTDTC": "2013-01-29",
    "EXENDTC": "2013-04-08",
    "EXSTDY": 1,
    "EXENDY": 70,
    "EXDUR": 70,
    "EXCUMDOS": 3686.3
  },
  {
    "STUDYID": "CDISCPILOT01",
    "DOMAIN": "EX",
    "USUBJID": "01-704-023",
    "EXSEQ": 1,
    "EXTRT": "XANOMELINE",
    "EXDOSE": 80.4,
    "EXDOSU": "mg",
    "EXDOSFRQ": "QD",
    "EXDOSFRM": "PATCH",
    "EXROUTE": "TRANSDERMAL",
    "EXSTDTC": "2013-09-06",
    "EXENDTC": "2014-01-09",
    "EXSTDY": 1,
    "EXENDY": 126,
    "EXDUR": 126,
    "EXCUMDOS": 10128.3
  },
  {
    "STUDYID": "CDISCPILOT01",
    "DOMAIN": "EX",
    "USUBJID": "01-704-024",
    "EXSEQ": 1,
    "EXTRT": "PLACEBO",
    "EXDOSE": 0,
    "EXDOSU": "mg",
    "EXDOSFRQ": "QD",
    "EXDOSFRM": "PATCH",
    "EXROUTE": "TRANSDERMAL",
    "EXSTDTC": "2013-08-18",
    "EXENDTC": "2014-02-01",
    "EXSTDY": 1,
    "EXENDY": 168,
    "EXDUR": 168,
    "EXCUMDOS": 0
  },
  {
    "STUDYID": "CDISCPILOT01",
    "DOMAIN": "EX",
    "USUBJID": "01-704-025",
    "EXSEQ": 1,
    "EXTRT": "PLACEBO",
    "EXDOSE": 0,
    "EXDOSU": "mg",
    "EXDOSFRQ": "QD",
    "EXDOSFRM": "PATCH",
    "EXROUTE": "TRANSDERMAL",
    "EXSTDTC": "2013-04-05",
    "EXENDTC": "2013-09-19",
    "EXSTDY": 1,
    "EXENDY": 168,
    "EXDUR": 168,
    "EXCUMDOS": 0
  },
  {
    "STUDYID": "CDISCPILOT01",
    "DOMAIN": "EX",
    "USUBJID": "01-705-001",
    "EXSEQ": 1,
    "EXTRT": "XANOMELINE",
    "EXDOSE": 79.9,
    "EXDOSU": "mg",
    "EXDOSFRQ": "QD",
    "EXDOSFRM": "PATCH",
    "EXROUTE": "TRANSDERMAL",
    "EXSTDTC": "2013-08-02",
    "EXENDTC": "2013-11-14",
    "EXSTDY": 1,
    "EXENDY": 105,
    "EXDUR": 105,
    "EXCUMDOS": 8390.2
  },
  {
    "STUDYID": "CDISCPILOT01",
    "DOMAIN": "EX",
    "USUBJID": "01-705-002",
    "EXSEQ": 1,
    "EXTRT": "XANOMELINE",
    "EXDOSE": 79,
    "EXDOSU": "mg",
    "EXDOSFRQ": "QD",
    "EXDOSFRM": "PATCH",
    "EXROUTE": "TRANSDERMAL",
    "EXSTDTC": "2013-08-15",
    "EXENDTC": "2013-09-25",
    "EXSTDY": 1,
    "EXENDY": 42,
    "EXDUR": 42,
    "EXCUMDOS": 3318.2
  },
  {
    "STUDYID": "CDISCPILOT01",
    "DOMAIN": "EX",
    "USUBJID": "01-705-003",
    "EXSEQ": 1,
    "EXTRT": "XANOMELINE",
    "EXDOSE": 80.1,
    "EXDOSU": "mg",
    "EXDOSFRQ": "QD",
    "EXDOSFRM": "PATCH",
    "EXROUTE": "TRANSDERMAL",
    "EXSTDTC": "2013-12-28",
    "EXENDTC": "2014-06-13",
    "EXSTDY": 1,
    "EXENDY": 168,
    "EXDUR": 168,
    "EXCUMDOS": 13464.9
  },
  {
    "STUDYID": "CDISCPILOT01",
    "DOMAIN": "EX",
    "USUBJID": "01-705-004",
    "EXSEQ": 1,
    "EXTRT": "XANOMELINE",
    "EXDOSE": 80.9,
    "EXDOSU": "mg",
    "EXDOSFRQ": "QD",
    "EXDOSFRM": "PATCH",
    "EXROUTE": "TRANSDERMAL",
    "EXSTDTC": "2013-09-08",
    "EXENDTC": "2014-02-22",
    "EXSTDY": 1,
    "EXENDY": 168,
    "EXDUR": 168,
    "EXCUMDOS": 13589.2
  },
  {
    "STUDYID": "CDISCPILOT01",
    "DOMAIN": "EX",
    "USUBJID": "01-705-005",
    "EXSEQ": 1,
    "EXTRT": "XANOMELINE",
    "EXDOSE": 52.5,
    "EXDOSU": "mg",
    "EXDOSFRQ": "QD",
    "EXDOSFRM": "PATCH",
    "EXROUTE": "TRANSDERMAL",
    "EXSTDTC": "2013-05-27",
    "EXENDTC": "2013-06-16",
    "EXSTDY": 1,
    "EXENDY": 21,
    "EXDUR": 21,
    "EXCUMDOS": 1102
  },
  {
    "STUDYID": "CDISCPILOT01",
    "DOMAIN": "EX",
    "USUBJID": "01-705-006",
    "EXSEQ": 1,
    "EXTRT": "XANOMELINE",
    "EXDOSE": 51.4,
    "EXDOSU": "mg",
    "EXDOSFRQ": "QD",
    "EXDOSFRM": "PATCH",
    "EXROUTE": "TRANSDERMAL",
    "EXSTDTC": "2013-12-13",
    "EXENDTC": "2014-03-06",
    "EXSTDY": 1,
    "EXENDY": 84,
    "EXDUR": 84,
    "EXCUMDOS": 4318.4
  },
  {
    "STUDYID": "CDISCPILOT01",
    "DOMAIN": "EX",
    "USUBJID": "01-705-007",
    "EXSEQ": 1,
    "EXTRT": "XANOMELINE",
    "EXDOSE": 51.9,
    "EXDOSU": "mg",
    "EXDOSFRQ": "QD",
    "EXDOSFRM": "PATCH",
    "EXROUTE": "TRANSDERMAL",
    "EXSTDTC": "2013-10-04",
    "EXENDTC": "2013-12-19",
    "EXSTDY": 1,
    "EXENDY": 77,
    "EXDUR": 77,
    "EXCUMDOS": 3993.8
  },
  {
    "STUDYID": "CDISCPILOT01",
    "DOMAIN": "EX",
    "USUBJID": "01-705-008",
    "EXSEQ": 1,
    "EXTRT": "PLACEBO",
    "EXDOSE": 0,
    "EXDOSU": "mg",
    "EXDOSFRQ": "QD",
    "EXDOSFRM": "PATCH",
    "EXROUTE": "TRANSDERMAL",
    "EXSTDTC": "2013-05-16",
    "EXENDTC": "2013-10-30",
    "EXSTDY": 1,
    "EXENDY": 168,
    "EXDUR": 168,
    "EXCUMDOS": 0
  },
  {
    "STUDYID": "CDISCPILOT01",
    "DOMAIN": "EX",
    "USUBJID": "01-705-009",
    "EXSEQ": 1,
    "EXTRT": "PLACEBO",
    "EXDOSE": 0,
    "EXDOSU": "mg",
    "EXDOSFRQ": "QD",
    "EXDOSFRM": "PATCH",
    "EXROUTE": "TRANSDERMAL",
    "EXSTDTC": "2013-09-07",
    "EXENDTC": "2014-02-21",
    "EXSTDY": 1,
    "EXENDY": 168,
    "EXDUR": 168,
    "EXCUMDOS": 0
  },
  {
    "STUDYID": "CDISCPILOT01",
    "DOMAIN": "EX",
    "USUBJID": "01-705-010",
    "EXSEQ": 1,
    "EXTRT": "PLACEBO",
    "EXDOSE": 0,
    "EXDOSU": "mg",
    "EXDOSFRQ": "QD",
    "EXDOSFRM": "PATCH",
    "EXROUTE": "TRANSDERMAL",
    "EXSTDTC": "2013-08-02",
    "EXENDTC": "2014-01-16",
    "EXSTDY": 1,
    "EXENDY": 168,
    "EXDUR": 168,
    "EXCUMDOS": 0
  },
  {
    "STUDYID": "CDISCPILOT01",
    "DOMAIN": "EX",
    "USUBJID": "01-705-011",
    "EXSEQ": 1,
    "EXTRT": "PLACEBO",
    "EXDOSE": 0,
    "EXDOSU": "mg",
    "EXDOSFRQ": "QD",
    "EXDOSFRM": "PATCH",
    "EXROUTE": "TRANSDERMAL",
    "EXSTDTC": "2013-08-26",
    "EXENDTC": "2013-10-13",
    "EXSTDY": 1,
    "EXENDY": 49,
    "EXDUR": 49,
    "EXCUMDOS": 0
  },
  {
    "STUDYID": "CDISCPILOT01",
    "DOMAIN": "EX",
    "USUBJID": "01-705-012",
    "EXSEQ": 1,
    "EXTRT": "PLACEBO",
    "EXDOSE": 0,
    "EXDOSU": "mg",
    "EXDOSFRQ": "QD",
    "EXDOSFRM": "PATCH",
    "EXROUTE": "TRANSDERMAL",
    "EXSTDTC": "2013-08-27",
    "EXENDTC": "2014-02-10",
    "EXSTDY": 1,
    "EXENDY": 168,
    "EXDUR": 168,
    "EXCUMDOS": 0
  },
  {
    "STUDYID": "CDISCPILOT01",
    "DOMAIN": "EX",
    "USUBJID": "01-705-013",
    "EXSEQ": 1,
    "EXTRT": "PLACEBO",
    "EXDOSE": 0,
    "EXDOSU": "mg",
    "EXDOSFRQ": "QD",
    "EXDOSFRM": "PATCH",
    "EXROUTE": "TRANSDERMAL",
    "EXSTDTC": "2013-02-07",
    "EXENDTC": "2013-07-24",
    "EXSTDY": 1,
    "EXENDY": 168,
    "EXDUR": 168,
    "EXCUMDOS": 0
  },
  {
    "STUDYID": "CDISCPILOT01",
    "DOMAIN": "EX",
    "USUBJID": "01-705-014",
    "EXSEQ": 1,
    "EXTRT": "XANOMELINE",
    "EXDOSE": 77.9,
    "EXDOSU": "mg",
    "EXDOSFRQ": "QD",
    "EXDOSFRM": "PATCH",
    "EXROUTE": "TRANSDERMAL",
    "EXSTDTC": "2013-02-23",
    "EXENDTC": "2013-08-09",
    "EXSTDY": 1,
    "EXENDY": 168,
    "EXDUR": 168,
    "EXCUMDOS": 13081.9
  },
  {
    "STUDYID": "CDISCPILOT01",
    "DOMAIN": "EX",
    "USUBJID": "01-706-001",
    "EXSEQ": 1,
    "EXTRT": "XANOMELINE",
    "EXDOSE": 80.4,
    "EXDOSU": "mg",
    "EXDOSFRQ": "QD",
    "EXDOSFRM": "PATCH",
    "EXROUTE": "TRANSDERMAL",
    "EXSTDTC": "2013-01-31",
    "EXENDTC": "2013-04-24",
    "EXSTDY": 1,
    "EXENDY": 84,
    "EXDUR": 84,
    "EXCUMDOS": 6751.8
  },
  {
    "STUDYID": "CDISCPILOT01",
    "DOMAIN": "EX",
    "USUBJID": "01-706-002",
    "EXSEQ": 1,
    "EXTRT": "PLACEBO",
    "EXDOSE": 0,
    "EXDOSU": "mg",
    "EXDOSFRQ": "QD",
    "EXDOSFRM": "PATCH",
    "EXROUTE": "TRANSDERMAL",
    "EXSTDTC": "2013-02-15",
    "EXENDTC": "2013-08-01",
    "EXSTDY": 1,
    "EXENDY": 168,
    "EXDUR": 168,
    "EXCUMDOS": 0
  },
  {
    "STUDYID": "CDISCPILOT01",
    "DOMAIN": "EX",
    "USUBJID": "01-706-003",
    "EXSEQ": 1,
    "EXTRT": "XANOMELINE",
    "EXDOSE": 52,
    "EXDOSU": "mg",
    "EXDOSFRQ": "QD",
    "EXDOSFRM": "PATCH",
    "EXROUTE": "TRANSDERMAL",
    "EXSTDTC": "2013-03-10",
    "EXENDTC": "2013-06-08",
    "EXSTDY": 1,
    "EXENDY": 91,
    "EXDUR": 91,
    "EXCUMDOS": 4729.7
  },
  {
    "STUDYID": "CDISCPILOT01",
    "DOMAIN": "EX",
    "USUBJID": "01-707-001",
    "EXSEQ": 1,
    "EXTRT": "XANOMELINE",
    "EXDOSE": 52.7,
    "EXDOSU": "mg",
    "EXDOSFRQ": "QD",
    "EXDOSFRM": "PATCH",
    "EXROUTE": "TRANSDERMAL",
    "EXSTDTC": "2013-02-11",
    "EXENDTC": "2013-04-28",
    "EXSTDY": 1,
    "EXENDY": 77,
    "EXDUR": 77,
    "EXCUMDOS": 4058.7
  },
  {
    "STUDYID": "CDISCPILOT01",
    "DOMAIN": "EX",
    "USUBJID": "01-707-002",
    "EXSEQ": 1,
    "EXTRT": "PLACEBO",
    "EXDOSE": 0,
    "EXDOSU": "mg",
    "EXDOSFRQ": "QD",
    "EXDOSFRM": "PATCH",
    "EXROUTE": "TRANSDERMAL",
    "EXSTDTC": "2013-08-22",
    "EXENDTC": "2014-02-05",
    "EXSTDY": 1,
    "EXENDY": 168,
    "EXDUR": 168,
    "EXCUMDOS": 0
  },
  {
    "STUDYID": "CDISCPILOT01",
    "DOMAIN": "EX",
    "USUBJID": "01-707-003",
    "EXSEQ": 1,
    "EXTRT": "PLACEBO",
    "EXDOSE": 0,
    "EXDOSU": "mg",
    "EXDOSFRQ": "QD",
    "EXDOSFRM": "PATCH",
    "EXROUTE": "TRANSDERMAL",
    "EXSTDTC": "2013-12-10",
    "EXENDTC": "2014-05-26",
    "EXSTDY": 1,
    "EXENDY": 168,
    "EXDUR": 168,
    "EXCUMDOS": 0
  },
  {
    "STUDYID": "CDISCPILOT01",
    "DOMAIN": "EX",
    "USUBJID": "01-708-001",
    "EXSEQ": 1,
    "EXTRT": "PLACEBO",
    "EXDOSE": 0,
    "EXDOSU": "mg",
    "EXDOSFRQ": "QD",
    "EXDOSFRM": "PATCH",
    "EXROUTE": "TRANSDERMAL",
    "EXSTDTC": "2013-11-10",
    "EXENDTC": "2014-02-08",
    "EXSTDY": 1,
    "EXENDY": 91,
    "EXDUR": 91,
    "EXCUMDOS": 0
  },
  {
    "STUDYID": "CDISCPILOT01",
    "DOMAIN": "EX",
    "USUBJID": "01-708-002",
    "EXSEQ": 1,
    "EXTRT": "XANOMELINE",
    "EXDOSE": 53.2,
    "EXDOSU": "mg",
    "EXDOSFRQ": "QD",
    "EXDOSFRM": "PATCH",
    "EXROUTE": "TRANSDERMAL",
    "EXSTDTC": "2013-08-27",
    "EXENDTC": "2013-09-02",
    "EXSTDY": 1,
    "EXENDY": 7,
    "EXDUR": 7,
    "EXCUMDOS": 372.3
  },
  {
    "STUDYID": "CDISCPILOT01",
    "DOMAIN": "EX",
    "USUBJID": "01-708-003",
    "EXSEQ": 1,
    "EXTRT": "XANOMELINE",
    "EXDOSE": 78.8,
    "EXDOSU": "mg",
    "EXDOSFRQ": "QD",
    "EXDOSFRM": "PATCH",
    "EXROUTE": "TRANSDERMAL",
    "EXSTDTC": "2013-10-28",
    "EXENDTC": "2014-04-13",
    "EXSTDY": 1,
    "EXENDY": 168,
    "EXDUR": 168,
    "EXCUMDOS": 13231.3
  },
  {
    "STUDYID": "CDISCPILOT01",
    "DOMAIN": "EX",
    "USUBJID": "01-708-004",
    "EXSEQ": 1,
    "EXTRT": "XANOMELINE",
    "EXDOSE": 53.4,
    "EXDOSU": "mg",
    "EXDOSFRQ": "QD",
    "EXDOSFRM": "PATCH",
    "EXROUTE": "TRANSDERMAL",
    "EXSTDTC": "2013-01-04",
    "EXENDTC": "2013-01-24",
    "EXSTDY": 1,
    "EXENDY": 21,
    "EXDUR": 21,
    "EXCUMDOS": 1120.8
  },
  {
    "STUDYID": "CDISCPILOT01",
    "DOMAIN": "EX",
    "USUBJID": "01-708-005",
    "EXSEQ": 1,
    "EXTRT": "XANOMELINE",
    "EXDOSE": 53.3,
    "EXDOSU": "mg",
    "EXDOSFRQ": "QD",
    "EXDOSFRM": "PATCH",
    "EXROUTE": "TRANSDERMAL",
    "EXSTDTC": "2013-02-03",
    "EXENDTC": "2013-03-02",
    "EXSTDY": 1,
    "EXENDY": 28,
    "EXDUR": 28,
    "EXCUMDOS": 1492.5
  },
  {
    "STUDYID": "CDISCPILOT01",
    "DOMAIN": "EX",
    "USUBJID": "01-708-006",
    "EXSEQ": 1,
    "EXTRT": "XANOMELINE",
    "EXDOSE": 52.9,
    "EXDOSU": "mg",
    "EXDOSFRQ": "QD",
    "EXDOSFRM": "PATCH",
    "EXROUTE": "TRANSDERMAL",
    "EXSTDTC": "2013-10-06",
    "EXENDTC": "2014-03-22",
    "EXSTDY": 1,
    "EXENDY": 168,
    "EXDUR": 168,
    "EXCUMDOS": 8882.5
  },
  {
    "STUDYID": "CDISCPILOT01",
    "DOMAIN": "EX",
    "USUBJID": "01-708-007",
    "EXSEQ": 1,
    "EXTRT": "XANOMELINE",
    "EXDOSE": 79.5,
    "EXDOSU": "mg",
    "EXDOSFRQ": "QD",
    "EXDOSFRM": "PATCH",
    "EXROUTE": "TRANSDERMAL",
    "EXSTDTC": "2013-05-19",
    "EXENDTC": "2013-11-02",
    "EXSTDY": 1,
    "EXENDY": 168,
    "EXDUR": 168,
    "EXCUMDOS": 13349.9
  },
  {
    "STUDYID": "CDISCPILOT01",
    "DOMAIN": "EX",
    "USUBJID": "01-708-008",
    "EXSEQ": 1,
    "EXTRT": "XANOMELINE",
    "EXDOSE": 80.5,
    "EXDOSU": "mg",
    "EXDOSFRQ": "QD",
    "EXDOSFRM": "PATCH",
    "EXROUTE": "TRANSDERMAL",
    "EXSTDTC": "2013-07-03",
    "EXENDTC": "2013-12-17",
    "EXSTDY": 1,
    "EXENDY": 168,
    "EXDUR": 168,
    "EXCUMDOS": 13526.4
  },
  {
    "STUDYID": "CDISCPILOT01",
    "DOMAIN": "EX",
    "USUBJID": "01-708-009",
    "EXSEQ": 1,
    "EXTRT": "XANOMELINE",
    "EXDOSE": 52.8,
    "EXDOSU": "mg",
    "EXDOSFRQ": "QD",
    "EXDOSFRM": "PATCH",
    "EXROUTE": "TRANSDERMAL",
    "EXSTDTC": "2013-04-16",
    "EXENDTC": "2013-06-17",
    "EXSTDY": 1,
    "EXENDY": 63,
    "EXDUR": 63,
    "EXCUMDOS": 3325.5
  },
  {
    "STUDYID": "CDISCPILOT01",
    "DOMAIN": "EX",
    "USUBJID": "01-708-010",
    "EXSEQ": 1,
    "EXTRT": "XANOMELINE",
    "EXDOSE": 53.3,
    "EXDOSU": "mg",
    "EXDOSFRQ": "QD",
    "EXDOSFRM": "PATCH",
    "EXROUTE": "TRANSDERMAL",
    "EXSTDTC": "2013-07-05",
    "EXENDTC": "2013-08-29",
    "EXSTDY": 1,
    "EXENDY": 56,
    "EXDUR": 56,
    "EXCUMDOS": 2984.4
  },
  {
    "STUDYID": "CDISCPILOT01",
    "DOMAIN": "EX",
    "USUBJID": "01-708-011",
    "EXSEQ": 1,
    "EXTRT": "XANOMELINE",
    "EXDOSE": 52.5,
    "EXDOSU": "mg",
    "EXDOSFRQ": "QD",
    "EXDOSFRM": "PATCH",
    "EXROUTE": "TRANSDERMAL",
    "EXSTDTC": "2013-12-03",
    "EXENDTC": "2014-01-06",
    "EXSTDY": 1,
    "EXENDY": 35,
    "EXDUR": 35,
    "EXCUMDOS": 1839.2
  },
  {
    "STUDYID": "CDISCPILOT01",
    "DOMAIN": "EX",
    "USUBJID": "01-708-012",
    "EXSEQ": 1,
    "EXTRT": "PLACEBO",
    "EXDOSE": 0,
    "EXDOSU": "mg",
    "EXDOSFRQ": "QD",
    "EXDOSFRM": "PATCH",
    "EXROUTE": "TRANSDERMAL",
    "EXSTDTC": "2013-06-08",
    "EXENDTC": "2013-11-22",
    "EXSTDY": 1,
    "EXENDY": 168,
    "EXDUR": 168,
    "EXCUMDOS": 0
  },
  {
    "STUDYID": "CDISCPILOT01",
    "DOMAIN": "EX",
    "USUBJID": "01-708-013",
    "EXSEQ": 1,
    "EXTRT": "XANOMELINE",
    "EXDOSE": 77.8,
    "EXDOSU": "mg",
    "EXDOSFRQ": "QD",
    "EXDOSFRM": "PATCH",
    "EXROUTE": "TRANSDERMAL",
    "EXSTDTC": "2013-04-03",
    "EXENDTC": "2013-08-27",
    "EXSTDY": 1,
    "EXENDY": 147,
    "EXDUR": 147,
    "EXCUMDOS": 11438.4
  },
  {
    "STUDYID": "CDISCPILOT01",
    "DOMAIN": "EX",
    "USUBJID": "01-708-014",
    "EXSEQ": 1,
    "EXTRT": "XANOMELINE",
    "EXDOSE": 53.3,
    "EXDOSU": "mg",
    "EXDOSFRQ": "QD",
    "EXDOSFRM": "PATCH",
    "EXROUTE": "TRANSDERMAL",
    "EXSTDTC": "2013-07-09",
    "EXENDTC": "2013-08-05",
    "EXSTDY": 1,
    "EXENDY": 28,
    "EXDUR": 28,
    "EXCUMDOS": 1493.5
  },
  {
    "STUDYID": "CDISCPILOT01",
    "DOMAIN": "EX",
    "USUBJID": "01-708-015",
    "EXSEQ": 1,
    "EXTRT": "PLACEBO",
    "EXDOSE": 0,
    "EXDOSU": "mg",
    "EXDOSFRQ": "QD",
    "EXDOSFRM": "PATCH",
    "EXROUTE": "TRANSDERMAL",
    "EXSTDTC": "2013-10-05",
    "EXENDTC": "2014-03-21",
    "EXSTDY": 1,
    "EXENDY": 168,
    "EXDUR": 168,
    "EXCUMDOS": 0
  },
  {
    "STUDYID": "CDISCPILOT01",
    "DOMAIN": "EX",
    "USUBJID": "01-708-016",
    "EXSEQ": 1,
    "EXTRT": "XANOMELINE",
    "EXDOSE": 52.8,
    "EXDOSU": "mg",
    "EXDOSFRQ": "QD",
    "EXDOSFRM": "PATCH",
    "EXROUTE": "TRANSDERMAL",
    "EXSTDTC": "2013-02-07",
    "EXENDTC": "2013-03-06",
    "EXSTDY": 1,
    "EXENDY": 28,
    "EXDUR": 28,
    "EXCUMDOS": 1477.9
  },
  {
    "STUDYID": "CDISCPILOT01",
    "DOMAIN": "EX",
    "USUBJID": "01-708-017",
    "EXSEQ": 1,
    "EXTRT": "XANOMELINE",
    "EXDOSE": 78.8,
    "EXDOSU": "mg",
    "EXDOSFRQ": "QD",
    "EXDOSFRM": "PATCH",
    "EXROUTE": "TRANSDERMAL",
    "EXSTDTC": "2013-10-10",
    "EXENDTC": "2013-12-18",
    "EXSTDY": 1,
    "EXENDY": 70,
    "EXDUR": 70,
    "EXCUMDOS": 5519
  },
  {
    "STUDYID": "CDISCPILOT01",
    "DOMAIN": "EX",
    "USUBJID": "01-708-018",
    "EXSEQ": 1,
    "EXTRT": "XANOMELINE",
    "EXDOSE": 80.6,
    "EXDOSU": "mg",
    "EXDOSFRQ": "QD",
    "EXDOSFRM": "PATCH",
    "EXROUTE": "TRANSDERMAL",
    "EXSTDTC": "2013-09-19",
    "EXENDTC": "2013-10-02",
    "EXSTDY": 1,
    "EXENDY": 14,
    "EXDUR": 14,
    "EXCUMDOS": 1129.1
  },
  {
    "STUDYID": "CDISCPILOT01",
    "DOMAIN": "EX",
    "USUBJID": "01-708-019",
    "EXSEQ": 1,
    "EXTRT": "XANOMELINE",
    "EXDOSE": 53.8,
    "EXDOSU": "mg",
    "EXDOSFRQ": "QD",
    "EXDOSFRM": "PATCH",
    "EXROUTE": "TRANSDERMAL",
    "EXSTDTC": "2013-08-30",
    "EXENDTC": "2014-02-13",
    "EXSTDY": 1,
    "EXENDY": 168,
    "EXDUR": 168,
    "EXCUMDOS": 9033.7
  },
  {
    "STUDYID": "CDISCPILOT01",
    "DOMAIN": "EX",
    "USUBJID": "01-708-020",
    "EXSEQ": 1,
    "EXTRT": "PLACEBO",
    "EXDOSE": 0,
    "EXDOSU": "mg",
    "EXDOSFRQ": "QD",
    "EXDOSFRM": "PATCH",
    "EXROUTE": "TRANSDERMAL",
    "EXSTDTC": "2013-07-26",
    "EXENDTC": "2014-01-09",
    "EXSTDY": 1,
    "EXENDY": 168,
    "EXDUR": 168,
    "EXCUMDOS": 0
  },
  {
    "STUDYID": "CDISCPILOT01",
    "DOMAIN": "EX",
    "USUBJID": "01-709-001",
    "EXSEQ": 1,
    "EXTRT": "XANOMELINE",
    "EXDOSE": 79.2,
    "EXDOSU": "mg",
    "EXDOSFRQ": "QD",
    "EXDOSFRM": "PATCH",
    "EXROUTE": "TRANSDERMAL",
    "EXSTDTC": "2013-12-23",
    "EXENDTC": "2014-03-02",
    "EXSTDY": 1,
    "EXENDY": 70,
    "EXDUR": 70,
    "EXCUMDOS": 5545.5
  },
  {
    "STUDYID": "CDISCPILOT01",
    "DOMAIN": "EX",
    "USUBJID": "01-709-002",
    "EXSEQ": 1,
    "EXTRT": "PLACEBO",
    "EXDOSE": 0,
    "EXDOSU": "mg",
    "EXDOSFRQ": "QD",
    "EXDOSFRM": "PATCH",
    "EXROUTE": "TRANSDERMAL",
    "EXSTDTC": "2013-02-22",
    "EXENDTC": "2013-08-08",
    "EXSTDY": 1,
    "EXENDY": 168,
    "EXDUR": 168,
    "EXCUMDOS": 0
  },
  {
    "STUDYID": "CDISCPILOT01",
    "DOMAIN": "EX",
    "USUBJID": "01-709-003",
    "EXSEQ": 1,
    "EXTRT": "XANOMELINE",
    "EXDOSE": 80.8,
    "EXDOSU": "mg",
    "EXDOSFRQ": "QD",
    "EXDOSFRM": "PATCH",
    "EXROUTE": "TRANSDERMAL",
    "EXSTDTC": "2013-10-20",
    "EXENDTC": "2014-04-05",
    "EXSTDY": 1,
    "EXENDY": 168,
    "EXDUR": 168,
    "EXCUMDOS": 13577.7
  },
  {
    "STUDYID": "CDISCPILOT01",
    "DOMAIN": "EX",
    "USUBJID": "01-709-004",
    "EXSEQ": 1,
    "EXTRT": "XANOMELINE",
    "EXDOSE": 80.5,
    "EXDOSU": "mg",
    "EXDOSFRQ": "QD",
    "EXDOSFRM": "PATCH",
    "EXROUTE": "TRANSDERMAL",
    "EXSTDTC": "2013-10-14",
    "EXENDTC": "2014-03-30",
    "EXSTDY": 1,
    "EXENDY": 168,
    "EXDUR": 168,
    "EXCUMDOS": 13530.2
  },
  {
    "STUDYID": "CDISCPILOT01",
    "DOMAIN": "EX",
    "USUBJID": "01-709-005",
    "EXSEQ": 1,
    "EXTRT": "XANOMELINE",
    "EXDOSE": 77.9,
    "EXDOSU": "mg",
    "EXDOSFRQ": "QD",
    "EXDOSFRM": "PATCH",
    "EXROUTE": "TRANSDERMAL",
    "EXSTDTC": "2013-03-13",
    "EXENDTC": "2013-04-16",
    "EXSTDY": 1,
    "EXENDY": 35,
    "EXDUR": 35,
    "EXCUMDOS": 2726.8
  },
  {
    "STUDYID": "CDISCPILOT01",
    "DOMAIN": "EX",
    "USUBJID": "01-709-006",
    "EXSEQ": 1,
    "EXTRT": "XANOMELINE",
    "EXDOSE": 52.2,
    "EXDOSU": "mg",
    "EXDOSFRQ": "QD",
    "EXDOSFRM": "PATCH",
    "EXROUTE": "TRANSDERMAL",
    "EXSTDTC": "2013-04-09",
    "EXENDTC": "2013-09-23",
    "EXSTDY": 1,
    "EXENDY": 168,
    "EXDUR": 168,
    "EXCUMDOS": 8764.2
  },
  {
    "STUDYID": "CDISCPILOT01",
    "DOMAIN": "EX",
    "USUBJID": "01-709-007",
    "EXSEQ": 1,
    "EXTRT": "XANOMELINE",
    "EXDOSE": 53.8,
    "EXDOSU": "mg",
    "EXDOSFRQ": "QD",
    "EXDOSFRM": "PATCH",
    "EXROUTE": "TRANSDERMAL",
    "EXSTDTC": "2013-02-03",
    "EXENDTC": "2013-02-09",
    "EXSTDY": 1,
    "EXENDY": 7,
    "EXDUR": 7,
    "EXCUMDOS": 376.9
  },
  {
    "STUDYID": "CDISCPILOT01",
    "DOMAIN": "EX",
    "USUBJID": "01-709-008",
    "EXSEQ": 1,
    "EXTRT": "PLACEBO",
    "EXDOSE": 0,
    "EXDOSU": "mg",
    "EXDOSFRQ": "QD",
    "EXDOSFRM": "PATCH",
    "EXROUTE": "TRANSDERMAL",
    "EXSTDTC": "2013-06-03",
    "EXENDTC": "2013-11-17",
    "EXSTDY": 1,
    "EXENDY": 168,
    "EXDUR": 168,
    "EXCUMDOS": 0
  },
  {
    "STUDYID": "CDISCPILOT01",
    "DOMAIN": "EX",
    "USUBJID": "01-709-009",
    "EXSEQ": 1,
    "EXTRT": "XANOMELINE",
    "EXDOSE": 51.6,
    "EXDOSU": "mg",
    "EXDOSFRQ": "QD",
    "EXDOSFRM": "PATCH",
    "EXROUTE": "TRANSDERMAL",
    "EXSTDTC": "2013-10-30",
    "EXENDTC": "2013-12-03",
    "EXSTDY": 1,
    "EXENDY": 35,
    "EXDUR": 35,
    "EXCUMDOS": 1807.7
  },
  {
    "STUDYID": "CDISCPILOT01",
    "DOMAIN": "EX",
    "USUBJID": "01-709-010",
    "EXSEQ": 1,
    "EXTRT": "PLACEBO",
    "EXDOSE": 0,
    "EXDOSU": "mg",
    "EXDOSFRQ": "QD",
    "EXDOSFRM": "PATCH",
    "EXROUTE": "TRANSDERMAL",
    "EXSTDTC": "2013-11-20",
    "EXENDTC": "2014-05-06",
    "EXSTDY": 1,
    "EXENDY": 168,
    "EXDUR": 168,
    "EXCUMDOS": 0
  },
  {
    "STUDYID": "CDISCPILOT01",
    "DOMAIN": "EX",
    "USUBJID": "01-709-011",
    "EXSEQ": 1,
    "EXTRT": "XANOMELINE",
    "EXDOSE": 51.3,
    "EXDOSU": "mg",
    "EXDOSFRQ": "QD",
    "EXDOSFRM": "PATCH",
    "EXROUTE": "TRANSDERMAL",
    "EXSTDTC": "2013-12-10",
    "EXENDTC": "2014-02-17",
    "EXSTDY": 1,
    "EXENDY": 70,
    "EXDUR": 70,
    "EXCUMDOS": 3593.9
  },
  {
    "STUDYID": "CDISCPILOT01",
    "DOMAIN": "EX",
    "USUBJID": "01-709-012",
    "EXSEQ": 1,
    "EXTRT": "XANOMELINE",
    "EXDOSE": 51.7,
    "EXDOSU": "mg",
    "EXDOSFRQ": "QD",
    "EXDOSFRM": "PATCH",
    "EXROUTE": "TRANSDERMAL",
    "EXSTDTC": "2013-07-01",
    "EXENDTC": "2013-08-11",
    "EXSTDY": 1,
    "EXENDY": 42,
    "EXDUR": 42,
    "EXCUMDOS": 2171.5
  },
  {
    "STUDYID": "CDISCPILOT01",
    "DOMAIN": "EX",
    "USUBJID": "01-709-013",
    "EXSEQ": 1,
    "EXTRT": "XANOMELINE",
    "EXDOSE": 77.7,
    "EXDOSU": "mg",
    "EXDOSFRQ": "QD",
    "EXDOSFRM": "PATCH",
    "EXROUTE": "TRANSDERMAL",
    "EXSTDTC": "2013-04-06",
    "EXENDTC": "2013-09-20",
    "EXSTDY": 1,
    "EXENDY": 168,
    "EXDUR": 168,
    "EXCUMDOS": 13059.8
  },
  {
    "STUDYID": "CDISCPILOT01",
    "DOMAIN": "EX",
    "USUBJID": "01-709-014",
    "EXSEQ": 1,
    "EXTRT": "XANOMELINE",
    "EXDOSE": 52.7,
    "EXDOSU": "mg",
    "EXDOSFRQ": "QD",
    "EXDOSFRM": "PATCH",
    "EXROUTE": "TRANSDERMAL",
    "EXSTDTC": "2014-01-02",
    "EXENDTC": "2014-01-08",
    "EXSTDY": 1,
    "EXENDY": 7,
    "EXDUR": 7,
    "EXCUMDOS": 369.1
  },
  {
    "STUDYID": "CDISCPILOT01",
    "DOMAIN": "EX",
    "USUBJID": "01-709-015",
    "EXSEQ": 1,
    "EXTRT": "XANOMELINE",
    "EXDOSE": 53.2,
    "EXDOSU": "mg",
    "EXDOSFRQ": "QD",
    "EXDOSFRM": "PATCH",
    "EXROUTE": "TRANSDERMAL",
    "EXSTDTC": "2013-05-04",
    "EXENDTC": "2013-10-18",
    "EXSTDY": 1,
    "EXENDY": 168,
    "EXDUR": 168,
    "EXCUMDOS": 8935.9
  },
  {
    "STUDYID": "CDISCPILOT01",
    "DOMAIN": "EX",
    "USUBJID": "01-709-016",
    "EXSEQ": 1,
    "EXTRT": "XANOMELINE",
    "EXDOSE": 79.4,
    "EXDOSU": "mg",
    "EXDOSFRQ": "QD",
    "EXDOSFRM": "PATCH",
    "EXROUTE": "TRANSDERMAL",
    "EXSTDTC": "2013-04-04",
    "EXENDTC": "2013-07-24",
    "EXSTDY": 1,
    "EXENDY": 112,
    "EXDUR": 112,
    "EXCUMDOS": 8890.7
  },
  {
    "STUDYID": "CDISCPILOT01",
    "DOMAIN": "EX",
    "USUBJID": "01-709-017",
    "EXSEQ": 1,
    "EXTRT": "XANOMELINE",
    "EXDOSE": 80.8,
    "EXDOSU": "mg",
    "EXDOSFRQ": "QD",
    "EXDOSFRM": "PATCH",
    "EXROUTE": "TRANSDERMAL",
    "EXSTDTC": "2013-01-02",
    "EXENDTC": "2013-06-18",
    "EXSTDY": 1,
    "EXENDY": 168,
    "EXDUR": 168,
    "EXCUMDOS": 13574.4
  },
  {
    "STUDYID": "CDISCPILOT01",
    "DOMAIN": "EX",
    "USUBJID": "01-709-018",
    "EXSEQ": 1,
    "EXTRT": "PLACEBO",
    "EXDOSE": 0,
    "EXDOSU": "mg",
    "EXDOSFRQ": "QD",
    "EXDOSFRM": "PATCH",
    "EXROUTE": "TRANSDERMAL",
    "EXSTDTC": "2013-01-30",
    "EXENDTC": "2013-07-16",
    "EXSTDY": 1,
    "EXENDY": 168,
    "EXDUR": 168,
    "EXCUMDOS": 0
  },
  {
    "STUDYID": "CDISCPILOT01",
    "DOMAIN": "EX",
    "USUBJID": "01-709-019",
    "EXSEQ": 1,
    "EXTRT": "XANOMELINE",
    "EXDOSE": 77.7,
    "EXDOSU": "mg",
    "EXDOSFRQ": "QD",
    "EXDOSFRM": "PATCH",
    "EXROUTE": "TRANSDERMAL",
    "EXSTDTC": "2013-11-19",
    "EXENDTC": "2014-02-10",
    "EXSTDY": 1,
    "EXENDY": 84,
    "EXDUR": 84,
    "EXCUMDOS": 6523.4
  },
  {
    "STUDYID": "CDISCPILOT01",
    "DOMAIN": "EX",
    "USUBJID": "01-709-020",
    "EXSEQ": 1,
    "EXTRT": "XANOMELINE",
    "EXDOSE": 52.9,
    "EXDOSU": "mg",
    "EXDOSFRQ": "QD",
    "EXDOSFRM": "PATCH",
    "EXROUTE": "TRANSDERMAL",
    "EXSTDTC": "2013-10-09",
    "EXENDTC": "2013-12-03",
    "EXSTDY": 1,
    "EXENDY": 56,
    "EXDUR": 56,
    "EXCUMDOS": 2960.1
  },
  {
    "STUDYID": "CDISCPILOT01",
    "DOMAIN": "EX",
    "USUBJID": "01-709-021",
    "EXSEQ": 1,
    "EXTRT": "PLACEBO",
    "EXDOSE": 0,
    "EXDOSU": "mg",
    "EXDOSFRQ": "QD",
    "EXDOSFRM": "PATCH",
    "EXROUTE": "TRANSDERMAL",
    "EXSTDTC": "2013-04-08",
    "EXENDTC": "2013-04-14",
    "EXSTDY": 1,
    "EXENDY": 7,
    "EXDUR": 7,
    "EXCUMDOS": 0
  },
  {
    "STUDYID": "CDISCPILOT01",
    "DOMAIN": "EX",
    "USUBJID": "01-709-022",
    "EXSEQ": 1,
    "EXTRT": "XANOMELINE",
    "EXDOSE": 51.9,
    "EXDOSU": "mg",
    "EXDOSFRQ": "QD",
    "EXDOSFRM": "PATCH",
    "EXROUTE": "TRANSDERMAL",
    "EXSTDTC": "2013-05-17",
    "EXENDTC": "2013-07-11",
    "EXSTDY": 1,
    "EXENDY": 56,
    "EXDUR": 56,
    "EXCUMDOS": 2908.4
  },
  {
    "STUDYID": "CDISCPILOT01",
    "DOMAIN": "EX",
    "USUBJID": "01-709-023",
    "EXSEQ": 1,
    "EXTRT": "XANOMELINE",
    "EXDOSE": 53.4,
    "EXDOSU": "mg",
    "EXDOSFRQ": "QD",
    "EXDOSFRM": "PATCH",
    "EXROUTE": "TRANSDERMAL",
    "EXSTDTC": "2013-07-01",
    "EXENDTC": "2013-10-27",
    "EXSTDY": 1,
    "EXENDY": 119,
    "EXDUR": 119,
    "EXCUMDOS": 6357.8
  },
  {
    "STUDYID": "CDISCPILOT01",
    "DOMAIN": "EX",
    "USUBJID": "01-710-001",
    "EXSEQ": 1,
    "EXTRT": "XANOMELINE",
    "EXDOSE": 77,
    "EXDOSU": "mg",
    "EXDOSFRQ": "QD",
    "EXDOSFRM": "PATCH",
    "EXROUTE": "TRANSDERMAL",
    "EXSTDTC": "2013-03-30",
    "EXENDTC": "2013-09-13",
    "EXSTDY": 1,
    "EXENDY": 168,
    "EXDUR": 168,
    "EXCUMDOS": 12932.3
  },
  {
    "STUDYID": "CDISCPILOT01",
    "DOMAIN": "EX",
    "USUBJID": "01-710-002",
    "EXSEQ": 1,
    "EXTRT": "PLACEBO",
    "EXDOSE": 0,
    "EXDOSU": "mg",
    "EXDOSFRQ": "QD",
    "EXDOSFRM": "PATCH",
    "EXROUTE": "TRANSDERMAL",
    "EXSTDTC": "2013-06-28",
    "EXENDTC": "2013-12-12",
    "EXSTDY": 1,
    "EXENDY": 168,
    "EXDUR": 168,
    "EXCUMDOS": 0
  },
  {
    "STUDYID": "CDISCPILOT01",
    "DOMAIN": "EX",
    "USUBJID": "01-710-003",
    "EXSEQ": 1,
    "EXTRT": "XANOMELINE",
    "EXDOSE": 52.2,
    "EXDOSU": "mg",
    "EXDOSFRQ": "QD",
    "EXDOSFRM": "PATCH",
    "EXROUTE": "TRANSDERMAL",
    "EXSTDTC": "2013-11-24",
    "EXENDTC": "2014-05-10",
    "EXSTDY": 1,
    "EXENDY": 168,
    "EXDUR": 168,
    "EXCUMDOS": 8776.2
  },
  {
    "STUDYID": "CDISCPILOT01",
    "DOMAIN": "EX",
    "USUBJID": "01-710-004",
    "EXSEQ": 1,
    "EXTRT": "PLACEBO",
    "EXDOSE": 0,
    "EXDOSU": "mg",
    "EXDOSFRQ": "QD",
    "EXDOSFRM": "PATCH",
    "EXROUTE": "TRANSDERMAL",
    "EXSTDTC": "2013-04-18",
    "EXENDTC": "2013-10-02",
    "EXSTDY": 1,
    "EXENDY": 168,
    "EXDUR": 168,
    "EXCUMDOS": 0
  },
  {
    "STUDYID": "CDISCPILOT01",
    "DOMAIN": "EX",
    "USUBJID": "01-710-005",
    "EXSEQ": 1,
    "EXTRT": "XANOMELINE",
    "EXDOSE": 78.4,
    "EXDOSU": "mg",
    "EXDOSFRQ": "QD",
    "EXDOSFRM": "PATCH",
    "EXROUTE": "TRANSDERMAL",
    "EXSTDTC": "2013-01-22",
    "EXENDTC": "2013-03-04",
    "EXSTDY": 1,
    "EXENDY": 42,
    "EXDUR": 42,
    "EXCUMDOS": 3294.6
  },
  {
    "STUDYID": "CDISCPILOT01",
    "DOMAIN": "EX",
    "USUBJID": "01-710-006",
    "EXSEQ": 1,
    "EXTRT": "PLACEBO",
    "EXDOSE": 0,
    "EXDOSU": "mg",
    "EXDOSFRQ": "QD",
    "EXDOSFRM": "PATCH",
    "EXROUTE": "TRANSDERMAL",
    "EXSTDTC": "2013-04-28",
    "EXENDTC": "2013-08-17",
    "EXSTDY": 1,
    "EXENDY": 112,
    "EXDUR": 112,
    "EXCUMDOS": 0
  },
  {
    "STUDYID": "CDISCPILOT01",
    "DOMAIN": "EX",
    "USUBJID": "01-710-007",
    "EXSEQ": 1,
    "EXTRT": "XANOMELINE",
    "EXDOSE": 77.1,
    "EXDOSU": "mg",
    "EXDOSFRQ": "QD",
    "EXDOSFRM": "PATCH",
    "EXROUTE": "TRANSDERMAL",
    "EXSTDTC": "2013-05-06",
    "EXENDTC": "2013-10-20",
    "EXSTDY": 1,
    "EXENDY": 168,
    "EXDUR": 168,
    "EXCUMDOS": 12956.6
  },
  {
    "STUDYID": "CDISCPILOT01",
    "DOMAIN": "EX",
    "USUBJID": "01-710-008",
    "EXSEQ": 1,
    "EXTRT": "XANOMELINE",
    "EXDOSE": 51.7,
    "EXDOSU": "mg",
    "EXDOSFRQ": "QD",
    "EXDOSFRM": "PATCH",
    "EXROUTE": "TRANSDERMAL",
    "EXSTDTC": "2013-10-27",
    "EXENDTC": "2014-04-05",
    "EXSTDY": 1,
    "EXENDY": 161,
    "EXDUR": 161,
    "EXCUMDOS": 8315.8
  },
  {
    "STUDYID": "CDISCPILOT01",
    "DOMAIN": "EX",
    "USUBJID": "01-710-009",
    "EXSEQ": 1,
    "EXTRT": "XANOMELINE",
    "EXDOSE": 52.4,
    "EXDOSU": "mg",
    "EXDOSFRQ": "QD",
    "EXDOSFRM": "PATCH",
    "EXROUTE": "TRANSDERMAL",
    "EXSTDTC": "2013-10-14",
    "EXENDTC": "2013-12-08",
    "EXSTDY": 1,
    "EXENDY": 56,
    "EXDUR": 56,
    "EXCUMDOS": 2932.9
  },
  {
    "STUDYID": "CDISCPILOT01",
    "DOMAIN": "EX",
    "USUBJID": "01-710-010",
    "EXSEQ": 1,
    "EXTRT": "XANOMELINE",
    "EXDOSE": 51.4,
    "EXDOSU": "mg",
    "EXDOSFRQ": "QD",
    "EXDOSFRM": "PATCH",
    "EXROUTE": "TRANSDERMAL",
    "EXSTDTC": "2013-07-15",
    "EXENDTC": "2013-12-29",
    "EXSTDY": 1,
    "EXENDY": 168,
    "EXDUR": 168,
    "EXCUMDOS": 8639.2
  },
  {
    "STUDYID": "CDISCPILOT01",
    "DOMAIN": "EX",
    "USUBJID": "01-710-011",
    "EXSEQ": 1,
    "EXTRT": "PLACEBO",
    "EXDOSE": 0,
    "EXDOSU": "mg",
    "EXDOSFRQ": "QD",
    "EXDOSFRM": "PATCH",
    "EXROUTE": "TRANSDERMAL",
    "EXSTDTC": "2013-11-16",
    "EXENDTC": "2014-05-02",
    "EXSTDY": 1,
    "EXENDY": 168,
    "EXDUR": 168,
    "EXCUMDOS": 0
  },
  {
    "STUDYID": "CDISCPILOT01",
    "DOMAIN": "EX",
    "USUBJID": "01-710-012",
    "EXSEQ": 1,
    "EXTRT": "XANOMELINE",
    "EXDOSE": 78.2,
    "EXDOSU": "mg",
    "EXDOSFRQ": "QD",
    "EXDOSFRM": "PATCH",
    "EXROUTE": "TRANSDERMAL",
    "EXSTDTC": "2013-07-24",
    "EXENDTC": "2013-08-06",
    "EXSTDY": 1,
    "EXENDY": 14,
    "EXDUR": 14,
    "EXCUMDOS": 1094.9
  },
  {
    "STUDYID": "CDISCPILOT01",
    "DOMAIN": "EX",
    "USUBJID": "01-710-013",
    "EXSEQ": 1,
    "EXTRT": "PLACEBO",
    "EXDOSE": 0,
    "EXDOSU": "mg",
    "EXDOSFRQ": "QD",
    "EXDOSFRM": "PATCH",
    "EXROUTE": "TRANSDERMAL",
    "EXSTDTC": "2013-11-15",
    "EXENDTC": "2014-05-01",
    "EXSTDY": 1,
    "EXENDY": 168,
    "EXDUR": 168,
    "EXCUMDOS": 0
  },
  {
    "STUDYID": "CDISCPILOT01",
    "DOMAIN": "EX",
    "USUBJID": "01-710-014",
    "EXSEQ": 1,
    "EXTRT": "PLACEBO",
    "EXDOSE": 0,
    "EXDOSU": "mg",
    "EXDOSFRQ": "QD",
    "EXDOSFRM": "PATCH",
    "EXROUTE": "TRANSDERMAL",
    "EXSTDTC": "2013-06-14",
    "EXENDTC": "2013-11-28",
    "EXSTDY": 1,
    "EXENDY": 168,
    "EXDUR": 168,
    "EXCUMDOS": 0
  },
  {
    "STUDYID": "CDISCPILOT01",
    "DOMAIN": "EX",
    "USUBJID": "01-710-015",
    "EXSEQ": 1,
    "EXTRT": "PLACEBO",
    "EXDOSE": 0,
    "EXDOSU": "mg",
    "EXDOSFRQ": "QD",
    "EXDOSFRM": "PATCH",
    "EXROUTE": "TRANSDERMAL",
    "EXSTDTC": "2013-07-27",
    "EXENDTC": "2014-01-10",
    "EXSTDY": 1,
    "EXENDY": 168,
    "EXDUR": 168,
    "EXCUMDOS": 0
  },
  {
    "STUDYID": "CDISCPILOT01",
    "DOMAIN": "EX",
    "USUBJID": "01-710-016",
    "EXSEQ": 1,
    "EXTRT": "XANOMELINE",
    "EXDOSE": 81,
    "EXDOSU": "mg",
    "EXDOSFRQ": "QD",
    "EXDOSFRM": "PATCH",
    "EXROUTE": "TRANSDERMAL",
    "EXSTDTC": "2013-03-28",
    "EXENDTC": "2013-09-11",
    "EXSTDY": 1,
    "EXENDY": 168,
    "EXDUR": 168,
    "EXCUMDOS": 13603.4
  },
  {
    "STUDYID": "CDISCPILOT01",
    "DOMAIN": "EX",
    "USUBJID": "01-710-017",
    "EXSEQ": 1,
    "EXTRT": "XANOMELINE",
    "EXDOSE": 51.4,
    "EXDOSU": "mg",
    "EXDOSFRQ": "QD",
    "EXDOSFRM": "PATCH",
    "EXROUTE": "TRANSDERMAL",
    "EXSTDTC": "2013-08-25",
    "EXENDTC": "2013-10-05",
    "EXSTDY": 1,
    "EXENDY": 42,
    "EXDUR": 42,
    "EXCUMDOS": 2157.2
  },
  {
    "STUDYID": "CDISCPILOT01",
    "DOMAIN": "EX",
    "USUBJID": "01-710-018",
    "EXSEQ": 1,
    "EXTRT": "PLACEBO",
    "EXDOSE": 0,
    "EXDOSU": "mg",
    "EXDOSFRQ": "QD",
    "EXDOSFRM": "PATCH",
    "EXROUTE": "TRANSDERMAL",
    "EXSTDTC": "2013-08-28",
    "EXENDTC": "2014-01-07",
    "EXSTDY": 1,
    "EXENDY": 133,
    "EXDUR": 133,
    "EXCUMDOS": 0
  },
  {
    "STUDYID": "CDISCPILOT01",
    "DOMAIN": "EX",
    "USUBJID": "01-710-019",
    "EXSEQ": 1,
    "EXTRT": "XANOMELINE",
    "EXDOSE": 78.6,
    "EXDOSU": "mg",
    "EXDOSFRQ": "QD",
    "EXDOSFRM": "PATCH",
    "EXROUTE": "TRANSDERMAL",
    "EXSTDTC": "2013-02-25",
    "EXENDTC": "2013-03-24",
    "EXSTDY": 1,
    "EXENDY": 28,
    "EXDUR": 28,
    "EXCUMDOS": 2201
  },
  {
    "STUDYID": "CDISCPILOT01",
    "DOMAIN": "EX",
    "USUBJID": "01-710-020",
    "EXSEQ": 1,
    "EXTRT": "PLACEBO",
    "EXDOSE": 0,
    "EXDOSU": "mg",
    "EXDOSFRQ": "QD",
    "EXDOSFRM": "PATCH",
    "EXROUTE": "TRANSDERMAL",
    "EXSTDTC": "2013-05-22",
    "EXENDTC": "2013-11-05",
    "EXSTDY": 1,
    "EXENDY": 168,
    "EXDUR": 168,
    "EXCUMDOS": 0
  },
  {
    "STUDYID": "CDISCPILOT01",
    "DOMAIN": "EX",
    "USUBJID": "01-710-021",
    "EXSEQ": 1,
    "EXTRT": "PLACEBO",
    "EXDOSE": 0,
    "EXDOSU": "mg",
    "EXDOSFRQ": "QD",
    "EXDOSFRM": "PATCH",
    "EXROUTE": "TRANSDERMAL",
    "EXSTDTC": "2013-07-03",
    "EXENDTC": "2013-12-17",
    "EXSTDY": 1,
    "EXENDY": 168,
    "EXDUR": 168,
    "EXCUMDOS": 0
  },
  {
    "STUDYID": "CDISCPILOT01",
    "DOMAIN": "EX",
    "USUBJID": "01-710-022",
    "EXSEQ": 1,
    "EXTRT": "XANOMELINE",
    "EXDOSE": 51.8,
    "EXDOSU": "mg",
    "EXDOSFRQ": "QD",
    "EXDOSFRM": "PATCH",
    "EXROUTE": "TRANSDERMAL",
    "EXSTDTC": "2013-03-05",
    "EXENDTC": "2013-08-19",
    "EXSTDY": 1,
    "EXENDY": 168,
    "EXDUR": 168,
    "EXCUMDOS": 8700.7
  },
  {
    "STUDYID": "CDISCPILOT01",
    "DOMAIN": "EX",
    "USUBJID": "01-710-023",
    "EXSEQ": 1,
    "EXTRT": "PLACEBO",
    "EXDOSE": 0,
    "EXDOSU": "mg",
    "EXDOSFRQ": "QD",
    "EXDOSFRM": "PATCH",
    "EXROUTE": "TRANSDERMAL",
    "EXSTDTC": "2013-05-11",
    "EXENDTC": "2013-10-25",
    "EXSTDY": 1,
    "EXENDY": 168,
    "EXDUR": 168,
    "EXCUMDOS": 0
  },
  {
    "STUDYID": "CDISCPILOT01",
    "DOMAIN": "EX",
    "USUBJID": "01-710-024",
    "EXSEQ": 1,
    "EXTRT": "XANOMELINE",
    "EXDOSE": 52,
    "EXDOSU": "mg",
    "EXDOSFRQ": "QD",
    "EXDOSFRM": "PATCH",
    "EXROUTE": "TRANSDERMAL",
    "EXSTDTC": "2013-09-18",
    "EXENDTC": "2014-01-14",
    "EXSTDY": 1,
    "EXENDY": 119,
    "EXDUR": 119,
    "EXCUMDOS": 6183.7
  },
  {
    "STUDYID": "CDISCPILOT01",
    "DOMAIN": "EX",
    "USUBJID": "01-710-025",
    "EXSEQ": 1,
    "EXTRT": "XANOMELINE",
    "EXDOSE": 52,
    "EXDOSU": "mg",
    "EXDOSFRQ": "QD",
    "EXDOSFRM": "PATCH",
    "EXROUTE": "TRANSDERMAL",
    "EXSTDTC": "2013-09-22",
    "EXENDTC": "2014-03-08",
    "EXSTDY": 1,
    "EXENDY": 168,
    "EXDUR": 168,
    "EXCUMDOS": 8730.1
  },
  {
    "STUDYID": "CDISCPILOT01",
    "DOMAIN": "EX",
    "USUBJID": "01-710-026",
    "EXSEQ": 1,
    "EXTRT": "XANOMELINE",
    "EXDOSE": 79.4,
    "EXDOSU": "mg",
    "EXDOSFRQ": "QD",
    "EXDOSFRM": "PATCH",
    "EXROUTE": "TRANSDERMAL",
    "EXSTDTC": "2013-02-15",
    "EXENDTC": "2013-08-01",
    "EXSTDY": 1,
    "EXENDY": 168,
    "EXDUR": 168,
    "EXCUMDOS": 13345.6
  },
  {
    "STUDYID": "CDISCPILOT01",
    "DOMAIN": "EX",
    "USUBJID": "01-710-027",
    "EXSEQ": 1,
    "EXTRT": "XANOMELINE",
    "EXDOSE": 53,
    "EXDOSU": "mg",
    "EXDOSFRQ": "QD",
    "EXDOSFRM": "PATCH",
    "EXROUTE": "TRANSDERMAL",
    "EXSTDTC": "2013-03-09",
    "EXENDTC": "2013-04-19",
    "EXSTDY": 1,
    "EXENDY": 42,
    "EXDUR": 42,
    "EXCUMDOS": 2224.7
  },
  {
    "STUDYID": "CDISCPILOT01",
    "DOMAIN": "EX",
    "USUBJID": "01-710-028",
    "EXSEQ": 1,
    "EXTRT": "XANOMELINE",
    "EXDOSE": 78.9,
    "EXDOSU": "mg",
    "EXDOSFRQ": "QD",
    "EXDOSFRM": "PATCH",
    "EXROUTE": "TRANSDERMAL",
    "EXSTDTC": "2013-08-22",
    "EXENDTC": "2014-02-05",
    "EXSTDY": 1,
    "EXENDY": 168,
    "EXDUR": 168,
    "EXCUMDOS": 13253.7
  },
  {
    "STUDYID": "CDISCPILOT01",
    "DOMAIN": "EX",
    "USUBJID": "01-710-029",
    "EXSEQ": 1,
    "EXTRT": "PLACEBO",
    "EXDOSE": 0,
    "EXDOSU": "mg",
    "EXDOSFRQ": "QD",
    "EXDOSFRM": "PATCH",
    "EXROUTE": "TRANSDERMAL",
    "EXSTDTC": "2013-10-04",
    "EXENDTC": "2013-11-21",
    "EXSTDY": 1,
    "EXENDY": 49,
    "EXDUR": 49,
    "EXCUMDOS": 0
  },
  {
    "STUDYID": "CDISCPILOT01",
    "DOMAIN": "EX",
    "USUBJID": "01-711-001",
    "EXSEQ": 1,
    "EXTRT": "PLACEBO",
    "EXDOSE": 0,
    "EXDOSU": "mg",
    "EXDOSFRQ": "QD",
    "EXDOSFRM": "PATCH",
    "EXROUTE": "TRANSDERMAL",
    "EXSTDTC": "2013-08-06",
    "EXENDTC": "2013-09-16",
    "EXSTDY": 1,
    "EXENDY": 42,
    "EXDUR": 42,
    "EXCUMDOS": 0
  },
  {
    "STUDYID": "CDISCPILOT01",
    "DOMAIN": "EX",
    "USUBJID": "01-711-002",
    "EXSEQ": 1,
    "EXTRT": "PLACEBO",
    "EXDOSE": 0,
    "EXDOSU": "mg",
    "EXDOSFRQ": "QD",
    "EXDOSFRM": "PATCH",
    "EXROUTE": "TRANSDERMAL",
    "EXSTDTC": "2013-01-03",
    "EXENDTC": "2013-06-19",
    "EXSTDY": 1,
    "EXENDY": 168,
    "EXDUR": 168,
    "EXCUMDOS": 0
  },
  {
    "STUDYID": "CDISCPILOT01",
    "DOMAIN": "EX",
    "USUBJID": "01-711-003",
    "EXSEQ": 1,
    "EXTRT": "XANOMELINE",
    "EXDOSE": 80.8,
    "EXDOSU": "mg",
    "EXDOSFRQ": "QD",
    "EXDOSFRM": "PATCH",
    "EXROUTE": "TRANSDERMAL",
    "EXSTDTC": "2013-11-19",
    "EXENDTC": "2013-12-23",
    "EXSTDY": 1,
    "EXENDY": 35,
    "EXDUR": 35,
    "EXCUMDOS": 2829.2
  },
  {
    "STUDYID": "CDISCPILOT01",
    "DOMAIN": "EX",
    "USUBJID": "01-711-004",
    "EXSEQ": 1,
    "EXTRT": "XANOMELINE",
    "EXDOSE": 52.4,
    "EXDOSU": "mg",
    "EXDOSFRQ": "QD",
    "EXDOSFRM": "PATCH",
    "EXROUTE": "TRANSDERMAL",
    "EXSTDTC": "2013-10-02",
    "EXENDTC": "2013-10-22",
    "EXSTDY": 1,
    "EXENDY": 21,
    "EXDUR": 21,
    "EXCUMDOS": 1101.2
  },
  {
    "STUDYID": "CDISCPILOT01",
    "DOMAIN": "EX",
    "USUBJID": "01-713-001",
    "EXSEQ": 1,
    "EXTRT": "PLACEBO",
    "EXDOSE": 0,
    "EXDOSU": "mg",
    "EXDOSFRQ": "QD",
    "EXDOSFRM": "PATCH",
    "EXROUTE": "TRANSDERMAL",
    "EXSTDTC": "2013-01-03",
    "EXENDTC": "2013-04-17",
    "EXSTDY": 1,
    "EXENDY": 105,
    "EXDUR": 105,
    "EXCUMDOS": 0
  },
  {
    "STUDYID": "CDISCPILOT01",
    "DOMAIN": "EX",
    "USUBJID": "01-713-002",
    "EXSEQ": 1,
    "EXTRT": "XANOMELINE",
    "EXDOSE": 52.5,
    "EXDOSU": "mg",
    "EXDOSFRQ": "QD",
    "EXDOSFRM": "PATCH",
    "EXROUTE": "TRANSDERMAL",
    "EXSTDTC": "2013-05-27",
    "EXENDTC": "2013-11-10",
    "EXSTDY": 1,
    "EXENDY": 168,
    "EXDUR": 168,
    "EXCUMDOS": 8813.5
  },
  {
    "STUDYID": "CDISCPILOT01",
    "DOMAIN": "EX",
    "USUBJID": "01-713-003",
    "EXSEQ": 1,
    "EXTRT": "XANOMELINE",
    "EXDOSE": 80.8,
    "EXDOSU": "mg",
    "EXDOSFRQ": "QD",
    "EXDOSFRM": "PATCH",
    "EXROUTE": "TRANSDERMAL",
    "EXSTDTC": "2013-09-19",
    "EXENDTC": "2014-03-05",
    "EXSTDY": 1,
    "EXENDY": 168,
    "EXDUR": 168,
    "EXCUMDOS": 13575
  },
  {
    "STUDYID": "CDISCPILOT01",
    "DOMAIN": "EX",
    "USUBJID": "01-713-004",
    "EXSEQ": 1,
    "EXTRT": "XANOMELINE",
    "EXDOSE": 78.6,
    "EXDOSU": "mg",
    "EXDOSFRQ": "QD",
    "EXDOSFRM": "PATCH",
    "EXROUTE": "TRANSDERMAL",
    "EXSTDTC": "2013-06-21",
    "EXENDTC": "2013-11-14",
    "EXSTDY": 1,
    "EXENDY": 147,
    "EXDUR": 147,
    "EXCUMDOS": 11552.4
  },
  {
    "STUDYID": "CDISCPILOT01",
    "DOMAIN": "EX",
    "USUBJID": "01-713-005",
    "EXSEQ": 1,
    "EXTRT": "PLACEBO",
    "EXDOSE": 0,
    "EXDOSU": "mg",
    "EXDOSFRQ": "QD",
    "EXDOSFRM": "PATCH",
    "EXROUTE": "TRANSDERMAL",
    "EXSTDTC": "2013-07-12",
    "EXENDTC": "2013-11-14",
    "EXSTDY": 1,
    "EXENDY": 126,
    "EXDUR": 126,
    "EXCUMDOS": 0
  },
  {
    "STUDYID": "CDISCPILOT01",
    "DOMAIN": "EX",
    "USUBJID": "01-713-006",
    "EXSEQ": 1,
    "EXTRT": "XANOMELINE",
    "EXDOSE": 77.8,
    "EXDOSU": "mg",
    "EXDOSFRQ": "QD",
    "EXDOSFRM": "PATCH",
    "EXROUTE": "TRANSDERMAL",
    "EXSTDTC": "2013-10-23",
    "EXENDTC": "2013-11-12",
    "EXSTDY": 1,
    "EXENDY": 21,
    "EXDUR": 21,
    "EXCUMDOS": 1633.2
  },
  {
    "STUDYID": "CDISCPILOT01",
    "DOMAIN": "EX",
    "USUBJID": "01-713-007",
    "EXSEQ": 1,
    "EXTRT": "PLACEBO",
    "EXDOSE": 0,
    "EXDOSU": "mg",
    "EXDOSFRQ": "QD",
    "EXDOSFRM": "PATCH",
    "EXROUTE": "TRANSDERMAL",
    "EXSTDTC": "2013-04-23",
    "EXENDTC": "2013-06-24",
    "EXSTDY": 1,
    "EXENDY": 63,
    "EXDUR": 63,
    "EXCUMDOS": 0
  },
  {
    "STUDYID": "CDISCPILOT01",
    "DOMAIN": "EX",
    "USUBJID": "01-713-008",
    "EXSEQ": 1,
    "EXTRT": "XANOMELINE",
    "EXDOSE": 53,
    "EXDOSU": "mg",
    "EXDOSFRQ": "QD",
    "EXDOSFRM": "PATCH",
    "EXROUTE": "TRANSDERMAL",
    "EXSTDTC": "2013-12-08",
    "EXENDTC": "2014-02-15",
    "EXSTDY": 1,
    "EXENDY": 70,
    "EXDUR": 70,
    "EXCUMDOS": 3710.9
  },
  {
    "STUDYID": "CDISCPILOT01",
    "DOMAIN": "EX",
    "USUBJID": "01-714-001",
    "EXSEQ": 1,
    "EXTRT": "PLACEBO",
    "EXDOSE": 0,
    "EXDOSU": "mg",
    "EXDOSFRQ": "QD",
    "EXDOSFRM": "PATCH",
    "EXROUTE": "TRANSDERMAL",
    "EXSTDTC": "2013-10-06",
    "EXENDTC": "2013-11-02",
    "EXSTDY": 1,
    "EXENDY": 28,
    "EXDUR": 28,
    "EXCUMDOS": 0
  },
  {
    "STUDYID": "CDISCPILOT01",
    "DOMAIN": "EX",
    "USUBJID": "01-714-002",
    "EXSEQ": 1,
    "EXTRT": "XANOMELINE",
    "EXDOSE": 54,
    "EXDOSU": "mg",
    "EXDOSFRQ": "QD",
    "EXDOSFRM": "PATCH",
    "EXROUTE": "TRANSDERMAL",
    "EXSTDTC": "2013-10-26",
    "EXENDTC": "2013-11-29",
    "EXSTDY": 1,
    "EXENDY": 35,
    "EXDUR": 35,
    "EXCUMDOS": 1888.7
  },
  {
    "STUDYID": "CDISCPILOT01",
    "DOMAIN": "EX",
    "USUBJID": "01-714-003",
    "EXSEQ": 1,
    "EXTRT": "XANOMELINE",
    "EXDOSE": 53,
    "EXDOSU": "mg",
    "EXDOSFRQ": "QD",
    "EXDOSFRM": "PATCH",
    "EXROUTE": "TRANSDERMAL",
    "EXSTDTC": "2013-10-24",
    "EXENDTC": "2014-04-09",
    "EXSTDY": 1,
    "EXENDY": 168,
    "EXDUR": 168,
    "EXCUMDOS": 8897.8
  },
  {
    "STUDYID": "CDISCPILOT01",
    "DOMAIN": "EX",
    "USUBJID": "01-715-001",
    "EXSEQ": 1,
    "EXTRT": "XANOMELINE",
    "EXDOSE": 77.6,
    "EXDOSU": "mg",
    "EXDOSFRQ": "QD",
    "EXDOSFRM": "PATCH",
    "EXROUTE": "TRANSDERMAL",
    "EXSTDTC": "2013-08-01",
    "EXENDTC": "2014-01-15",
    "EXSTDY": 1,
    "EXENDY": 168,
    "EXDUR": 168,
    "EXCUMDOS": 13028.6
  },
  {
    "STUDYID": "CDISCPILOT01",
    "DOMAIN": "EX",
    "USUBJID": "01-715-002",
    "EXSEQ": 1,
    "EXTRT": "XANOMELINE",
    "EXDOSE": 81,
    "EXDOSU": "mg",
    "EXDOSFRQ": "QD",
    "EXDOSFRM": "PATCH",
    "EXROUTE": "TRANSDERMAL",
    "EXSTDTC": "2013-05-30",
    "EXENDTC": "2013-09-11",
    "EXSTDY": 1,
    "EXENDY": 105,
    "EXDUR": 105,
    "EXCUMDOS": 8501.1
  },
  {
    "STUDYID": "CDISCPILOT01",
    "DOMAIN": "EX",
    "USUBJID": "01-715-003",
    "EXSEQ": 1,
    "EXTRT": "PLACEBO",
    "EXDOSE": 0,
    "EXDOSU": "mg",
    "EXDOSFRQ": "QD",
    "EXDOSFRM": "PATCH",
    "EXROUTE": "TRANSDERMAL",
    "EXSTDTC": "2013-10-16",
    "EXENDTC": "2013-11-26",
    "EXSTDY": 1,
    "EXENDY": 42,
    "EXDUR": 42,
    "EXCUMDOS": 0
  },
  {
    "STUDYID": "CDISCPILOT01",
    "DOMAIN": "EX",
    "USUBJID": "01-715-004",
    "EXSEQ": 1,
    "EXTRT": "PLACEBO",
    "EXDOSE": 0,
    "EXDOSU": "mg",
    "EXDOSFRQ": "QD",
    "EXDOSFRM": "PATCH",
    "EXROUTE": "TRANSDERMAL",
    "EXSTDTC": "2013-10-21",
    "EXENDTC": "2014-04-06",
    "EXSTDY": 1,
    "EXENDY": 168,
    "EXDUR": 168,
    "EXCUMDOS": 0
  },
  {
    "STUDYID": "CDISCPILOT01",
    "DOMAIN": "EX",
    "USUBJID": "01-715-005",
    "EXSEQ": 1,
    "EXTRT": "PLACEBO",
    "EXDOSE": 0,
    "EXDOSU": "mg",
    "EXDOSFRQ": "QD",
    "EXDOSFRM": "PATCH",
    "EXROUTE": "TRANSDERMAL",
    "EXSTDTC": "2013-12-08",
    "EXENDTC": "2014-02-15",
    "EXSTDY": 1,
    "EXENDY": 70,
    "EXDUR": 70,
    "EXCUMDOS": 0
  },
  {
    "STUDYID": "CDISCPILOT01",
    "DOMAIN": "EX",
    "USUBJID": "01-715-006",
    "EXSEQ": 1,
    "EXTRT": "XANOMELINE",
    "EXDOSE": 52.4,
    "EXDOSU": "mg",
    "EXDOSFRQ": "QD",
    "EXDOSFRM": "PATCH",
    "EXROUTE": "TRANSDERMAL",
    "EXSTDTC": "2013-02-08",
    "EXENDTC": "2013-04-11",
    "EXSTDY": 1,
    "EXENDY": 63,
    "EXDUR": 63,
    "EXCUMDOS": 3301.7
  },
  {
    "STUDYID": "CDISCPILOT01",
    "DOMAIN": "EX",
    "USUBJID": "01-715-007",
    "EXSEQ": 1,
    "EXTRT": "PLACEBO",
    "EXDOSE": 0,
    "EXDOSU": "mg",
    "EXDOSFRQ": "QD",
    "EXDOSFRM": "PATCH",
    "EXROUTE": "TRANSDERMAL",
    "EXSTDTC": "2013-11-07",
    "EXENDTC": "2014-04-23",
    "EXSTDY": 1,
    "EXENDY": 168,
    "EXDUR": 168,
    "EXCUMDOS": 0
  },
  {
    "STUDYID": "CDISCPILOT01",
    "DOMAIN": "EX",
    "USUBJID": "01-716-001",
    "EXSEQ": 1,
    "EXTRT": "XANOMELINE",
    "EXDOSE": 53.5,
    "EXDOSU": "mg",
    "EXDOSFRQ": "QD",
    "EXDOSFRM": "PATCH",
    "EXROUTE": "TRANSDERMAL",
    "EXSTDTC": "2013-05-19",
    "EXENDTC": "2013-06-08",
    "EXSTDY": 1,
    "EXENDY": 21,
    "EXDUR": 21,
    "EXCUMDOS": 1123
  },
  {
    "STUDYID": "CDISCPILOT01",
    "DOMAIN": "EX",
    "USUBJID": "01-716-002",
    "EXSEQ": 1,
    "EXTRT": "XANOMELINE",
    "EXDOSE": 51.3,
    "EXDOSU": "mg",
    "EXDOSFRQ": "QD",
    "EXDOSFRM": "PATCH",
    "EXROUTE": "TRANSDERMAL",
    "EXSTDTC": "2013-08-27",
    "EXENDTC": "2013-10-21",
    "EXSTDY": 1,
    "EXENDY": 56,
    "EXDUR": 56,
    "EXCUMDOS": 2875
  },
  {
    "STUDYID": "CDISCPILOT01",
    "DOMAIN": "EX",
    "USUBJID": "01-716-003",
    "EXSEQ": 1,
    "EXTRT": "PLACEBO",
    "EXDOSE": 0,
    "EXDOSU": "mg",
    "EXDOSFRQ": "QD",
    "EXDOSFRM": "PATCH",
    "EXROUTE": "TRANSDERMAL",
    "EXSTDTC": "2013-11-13",
    "EXENDTC": "2014-04-29",
    "EXSTDY": 1,
    "EXENDY": 168,
    "EXDUR": 168,
    "EXCUMDOS": 0
  },
  {
    "STUDYID": "CDISCPILOT01",
    "DOMAIN": "EX",
    "USUBJID": "01-716-004",
    "EXSEQ": 1,
    "EXTRT": "XANOMELINE",
    "EXDOSE": 77.3,
    "EXDOSU": "mg",
    "EXDOSFRQ": "QD",
    "EXDOSFRM": "PATCH",
    "EXROUTE": "TRANSDERMAL",
    "EXSTDTC": "2013-09-08",
    "EXENDTC": "2014-02-22",
    "EXSTDY": 1,
    "EXENDY": 168,
    "EXDUR": 168,
    "EXCUMDOS": 12986.5
  },
  {
    "STUDYID": "CDISCPILOT01",
    "DOMAIN": "EX",
    "USUBJID": "01-716-005",
    "EXSEQ": 1,
    "EXTRT": "XANOMELINE",
    "EXDOSE": 77,
    "EXDOSU": "mg",
    "EXDOSFRQ": "QD",
    "EXDOSFRM": "PATCH",
    "EXROUTE": "TRANSDERMAL",
    "EXSTDTC": "2013-08-31",
    "EXENDTC": "2013-09-13",
    "EXSTDY": 1,
    "EXENDY": 14,
    "EXDUR": 14,
    "EXCUMDOS": 1078.2
  },
  {
    "STUDYID": "CDISCPILOT01",
    "DOMAIN": "EX",
    "USUBJID": "01-716-006",
    "EXSEQ": 1,
    "EXTRT": "XANOMELINE",
    "EXDOSE": 78.4,
    "EXDOSU": "mg",
    "EXDOSFRQ": "QD",
    "EXDOSFRM": "PATCH",
    "EXROUTE": "TRANSDERMAL",
    "EXSTDTC": "2013-11-10",
    "EXENDTC": "2014-04-19",
    "EXSTDY": 1,
    "EXENDY": 161,
    "EXDUR": 161,
    "EXCUMDOS": 12627.9
  },
  {
    "STUDYID": "CDISCPILOT01",
    "DOMAIN": "EX",
    "USUBJID": "01-716-007",
    "EXSEQ": 1,
    "EXTRT": "PLACEBO",
    "EXDOSE": 0,
    "EXDOSU": "mg",
    "EXDOSFRQ": "QD",
    "EXDOSFRM": "PATCH",
    "EXROUTE": "TRANSDERMAL",
    "EXSTDTC": "2013-03-18",
    "EXENDTC": "2013-09-01",
    "EXSTDY": 1,
    "EXENDY": 168,
    "EXDUR": 168,
    "EXCUMDOS": 0
  },
  {
    "STUDYID": "CDISCPILOT01",
    "DOMAIN": "EX",
    "USUBJID": "01-716-008",
    "EXSEQ": 1,
    "EXTRT": "XANOMELINE",
    "EXDOSE": 78.4,
    "EXDOSU": "mg",
    "EXDOSFRQ": "QD",
    "EXDOSFRM": "PATCH",
    "EXROUTE": "TRANSDERMAL",
    "EXSTDTC": "2013-04-22",
    "EXENDTC": "2013-06-23",
    "EXSTDY": 1,
    "EXENDY": 63,
    "EXDUR": 63,
    "EXCUMDOS": 4940
  },
  {
    "STUDYID": "CDISCPILOT01",
    "DOMAIN": "EX",
    "USUBJID": "01-716-009",
    "EXSEQ": 1,
    "EXTRT": "XANOMELINE",
    "EXDOSE": 80,
    "EXDOSU": "mg",
    "EXDOSFRQ": "QD",
    "EXDOSFRM": "PATCH",
    "EXROUTE": "TRANSDERMAL",
    "EXSTDTC": "2013-09-23",
    "EXENDTC": "2014-02-09",
    "EXSTDY": 1,
    "EXENDY": 140,
    "EXDUR": 140,
    "EXCUMDOS": 11193.8
  },
  {
    "STUDYID": "CDISCPILOT01",
    "DOMAIN": "EX",
    "USUBJID": "01-716-010",
    "EXSEQ": 1,
    "EXTRT": "XANOMELINE",
    "EXDOSE": 77.1,
    "EXDOSU": "mg",
    "EXDOSFRQ": "QD",
    "EXDOSFRM": "PATCH",
    "EXROUTE": "TRANSDERMAL",
    "EXSTDTC": "2013-12-28",
    "EXENDTC": "2014-04-25",
    "EXSTDY": 1,
    "EXENDY": 119,
    "EXDUR": 119,
    "EXCUMDOS": 9177.9
  },
  {
    "STUDYID": "CDISCPILOT01",
    "DOMAIN": "EX",
    "USUBJID": "01-716-011",
    "EXSEQ": 1,
    "EXTRT": "XANOMELINE",
    "EXDOSE": 78.2,
    "EXDOSU": "mg",
    "EXDOSFRQ": "QD",
    "EXDOSFRM": "PATCH",
    "EXROUTE": "TRANSDERMAL",
    "EXSTDTC": "2013-12-30",
    "EXENDTC": "2014-01-26",
    "EXSTDY": 1,
    "EXENDY": 28,
    "EXDUR": 28,
    "EXCUMDOS": 2190
  },
  {
    "STUDYID": "CDISCPILOT01",
    "DOMAIN": "EX",
    "USUBJID": "01-716-012",
    "EXSEQ": 1,
    "EXTRT": "PLACEBO",
    "EXDOSE": 0,
    "EXDOSU": "mg",
    "EXDOSFRQ": "QD",
    "EXDOSFRM": "PATCH",
    "EXROUTE": "TRANSDERMAL",
    "EXSTDTC": "2013-11-21",
    "EXENDTC": "2014-01-08",
    "EXSTDY": 1,
    "EXENDY": 49,
    "EXDUR": 49,
    "EXCUMDOS": 0
  },
  {
    "STUDYID": "CDISCPILOT01",
    "DOMAIN": "EX",
    "USUBJID": "01-716-013",
    "EXSEQ": 1,
    "EXTRT": "XANOMELINE",
    "EXDOSE": 52.2,
    "EXDOSU": "mg",
    "EXDOSFRQ": "QD",
    "EXDOSFRM": "PATCH",
    "EXROUTE": "TRANSDERMAL",
    "EXSTDTC": "2013-11-19",
    "EXENDTC": "2014-01-13",
    "EXSTDY": 1,
    "EXENDY": 56,
    "EXDUR": 56,
    "EXCUMDOS": 2921.2
  },
  {
    "STUDYID": "CDISCPILOT01",
    "DOMAIN": "EX",
    "USUBJID": "01-716-014",
    "EXSEQ": 1,
    "EXTRT": "XANOMELINE",
    "EXDOSE": 78.6,
    "EXDOSU": "mg",
    "EXDOSFRQ": "QD",
    "EXDOSFRM": "PATCH",
    "EXROUTE": "TRANSDERMAL",
    "EXSTDTC": "2013-12-26",
    "EXENDTC": "2014-01-08",
    "EXSTDY": 1,
    "EXENDY": 14,
    "EXDUR": 14,
    "EXCUMDOS": 1100.3
  },
  {
    "STUDYID": "CDISCPILOT01",
    "DOMAIN": "EX",
    "USUBJID": "01-716-015",
    "EXSEQ": 1,
    "EXTRT": "XANOMELINE",
    "EXDOSE": 78.5,
    "EXDOSU": "mg",
    "EXDOSFRQ": "QD",
    "EXDOSFRM": "PATCH",
    "EXROUTE": "TRANSDERMAL",
    "EXSTDTC": "2013-02-12",
    "EXENDTC": "2013-07-08",
    "EXSTDY": 1,
    "EXENDY": 147,
    "EXDUR": 147,
    "EXCUMDOS": 11533.3
  },
  {
    "STUDYID": "CDISCPILOT01",
    "DOMAIN": "EX",
    "USUBJID": "01-716-016",
    "EXSEQ": 1,
    "EXTRT": "XANOMELINE",
    "EXDOSE": 79.2,
    "EXDOSU": "mg",
    "EXDOSFRQ": "QD",
    "EXDOSFRM": "PATCH",
    "EXROUTE": "TRANSDERMAL",
    "EXSTDTC": "2013-07-24",
    "EXENDTC": "2013-08-27",
    "EXSTDY": 1,
    "EXENDY": 35,
    "EXDUR": 35,
    "EXCUMDOS": 2771.8
  },
  {
    "STUDYID": "CDISCPILOT01",
    "DOMAIN": "EX",
    "USUBJID": "01-716-017",
    "EXSEQ": 1,
    "EXTRT": "XANOMELINE",
    "EXDOSE": 52.9,
    "EXDOSU": "mg",
    "EXDOSFRQ": "QD",
    "EXDOSFRM": "PATCH",
    "EXROUTE": "TRANSDERMAL",
    "EXSTDTC": "2013-02-11",
    "EXENDTC": "2013-07-28",
    "EXSTDY": 1,
    "EXENDY": 168,
    "EXDUR": 168,
    "EXCUMDOS": 8888.7
  },
  {
    "STUDYID": "CDISCPILOT01",
    "DOMAIN": "EX",
    "USUBJID": "01-716-018",
    "EXSEQ": 1,
    "EXTRT": "XANOMELINE",
    "EXDOSE": 51.4,
    "EXDOSU": "mg",
    "EXDOSFRQ": "QD",
    "EXDOSFRM": "PATCH",
    "EXROUTE": "TRANSDERMAL",
    "EXSTDTC": "2013-11-26",
    "EXENDTC": "2013-12-02",
    "EXSTDY": 1,
    "EXENDY": 7,
    "EXDUR": 7,
    "EXCUMDOS": 359.9
  },
  {
    "STUDYID": "CDISCPILOT01",
    "DOMAIN": "EX",
    "USUBJID": "01-716-019",
    "EXSEQ": 1,
    "EXTRT": "PLACEBO",
    "EXDOSE": 0,
    "EXDOSU": "mg",
    "EXDOSFRQ": "QD",
    "EXDOSFRM": "PATCH",
    "EXROUTE": "TRANSDERMAL",
    "EXSTDTC": "2013-07-14",
    "EXENDTC": "2013-12-28",
    "EXSTDY": 1,
    "EXENDY": 168,
    "EXDUR": 168,
    "EXCUMDOS": 0
  },
  {
    "STUDYID": "CDISCPILOT01",
    "DOMAIN": "EX",
    "USUBJID": "01-716-020",
    "EXSEQ": 1,
    "EXTRT": "PLACEBO",
    "EXDOSE": 0,
    "EXDOSU": "mg",
    "EXDOSFRQ": "QD",
    "EXDOSFRM": "PATCH",
    "EXROUTE": "TRANSDERMAL",
    "EXSTDTC": "2013-09-08",
    "EXENDTC": "2013-12-07",
    "EXSTDY": 1,
    "EXENDY": 91,
    "EXDUR": 91,
    "EXCUMDOS": 0
  },
  {
    "STUDYID": "CDISCPILOT01",
    "DOMAIN": "EX",
    "USUBJID": "01-716-021",
    "EXSEQ": 1,
    "EXTRT": "PLACEBO",
    "EXDOSE": 0,
    "EXDOSU": "mg",
    "EXDOSFRQ": "QD",
    "EXDOSFRM": "PATCH",
    "EXROUTE": "TRANSDERMAL",
    "EXSTDTC": "2013-11-08",
    "EXENDTC": "2014-03-20",
    "EXSTDY": 1,
    "EXENDY": 133,
    "EXDUR": 133,
    "EXCUMDOS": 0
  },
  {
    "STUDYID": "CDISCPILOT01",
    "DOMAIN": "EX",
    "USUBJID": "01-716-022",
    "EXSEQ": 1,
    "EXTRT": "XANOMELINE",
    "EXDOSE": 52.4,
    "EXDOSU": "mg",
    "EXDOSFRQ": "QD",
    "EXDOSFRM": "PATCH",
    "EXROUTE": "TRANSDERMAL",
    "EXSTDTC": "2013-08-08",
    "EXENDTC": "2013-09-11",
    "EXSTDY": 1,
    "EXENDY": 35,
    "EXDUR": 35,
    "EXCUMDOS": 1833.1
  },
  {
    "STUDYID": "CDISCPILOT01",
    "DOMAIN": "EX",
    "USUBJID": "01-716-023",
    "EXSEQ": 1,
    "EXTRT": "PLACEBO",
    "EXDOSE": 0,
    "EXDOSU": "mg",
    "EXDOSFRQ": "QD",
    "EXDOSFRM": "PATCH",
    "EXROUTE": "TRANSDERMAL",
    "EXSTDTC": "2013-07-18",
    "EXENDTC": "2013-08-14",
    "EXSTDY": 1,
    "EXENDY": 28,
    "EXDUR": 28,
    "EXCUMDOS": 0
  },
  {
    "STUDYID": "CDISCPILOT01",
    "DOMAIN": "EX",
    "USUBJID": "01-716-024",
    "EXSEQ": 1,
    "EXTRT": "XANOMELINE",
    "EXDOSE": 53.4,
    "EXDOSU": "mg",
    "EXDOSFRQ": "QD",
    "EXDOSFRM": "PATCH",
    "EXROUTE": "TRANSDERMAL",
    "EXSTDTC": "2013-01-10",
    "EXENDTC": "2013-06-26",
    "EXSTDY": 1,
    "EXENDY": 168,
    "EXDUR": 168,
    "EXCUMDOS": 8975.9
  },
  {
    "STUDYID": "CDISCPILOT01",
    "DOMAIN": "EX",
    "USUBJID": "01-716-025",
    "EXSEQ": 1,
    "EXTRT": "XANOMELINE",
    "EXDOSE": 79.5,
    "EXDOSU": "mg",
    "EXDOSFRQ": "QD",
    "EXDOSFRM": "PATCH",
    "EXROUTE": "TRANSDERMAL",
    "EXSTDTC": "2013-02-26",
    "EXENDTC": "2013-06-03",
    "EXSTDY": 1,
    "EXENDY": 98,
    "EXDUR": 98,
    "EXCUMDOS": 7793.1
  },
  {
    "STUDYID": "CDISCPILOT01",
    "DOMAIN": "EX",
    "USUBJID": "01-716-026",
    "EXSEQ": 1,
    "EXTRT": "XANOMELINE",
    "EXDOSE": 51.7,
    "EXDOSU": "mg",
    "EXDOSFRQ": "QD",
    "EXDOSFRM": "PATCH",
    "EXROUTE": "TRANSDERMAL",
    "EXSTDTC": "2013-08-02",
    "EXENDTC": "2013-08-29",
    "EXSTDY": 1,
    "EXENDY": 28,
    "EXDUR": 28,
    "EXCUMDOS": 1448.4
  },
  {
    "STUDYID": "CDISCPILOT01",
    "DOMAIN": "EX",
    "USUBJID": "01-716-027",
    "EXSEQ": 1,
    "EXTRT": "XANOMELINE",
    "EXDOSE": 78.1,
    "EXDOSU": "mg",
    "EXDOSFRQ": "QD",
    "EXDOSFRM": "PATCH",
    "EXROUTE": "TRANSDERMAL",
    "EXSTDTC": "2013-03-17",
    "EXENDTC": "2013-04-13",
    "EXSTDY": 1,
    "EXENDY": 28,
    "EXDUR": 28,
    "EXCUMDOS": 2187.2
  },
  {
    "STUDYID": "CDISCPILOT01",
    "DOMAIN": "EX",
    "USUBJID": "01-717-001",
    "EXSEQ": 1,
    "EXTRT": "XANOMELINE",
    "EXDOSE": 78.9,
    "EXDOSU": "mg",
    "EXDOSFRQ": "QD",
    "EXDOSFRM": "PATCH",
    "EXROUTE": "TRANSDERMAL",
    "EXSTDTC": "2013-11-02",
    "EXENDTC": "2013-11-15",
    "EXSTDY": 1,
    "EXENDY": 14,
    "EXDUR": 14,
    "EXCUMDOS": 1104.8
  },
  {
    "STUDYID": "CDISCPILOT01",
    "DOMAIN": "EX",
    "USUBJID": "01-717-002",
    "EXSEQ": 1,
    "EXTRT": "XANOMELINE",
    "EXDOSE": 79.2,
    "EXDOSU": "mg",
    "EXDOSFRQ": "QD",
    "EXDOSFRM": "PATCH",
    "EXROUTE": "TRANSDERMAL",
    "EXSTDTC": "2013-04-09",
    "EXENDTC": "2013-06-24",
    "EXSTDY": 1,
    "EXENDY": 77,
    "EXDUR": 77,
    "EXCUMDOS": 6097.5
  },
  {
    "STUDYID": "CDISCPILOT01",
    "DOMAIN": "EX",
    "USUBJID": "01-717-003",
    "EXSEQ": 1,
    "EXTRT": "PLACEBO",
    "EXDOSE": 0,
    "EXDOSU": "mg",
    "EXDOSFRQ": "QD",
    "EXDOSFRM": "PATCH",
    "EXROUTE": "TRANSDERMAL",
    "EXSTDTC": "2013-01-17",
    "EXENDTC": "2013-07-03",
    "EXSTDY": 1,
    "EXENDY": 168,
    "EXDUR": 168,
    "EXCUMDOS": 0
  },
  {
    "STUDYID": "CDISCPILOT01",
    "DOMAIN": "EX",
    "USUBJID": "01-718-001",
    "EXSEQ": 1,
    "EXTRT": "XANOMELINE",
    "EXDOSE": 79.3,
    "EXDOSU": "mg",
    "EXDOSFRQ": "QD",
    "EXDOSFRM": "PATCH",
    "EXROUTE": "TRANSDERMAL",
    "EXSTDTC": "2013-06-05",
    "EXENDTC": "2013-07-02",
    "EXSTDY": 1,
    "EXENDY": 28,
    "EXDUR": 28,
    "EXCUMDOS": 2220.2
  },
  {
    "STUDYID": "CDISCPILOT01",
    "DOMAIN": "EX",
    "USUBJID": "01-718-002",
    "EXSEQ": 1,
    "EXTRT": "PLACEBO",
    "EXDOSE": 0,
    "EXDOSU": "mg",
    "EXDOSFRQ": "QD",
    "EXDOSFRM": "PATCH",
    "EXROUTE": "TRANSDERMAL",
    "EXSTDTC": "2013-05-08",
    "EXENDTC": "2013-10-22",
    "EXSTDY": 1,
    "EXENDY": 168,
    "EXDUR": 168,
    "EXCUMDOS": 0
  },
  {
    "STUDYID": "CDISCPILOT01",
    "DOMAIN": "EX",
    "USUBJID": "01-718-003",
    "EXSEQ": 1,
    "EXTRT": "XANOMELINE",
    "EXDOSE": 52.4,
    "EXDOSU": "mg",
    "EXDOSFRQ": "QD",
    "EXDOSFRM": "PATCH",
    "EXROUTE": "TRANSDERMAL",
    "EXSTDTC": "2013-05-15",
    "EXENDTC": "2013-06-18",
    "EXSTDY": 1,
    "EXENDY": 35,
    "EXDUR": 35,
    "EXCUMDOS": 1833.1
  },
  {
    "STUDYID": "CDISCPILOT01",
    "DOMAIN": "EX",
    "USUBJID": "01-718-004",
    "EXSEQ": 1,
    "EXTRT": "XANOMELINE",
    "EXDOSE": 77.9,
    "EXDOSU": "mg",
    "EXDOSFRQ": "QD",
    "EXDOSFRM": "PATCH",
    "EXROUTE": "TRANSDERMAL",
    "EXSTDTC": "2013-12-27",
    "EXENDTC": "2014-06-12",
    "EXSTDY": 1,
    "EXENDY": 168,
    "EXDUR": 168,
    "EXCUMDOS": 13084.8
  },
  {
    "STUDYID": "CDISCPILOT01",
    "DOMAIN": "EX",
    "USUBJID": "01-718-005",
    "EXSEQ": 1,
    "EXTRT": "XANOMELINE",
    "EXDOSE": 54,
    "EXDOSU": "mg",
    "EXDOSFRQ": "QD",
    "EXDOSFRM": "PATCH",
    "EXROUTE": "TRANSDERMAL",
    "EXSTDTC": "2013-06-09",
    "EXENDTC": "2013-07-13",
    "EXSTDY": 1,
    "EXENDY": 35,
    "EXDUR": 35,
    "EXCUMDOS": 1889.4
  },
  {
    "STUDYID": "CDISCPILOT01",
    "DOMAIN": "EX",
    "USUBJID": "01-718-006",
    "EXSEQ": 1,
    "EXTRT": "XANOMELINE",
    "EXDOSE": 77.3,
    "EXDOSU": "mg",
    "EXDOSFRQ": "QD",
    "EXDOSFRM": "PATCH",
    "EXROUTE": "TRANSDERMAL",
    "EXSTDTC": "2013-05-31",
    "EXENDTC": "2013-11-14",
    "EXSTDY": 1,
    "EXENDY": 168,
    "EXDUR": 168,
    "EXCUMDOS": 12985.6
  },
  {
    "STUDYID": "CDISCPILOT01",
    "DOMAIN": "EX",
    "USUBJID": "01-718-007",
    "EXSEQ": 1,
    "EXTRT": "XANOMELINE",
    "EXDOSE": 79.9,
    "EXDOSU": "mg",
    "EXDOSFRQ": "QD",
    "EXDOSFRM": "PATCH",
    "EXROUTE": "TRANSDERMAL",
    "EXSTDTC": "2013-09-22",
    "EXENDTC": "2014-03-08",
    "EXSTDY": 1,
    "EXENDY": 168,
    "EXDUR": 168,
    "EXCUMDOS": 13415
  },
  {
    "STUDYID": "CDISCPILOT01",
    "DOMAIN": "EX",
    "USUBJID": "01-718-008",
    "EXSEQ": 1,
    "EXTRT": "XANOMELINE",
    "EXDOSE": 52.1,
    "EXDOSU": "mg",
    "EXDOSFRQ": "QD",
    "EXDOSFRM": "PATCH",
    "EXROUTE": "TRANSDERMAL",
    "EXSTDTC": "2013-09-16",
    "EXENDTC": "2013-09-29",
    "EXSTDY": 1,
    "EXENDY": 14,
    "EXDUR": 14,
    "EXCUMDOS": 728.9
  },
  {
    "STUDYID": "CDISCPILOT01",
    "DOMAIN": "EX",
    "USUBJID": "01-718-009",
    "EXSEQ": 1,
    "EXTRT": "PLACEBO",
    "EXDOSE": 0,
    "EXDOSU": "mg",
    "EXDOSFRQ": "QD",
    "EXDOSFRM": "PATCH",
    "EXROUTE": "TRANSDERMAL",
    "EXSTDTC": "2013-03-13",
    "EXENDTC": "2013-08-27",
    "EXSTDY": 1,
    "EXENDY": 168,
    "EXDUR": 168,
    "EXCUMDOS": 0
  },
  {
    "STUDYID": "CDISCPILOT01",
    "DOMAIN": "EX",
    "USUBJID": "01-718-010",
    "EXSEQ": 1,
    "EXTRT": "PLACEBO",
    "EXDOSE": 0,
    "EXDOSU": "mg",
    "EXDOSFRQ": "QD",
    "EXDOSFRM": "PATCH",
    "EXROUTE": "TRANSDERMAL",
    "EXSTDTC": "2013-03-11",
    "EXENDTC": "2013-08-25",
    "EXSTDY": 1,
    "EXENDY": 168,
    "EXDUR": 168,
    "EXCUMDOS": 0
  },
  {
    "STUDYID": "CDISCPILOT01",
    "DOMAIN": "EX",
    "USUBJID": "01-718-011",
    "EXSEQ": 1,
    "EXTRT": "XANOMELINE",
    "EXDOSE": 77.8,
    "EXDOSU": "mg",
    "EXDOSFRQ": "QD",
    "EXDOSFRM": "PATCH",
    "EXROUTE": "TRANSDERMAL",
    "EXSTDTC": "2013-11-21",
    "EXENDTC": "2014-03-19",
    "EXSTDY": 1,
    "EXENDY": 119,
    "EXDUR": 119,
    "EXCUMDOS": 9260.1
  },
  {
    "STUDYID": "CDISCPILOT01",
    "DOMAIN": "EX",
    "USUBJID": "01-718-012",
    "EXSEQ": 1,
    "EXTRT": "PLACEBO",
    "EXDOSE": 0,
    "EXDOSU": "mg",
    "EXDOSFRQ": "QD",
    "EXDOSFRM": "PATCH",
    "EXROUTE": "TRANSDERMAL",
    "EXSTDTC": "2013-11-26",
    "EXENDTC": "2014-05-12",
    "EXSTDY": 1,
    "EXENDY": 168,
    "EXDUR": 168,
    "EXCUMDOS": 0
  },
  {
    "STUDYID": "CDISCPILOT01",
    "DOMAIN": "EX",
    "USUBJID": "01-718-013",
    "EXSEQ": 1,
    "EXTRT": "XANOMELINE",
    "EXDOSE": 51.5,
    "EXDOSU": "mg",
    "EXDOSFRQ": "QD",
    "EXDOSFRM": "PATCH",
    "EXROUTE": "TRANSDERMAL",
    "EXSTDTC": "2013-05-24",
    "EXENDTC": "2013-11-07",
    "EXSTDY": 1,
    "EXENDY": 168,
    "EXDUR": 168,
    "EXCUMDOS": 8655.9
  },
  {
    "STUDYID": "CDISCPILOT01",
    "DOMAIN": "EX",
    "USUBJID": "01-718-014",
    "EXSEQ": 1,
    "EXTRT": "XANOMELINE",
    "EXDOSE": 51.7,
    "EXDOSU": "mg",
    "EXDOSFRQ": "QD",
    "EXDOSFRM": "PATCH",
    "EXROUTE": "TRANSDERMAL",
    "EXSTDTC": "2013-07-05",
    "EXENDTC": "2013-12-19",
    "EXSTDY": 1,
    "EXENDY": 168,
    "EXDUR": 168,
    "EXCUMDOS": 8688.2
  },
  {
    "STUDYID": "CDISCPILOT01",
    "DOMAIN": "EX",
    "USUBJID": "01-718-015",
    "EXSEQ": 1,
    "EXTRT": "XANOMELINE",
    "EXDOSE": 52,
    "EXDOSU": "mg",
    "EXDOSFRQ": "QD",
    "EXDOSFRM": "PATCH",
    "EXROUTE": "TRANSDERMAL",
    "EXSTDTC": "2013-03-12",
    "EXENDTC": "2013-04-08",
    "EXSTDY": 1,
    "EXENDY": 28,
    "EXDUR": 28,
    "EXCUMDOS": 1456.4
  },
  {
    "STUDYID": "CDISCPILOT01",
    "DOMAIN": "EX",
    "USUBJID": "01-718-016",
    "EXSEQ": 1,
    "EXTRT": "XANOMELINE",
    "EXDOSE": 79.7,
    "EXDOSU": "mg",
    "EXDOSFRQ": "QD",
    "EXDOSFRM": "PATCH",
    "EXROUTE": "TRANSDERMAL",
    "EXSTDTC": "2013-03-03",
    "EXENDTC": "2013-08-17",
    "EXSTDY": 1,
    "EXENDY": 168,
    "EXDUR": 168,
    "EXCUMDOS": 13394.5
  },
  {
    "STUDYID": "CDISCPILOT01",
    "DOMAIN": "EX",
    "USUBJID": "01-718-017",
    "EXSEQ": 1,
    "EXTRT": "PLACEBO",
    "EXDOSE": 0,
    "EXDOSU": "mg",
    "EXDOSFRQ": "QD",
    "EXDOSFRM": "PATCH",
    "EXROUTE": "TRANSDERMAL",
    "EXSTDTC": "2013-03-28",
    "EXENDTC": "2013-09-11",
    "EXSTDY": 1,
    "EXENDY": 168,
    "EXDUR": 168,
    "EXCUMDOS": 0
  },
  {
    "STUDYID": "CDISCPILOT01",
    "DOMAIN": "EX",
    "USUBJID": "01-718-018",
    "EXSEQ": 1,
    "EXTRT": "PLACEBO",
    "EXDOSE": 0,
    "EXDOSU": "mg",
    "EXDOSFRQ": "QD",
    "EXDOSFRM": "PATCH",
    "EXROUTE": "TRANSDERMAL",
    "EXSTDTC": "2013-10-06",
    "EXENDTC": "2014-03-08",
    "EXSTDY": 1,
    "EXENDY": 154,
    "EXDUR": 154,
    "EXCUMDOS": 0
  },
  {
    "STUDYID": "CDISCPILOT01",
    "DOMAIN": "EX",
    "USUBJID": "01-718-019",
    "EXSEQ": 1,
    "EXTRT": "XANOMELINE",
    "EXDOSE": 53.5,
    "EXDOSU": "mg",
    "EXDOSFRQ": "QD",
    "EXDOSFRM": "PATCH",
    "EXROUTE": "TRANSDERMAL",
    "EXSTDTC": "2013-05-25",
    "EXENDTC": "2013-08-30",
    "EXSTDY": 1,
    "EXENDY": 98,
    "EXDUR": 98,
    "EXCUMDOS": 5244.4
  },
  {
    "STUDYID": "CDISCPILOT01",
    "DOMAIN": "EX",
    "USUBJID": "01-718-020",
    "EXSEQ": 1,
    "EXTRT": "XANOMELINE",
    "EXDOSE": 80.1,
    "EXDOSU": "mg",
    "EXDOSFRQ": "QD",
    "EXDOSFRM": "PATCH",
    "EXROUTE": "TRANSDERMAL",
    "EXSTDTC": "2013-02-06",
    "EXENDTC": "2013-07-23",
    "EXSTDY": 1,
    "EXENDY": 168,
    "EXDUR": 168,
    "EXCUMDOS": 13463.1
  },
  {
    "STUDYID": "CDISCPILOT01",
    "DOMAIN": "EX",
    "USUBJID": "01-718-021",
    "EXSEQ": 1,
    "EXTRT": "XANOMELINE",
    "EXDOSE": 79.5,
    "EXDOSU": "mg",
    "EXDOSFRQ": "QD",
    "EXDOSFRM": "PATCH",
    "EXROUTE": "TRANSDERMAL",
    "EXSTDTC": "2013-09-05",
    "EXENDTC": "2013-11-20",
    "EXSTDY": 1,
    "EXENDY": 77,
    "EXDUR": 77,
    "EXCUMDOS": 6124.5
  },
  {
    "STUDYID": "CDISCPILOT01",
    "DOMAIN": "EX",
    "USUBJID": "01-718-022",
    "EXSEQ": 1,
    "EXTRT": "PLACEBO",
    "EXDOSE": 0,
    "EXDOSU": "mg",
    "EXDOSFRQ": "QD",
    "EXDOSFRM": "PATCH",
    "EXROUTE": "TRANSDERMAL",
    "EXSTDTC": "2013-09-24",
    "EXENDTC": "2014-03-10",
    "EXSTDY": 1,
    "EXENDY": 168,
    "EXDUR": 168,
    "EXCUMDOS": 0
  }
]
