[
  {
    "STUDYID": "CDISCPILOT01",
    "DOMAIN": "QS",
    "USUBJID": "01-701-001",
    "QSSEQ": 1,
    "QSTESTCD": "ACTOT",
    "QSTEST": "ADAS-Cog (11) Total Score",
    "QSCAT": "ADAS-COG",
    "VISITNUM": 1,
    "VISIT": "BASELINE",
    "QSDTC": "2013-06-18",
    "QSBLFL": "Y",
    "QSORRES": "28",
    "QSSTRESC": "28",
    "QSSTRESN": 28
  },
  {
    "STUDYID": "CDISCPILOT01",
    "DOMAIN": "QS",
    "USUBJID": "01-701-001",
    "QSSEQ": 2,
    "QSTESTCD": "ACTOT",
    "QSTEST": "ADAS-Cog (11) Total Score",
    "QSCAT": "ADAS-COG",
    "VISITNUM": 3,
    "VISIT": "WEEK 4",
    "QSDTC": "2013-07-16",
    "QSBLFL": "",
    "QSORRES": "29",
    "QSSTRESC": "29",
    "QSSTRESN": 29
  },
  {
    "STUDYID": "CDISCPILOT01",
    "DOMAIN": "QS",
    "USUBJID": "01-701-001",
    "QSSEQ": 3,
    "QSTESTCD": "ACTOT",
    "QSTEST": "ADAS-Cog (11) Total Score",
    "QSCAT": "ADAS-COG",
    "VISITNUM": 4,
    "VISIT": "WEEK 8",
    "QSDTC": "2013-08-13",
    "QSBLFL": "",
    "QSORRES": "30",
    "QSSTRESC": "30",
    "QSSTRESN": 30
  },
  {
    "STUDYID": "CDISCPILOT01",
    "DOMAIN": "QS",
    "USUBJID": "01-701-001",
    "QSSEQ": 4,
    "QSTESTCD": "ACTOT",
    "QSTEST": "ADAS-Cog (11) Total Score",
    "QSCAT": "ADAS-COG",
    "VISITNUM": 5,
    "VISIT": "WEEK 12",
    "QSDTC": "2013-09-10",
    "QSBLFL": "",
    "QSORRES": "29",
    "QSSTRESC": "29",
    "QSSTRESN": 29
  },
  {
    "STUDYID": "CDISCPILOT01",
    "DOMAIN": "QS",
    "USUBJID": "01-701-001",
    "QSSEQ": 5,
    "QSTESTCD": "ACTOT",
    "QSTEST": "ADAS-Cog (11) Total Score",
    "QSCAT": "ADAS-COG",
    "VISITNUM": 7,
    "VISIT": "WEEK 24",
    "QSDTC": "2013-12-03",
    "QSBLFL": "",
    "QSORRES": "30",
    "QSSTRESC": "30",
    "QSSTRESN": 30
  },
  {
    "STUDYID": "CDISCPILOT01",
    "DOMAIN": "QS",
    "USUBJID": "01-701-001",
    "QSSEQ": 6,
    "QSTESTCD": "CIBIC",
    "QSTEST": "CIBIC+ Global Assessment",
    "QSCAT": "CIBIC+",
    "VISITNUM": 7,
    "VISIT": "WEEK 24",
    "QSDTC": "2013-12-03",
    "QSBLFL": "",
    "QSORRES": "NO CHANGE",
    "QSSTRESC": "4",
    "QSSTRESN": 4
  },
  {
    "STUDYID": "CDISCPILOT01",
    "DOMAIN": "QS",
    "USUBJID": "01-701-002",
    "QSSEQ": 1,
    "QSTESTCD": "ACTOT",
    "QSTEST": "ADAS-Cog (11) Total Score",
    "QSCAT": "ADAS-COG",
    "VISITNUM": 1,
    "VISIT": "BASELINE",
    "QSDTC": "2013-03-31",
    "QSBLFL": "Y",
    "QSORRES": "35",
    "QSSTRESC": "35",
    "QSSTRESN": 35
  },
  {
    "STUDYID": "CDISCPILOT01",
    "DOMAIN": "QS",
    "USUBJID": "01-701-002",
    "QSSEQ": 2,
    "QSTESTCD": "ACTOT",
    "QSTEST": "ADAS-Cog (11) Total Score",
    "QSCAT": "ADAS-COG",
    "VISITNUM": 3,
    "VISIT": "WEEK 4",
    "QSDTC": "2013-04-28",
    "QSBLFL": "",
    "QSORRES": "33",
    "QSSTRESC": "33",
    "QSSTRESN": 33
  },
  {
    "STUDYID": "CDISCPILOT01",
    "DOMAIN": "QS",
    "USUBJID": "01-701-002",
    "QSSEQ": 3,
    "QSTESTCD": "ACTOT",
    "QSTEST": "ADAS-Cog (11) Total Score",
    "QSCAT": "ADAS-COG",
    "VISITNUM": 4,
    "VISIT": "WEEK 8",
    "QSDTC": "2013-05-26",
    "QSBLFL": "",
    "QSORRES": "35",
    "QSSTRESC": "35",
    "QSSTRESN": 35
  },
  {
    "STUDYID": "CDISCPILOT01",
    "DOMAIN": "QS",
    "USUBJID": "01-701-002",
    "QSSEQ": 4,
    "QSTESTCD": "ACTOT",
    "QSTEST": "ADAS-Cog (11) Total Score",
    "QSCAT": "ADAS-COG",
    "VISITNUM": 5,
    "VISIT": "WEEK 12",
    "QSDTC": "2013-06-23",
    "QSBLFL": "",
    "QSORRES": "39",
    "QSSTRESC": "39",
    "QSSTRESN": 39
  },
  {
    "STUDYID": "CDISCPILOT01",
    "DOMAIN": "QS",
    "USUBJID": "01-701-002",
    "QSSEQ": 5,
    "QSTESTCD": "ACTOT",
    "QSTEST": "ADAS-Cog (11) Total Score",
    "QSCAT": "ADAS-COG",
    "VISITNUM": 7,
    "VISIT": "WEEK 24",
    "QSDTC": "2013-09-15",
    "QSBLFL": "",
    "QSORRES": "31",
    "QSSTRESC": "31",
    "QSSTRESN": 31
  },
  {
    "STUDYID": "CDISCPILOT01",
    "DOMAIN": "QS",
    "USUBJID": "01-701-002",
    "QSSEQ": 6,
    "QSTESTCD": "CIBIC",
    "QSTEST": "CIBIC+ Global Assessment",
    "QSCAT": "CIBIC+",
    "VISITNUM": 7,
    "VISIT": "WEEK 24",
    "QSDTC": "2013-09-15",
    "QSBLFL": "",
    "QSORRES": "MINIMAL IMPROVEMENT",
    "QSSTRESC": "3",
    "QSSTRESN": 3
  },
  {
    "STUDYID": "CDISCPILOT01",
    "DOMAIN": "QS",
    "USUBJID": "01-701-003",
    "QSSEQ": 1,
    "QSTESTCD": "ACTOT",
    "QSTEST": "ADAS-Cog (11) Total Score",
    "QSCAT": "ADAS-COG",
    "VISITNUM": 1,
    "VISIT": "BASELINE",
    "QSDTC": "2013-01-01",
    "QSBLFL": "Y",
    "QSORRES": "11",
    "QSSTRESC": "11",
    "QSSTRESN": 11
  },
  {
    "STUDYID": "CDISCPILOT01",
    "DOMAIN": "QS",
    "USUBJID": "01-701-003",
    "QSSEQ": 2,
    "QSTESTCD": "ACTOT",
    "QSTEST": "ADAS-Cog (11) Total Score",
    "QSCAT": "ADAS-COG",
    "VISITNUM": 3,
    "VISIT": "WEEK 4",
    "QSDTC": "2013-01-29",
    "QSBLFL": "",
    "QSORRES": "11",
    "QSSTRESC": "11",
    "QSSTRESN": 11
  },
  {
    "STUDYID": "CDISCPILOT01",
    "DOMAIN": "QS",
    "USUBJID": "01-701-003",
    "QSSEQ": 3,
    "QSTESTCD": "ACTOT",
    "QSTEST": "ADAS-Cog (11) Total Score",
    "QSCAT": "ADAS-COG",
    "VISITNUM": 4,
    "VISIT": "WEEK 8",
    "QSDTC": "2013-02-26",
    "QSBLFL": "",
    "QSORRES": "8",
    "QSSTRESC": "8",
    "QSSTRESN": 8
  },
  {
    "STUDYID": "CDISCPILOT01",
    "DOMAIN": "QS",
    "USUBJID": "01-701-003",
    "QSSEQ": 4,
    "QSTESTCD": "ACTOT",
    "QSTEST": "ADAS-Cog (11) Total Score",
    "QSCAT": "ADAS-COG",
    "VISITNUM": 5,
    "VISIT": "WEEK 12",
    "QSDTC": "2013-03-26",
    "QSBLFL": "",
    "QSORRES": "18",
    "QSSTRESC": "18",
    "QSSTRESN": 18
  },
  {
    "STUDYID": "CDISCPILOT01",
    "DOMAIN": "QS",
    "USUBJID": "01-701-003",
    "QSSEQ": 5,
    "QSTESTCD": "ACTOT",
    "QSTEST": "ADAS-Cog (11) Total Score",
    "QSCAT": "ADAS-COG",
    "VISITNUM": 7,
    "VISIT": "WEEK 24",
    "QSDTC": "2013-06-18",
    "QSBLFL": "",
    "QSORRES": "18",
    "QSSTRESC": "18",
    "QSSTRESN": 18
  },
  {
    "STUDYID": "CDISCPILOT01",
    "DOMAIN": "QS",
    "USUBJID": "01-701-003",
    "QSSEQ": 6,
    "QSTESTCD": "CIBIC",
    "QSTEST": "CIBIC+ Global Assessment",
    "QSCAT": "CIBIC+",
    "VISITNUM": 7,
    "VISIT": "WEEK 24",
    "QSDTC": "2013-06-18",
    "QSBLFL": "",
    "QSORRES": "MINIMAL WORSENING",
    "QSSTRESC": "5",
    "QSSTRESN": 5
  },
  {
    "STUDYID": "CDISCPILOT01",
    "DOMAIN": "QS",
    "USUBJID": "01-701-004",
    "QSSEQ": 1,
    "QSTESTCD": "ACTOT",
    "QSTEST": "ADAS-Cog (11) Total Score",
    "QSCAT": "ADAS-COG",
    "VISITNUM": 1,
    "VISIT": "BASELINE",
    "QSDTC": "2013-08-24",
    "QSBLFL": "Y",
    "QSORRES": "5",
    "QSSTRESC": "5",
    "QSSTRESN": 5
  },
  {
    "STUDYID": "CDISCPILOT01",
    "DOMAIN": "QS",
    "USUBJID": "01-701-004",
    "QSSEQ": 2,
    "QSTESTCD": "ACTOT",
    "QSTEST": "ADAS-Cog (11) Total Score",
    "QSCAT": "ADAS-COG",
    "VISITNUM": 3,
    "VISIT": "WEEK 4",
    "QSDTC": "2013-09-21",
    "QSBLFL": "",
    "QSORRES": "5",
    "QSSTRESC": "5",
    "QSSTRESN": 5
  },
  {
    "STUDYID": "CDISCPILOT01",
    "DOMAIN": "QS",
    "USUBJID": "01-701-004",
    "QSSEQ": 3,
    "QSTESTCD": "ACTOT",
    "QSTEST": "ADAS-Cog (11) Total Score",
    "QSCAT": "ADAS-COG",
    "VISITNUM": 4,
    "VISIT": "WEEK 8",
    "QSDTC": "2013-10-19",
    "QSBLFL": "",
    "QSORRES": "5",
    "QSSTRESC": "5",
    "QSSTRESN": 5
  },
  {
    "STUDYID": "CDISCPILOT01",
    "DOMAIN": "QS",
    "USUBJID": "01-701-004",
    "QSSEQ": 4,
    "QSTESTCD": "CIBIC",
    "QSTEST": "CIBIC+ Global Assessment",
    "QSCAT": "CIBIC+",
    "VISITNUM": 7,
    "VISIT": "WEEK 24",
    "QSDTC": "2014-02-08",
    "QSBLFL": "",
    "QSORRES": "MINIMAL WORSENING",
    "QSSTRESC": "5",
    "QSSTRESN": 5
  },
  {
    "STUDYID": "CDISCPILOT01",
    "DOMAIN": "QS",
    "USUBJID": "01-701-005",
    "QSSEQ": 1,
    "QSTESTCD": "ACTOT",
    "QSTEST": "ADAS-Cog (11) Total Score",
    "QSCAT": "ADAS-COG",
    "VISITNUM": 1,
    "VISIT": "BASELINE",
    "QSDTC": "2013-02-07",
    "QSBLFL": "Y",
    "QSORRES": "22",
    "QSSTRESC": "22",
    "QSSTRESN": 22
  },
  {
    "STUDYID": "CDISCPILOT01",
    "DOMAIN": "QS",
    "USUBJID": "01-701-005",
    "QSSEQ": 2,
    "QSTESTCD": "ACTOT",
    "QSTEST": "ADAS-Cog (11) Total Score",
    "QSCAT": "ADAS-COG",
    "VISITNUM": 3,
    "VISIT": "WEEK 4",
    "QSDTC": "2013-03-07",
    "QSBLFL": "",
    "QSORRES": "20",
    "QSSTRESC": "20",
    "QSSTRESN": 20
  },
  {
    "STUDYID": "CDISCPILOT01",
    "DOMAIN": "QS",
    "USUBJID": "01-701-005",
    "QSSEQ": 3,
    "QSTESTCD": "ACTOT",
    "QSTEST": "ADAS-Cog (11) Total Score",
    "QSCAT": "ADAS-COG",
    "VISITNUM": 4,
    "VISIT": "WEEK 8",
    "QSDTC": "2013-04-04",
    "QSBLFL": "",
    "QSORRES": "24",
    "QSSTRESC": "24",
    "QSSTRESN": 24
  },
  {
    "STUDYID": "CDISCPILOT01",
    "DOMAIN": "QS",
    "USUBJID": "01-701-005",
    "QSSEQ": 4,
    "QSTESTCD": "ACTOT",
    "QSTEST": "ADAS-Cog (11) Total Score",
    "QSCAT": "ADAS-COG",
    "VISITNUM": 5,
    "VISIT": "WEEK 12",
    "QSDTC": "2013-05-02",
    "QSBLFL": "",
    "QSORRES": "21",
    "QSSTRESC": "21",
    "QSSTRESN": 21
  },
  {
    "STUDYID": "CDISCPILOT01",
    "DOMAIN": "QS",
    "USUBJID": "01-701-005",
    "QSSEQ": 5,
    "QSTESTCD": "ACTOT",
    "QSTEST": "ADAS-Cog (11) Total Score",
    "QSCAT": "ADAS-COG",
    "VISITNUM": 7,
    "VISIT": "WEEK 24",
    "QSDTC": "2013-07-25",
    "QSBLFL": "",
    "QSORRES": "31",
    "QSSTRESC": "31",
    "QSSTRESN": 31
  },
  {
    "STUDYID": "CDISCPILOT01",
    "DOMAIN": "QS",
    "USUBJID": "01-701-005",
    "QSSEQ": 6,
    "QSTESTCD": "CIBIC",
    "QSTEST": "CIBIC+ Global Assessment",
    "QSCAT": "CIBIC+",
    "VISITNUM": 7,
    "VISIT": "WEEK 24",
    "QSDTC": "2013-07-25",
    "QSBLFL": "",
    "QSORRES": "NO CHANGE",
    "QSSTRESC": "4",
    "QSSTRESN": 4
  },
  {
    "STUDYID": "CDISCPILOT01",
    "DOMAIN": "QS",
    "USUBJID": "01-701-006",
    "QSSEQ": 1,
    "QSTESTCD": "ACTOT",
    "QSTEST": "ADAS-Cog (11) Total Score",
    "QSCAT": "ADAS-COG",
    "VISITNUM": 1,
    "VISIT": "BASELINE",
    "QSDTC": "2013-06-27",
    "QSBLFL": "Y",
    "QSORRES": "3",
    "QSSTRESC": "3",
    "QSSTRESN": 3
  },
  {
    "STUDYID": "CDISCPILOT01",
    "DOMAIN": "QS",
    "USUBJID": "01-701-006",
    "QSSEQ": 2,
    "QSTESTCD": "ACTOT",
    "QSTEST": "ADAS-Cog (11) Total Score",
    "QSCAT": "ADAS-COG",
    "VISITNUM": 3,
    "VISIT": "WEEK 4",
    "QSDTC": "2013-07-25",
    "QSBLFL": "",
    "QSORRES": "4",
    "QSSTRESC": "4",
    "QSSTRESN": 4
  },
  {
    "STUDYID": "CDISCPILOT01",
    "DOMAIN": "QS",
    "USUBJID": "01-701-006",
    "QSSEQ": 3,
    "QSTESTCD": "ACTOT",
    "QSTEST": "ADAS-Cog (11) Total Score",
    "QSCAT": "ADAS-COG",
    "VISITNUM": 4,
    "VISIT": "WEEK 8",
    "QSDTC": "2013-08-22",
    "QSBLFL": "",
    "QSORRES": "7",
    "QSSTRESC": "7",
    "QSSTRESN": 7
  },
  {
    "STUDYID": "CDISCPILOT01",
    "DOMAIN": "QS",
    "USUBJID": "01-701-006",
    "QSSEQ": 4,
    "QSTESTCD": "ACTOT",
    "QSTEST": "ADAS-Cog (11) Total Score",
    "QSCAT": "ADAS-COG",
    "VISITNUM": 5,
    "VISIT": "WEEK 12",
    "QSDTC": "2013-09-19",
    "QSBLFL": "",
    "QSORRES": "3",
    "QSSTRESC": "3",
    "QSSTRESN": 3
  },
  {
    "STUDYID": "CDISCPILOT01",
    "DOMAIN": "QS",
    "USUBJID": "01-701-006",
    "QSSEQ": 5,
    "QSTESTCD": "ACTOT",
    "QSTEST": "ADAS-Cog (11) Total Score",
    "QSCAT": "ADAS-COG",
    "VISITNUM": 7,
    "VISIT": "WEEK 24",
    "QSDTC": "2013-12-12",
    "QSBLFL": "",
    "QSORRES": "4",
    "QSSTRESC": "4",
    "QSSTRESN": 4
  },
  {
    "STUDYID": "CDISCPILOT01",
    "DOMAIN": "QS",
    "USUBJID": "01-701-006",
    "QSSEQ": 6,
    "QSTESTCD": "CIBIC",
    "QSTEST": "CIBIC+ Global Assessment",
    "QSCAT": "CIBIC+",
    "VISITNUM": 7,
    "VISIT": "WEEK 24",
    "QSDTC": "2013-12-12",
    "QSBLFL": "",
    "QSORRES": "MINIMAL IMPROVEMENT",
    "QSSTRESC": "3",
    "QSSTRESN": 3
  },
  {
    "STUDYID": "CDISCPILOT01",
    "DOMAIN": "QS",
    "USUBJID": "01-701-007",
    "QSSEQ": 1,
    "QSTESTCD": "ACTOT",
    "QSTEST": "ADAS-Cog (11) Total Score",
    "QSCAT": "ADAS-COG",
    "VISITNUM": 1,
    "VISIT": "BASELINE",
    "QSDTC": "2013-07-16",
    "QSBLFL": "Y",
    "QSORRES": "37",
    "QSSTRESC": "37",
    "QSSTRESN": 37
  },
  {
    "STUDYID": "CDISCPILOT01",
    "DOMAIN": "QS",
    "USUBJID": "01-701-007",
    "QSSEQ": 2,
    "QSTESTCD": "ACTOT",
    "QSTEST": "ADAS-Cog (11) Total Score",
    "QSCAT": "ADAS-COG",
    "VISITNUM": 3,
    "VISIT": "WEEK 4",
    "QSDTC": "2013-08-13",
    "QSBLFL": "",
    "QSORRES": "38",
    "QSSTRESC": "38",
    "QSSTRESN": 38
  },
  {
    "STUDYID": "CDISCPILOT01",
    "DOMAIN": "QS",
    "USUBJID": "01-701-007",
    "QSSEQ": 3,
    "QSTESTCD": "ACTOT",
    "QSTEST": "ADAS-Cog (11) Total Score",
    "QSCAT": "ADAS-COG",
    "VISITNUM": 4,
    "VISIT": "WEEK 8",
    "QSDTC": "2013-09-10",
    "QSBLFL": "",
    "QSORRES": "37",
    "QSSTRESC": "37",
    "QSSTRESN": 37
  },
  {
    "STUDYID": "CDISCPILOT01",
    "DOMAIN": "QS",
    "USUBJID": "01-701-007",
    "QSSEQ": 4,
    "QSTESTCD": "ACTOT",
    "QSTEST": "ADAS-Cog (11) Total Score",
    "QSCAT": "ADAS-COG",
    "VISITNUM": 5,
    "VISIT": "WEEK 12",
    "QSDTC": "2013-10-08",
    "QSBLFL": "",
    "QSORRES": "41",
    "QSSTRESC": "41",
    "QSSTRESN": 41
  },
  {
    "STUDYID": "CDISCPILOT01",
    "DOMAIN": "QS",
    "USUBJID": "01-701-007",
    "QSSEQ": 5,
    "QSTESTCD": "ACTOT",
    "QSTEST": "ADAS-Cog (11) Total Score",
    "QSCAT": "ADAS-COG",
    "VISITNUM": 7,
    "VISIT": "WEEK 24",
    "QSDTC": "2013-12-31",
    "QSBLFL": "",
    "QSORRES": "34",
    "QSSTRESC": "34",
    "QSSTRESN": 34
  },
  {
    "STUDYID": "CDISCPILOT01",
    "DOMAIN": "QS",
    "USUBJID": "01-701-007",
    "QSSEQ": 6,
    "QSTESTCD": "CIBIC",
    "QSTEST": "CIBIC+ Global Assessment",
    "QSCAT": "CIBIC+",
    "VISITNUM": 7,
    "VISIT": "WEEK 24",
    "QSDTC": "2013-12-31",
    "QSBLFL": "",
    "QSORRES": "NO CHANGE",
    "QSSTRESC": "4",
    "QSSTRESN": 4
  },
  {
    "STUDYID": "CDISCPILOT01",
    "DOMAIN": "QS",
    "USUBJID": "01-701-008",
    "QSSEQ": 1,
    "QSTESTCD": "ACTOT",
    "QSTEST": "ADAS-Cog (11) Total Score",
    "QSCAT": "ADAS-COG",
    "VISITNUM": 1,
    "VISIT": "BASELINE",
    "QSDTC": "2013-11-24",
    "QSBLFL": "Y",
    "QSORRES": "16",
    "QSSTRESC": "16",
    "QSSTRESN": 16
  },
  {
    "STUDYID": "CDISCPILOT01",
    "DOMAIN": "QS",
    "USUBJID": "01-701-008",
    "QSSEQ": 2,
    "QSTESTCD": "ACTOT",
    "QSTEST": "ADAS-Cog (11) Total Score",
    "QSCAT": "ADAS-COG",
    "VISITNUM": 3,
    "VISIT": "WEEK 4",
    "QSDTC": "2013-12-22",
    "QSBLFL": "",
    "QSORRES": "17",
    "QSSTRESC": "17",
    "QSSTRESN": 17
  },
  {
    "STUDYID": "CDISCPILOT01",
    "DOMAIN": "QS",
    "USUBJID": "01-701-008",
    "QSSEQ": 3,
    "QSTESTCD": "ACTOT",
    "QSTEST": "ADAS-Cog (11) Total Score",
    "QSCAT": "ADAS-COG",
    "VISITNUM": 4,
    "VISIT": "WEEK 8",
    "QSDTC": "2014-01-19",
    "QSBLFL": "",
    "QSORRES": "21",
    "QSSTRESC": "21",
    "QSSTRESN": 21
  },
  {
    "STUDYID": "CDISCPILOT01",
    "DOMAIN": "QS",
    "USUBJID": "01-701-008",
    "QSSEQ": 4,
    "QSTESTCD": "ACTOT",
    "QSTEST": "ADAS-Cog (11) Total Score",
    "QSCAT": "ADAS-COG",
    "VISITNUM": 5,
    "VISIT": "WEEK 12",
    "QSDTC": "2014-02-16",
    "QSBLFL": "",
    "QSORRES": "11",
    "QSSTRESC": "11",
    "QSSTRESN": 11
  },
  {
    "STUDYID": "CDISCPILOT01",
    "DOMAIN": "QS",
    "USUBJID": "01-701-008",
    "QSSEQ": 5,
    "QSTESTCD": "ACTOT",
    "QSTEST": "ADAS-Cog (11) Total Score",
    "QSCAT": "ADAS-COG",
    "VISITNUM": 7,
    "VISIT": "WEEK 24",
    "QSDTC": "2014-05-11",
    "QSBLFL": "",
    "QSORRES": "12",
    "QSSTRESC": "12",
    "QSSTRESN": 12
  },
  {
    "STUDYID": "CDISCPILOT01",
    "DOMAIN": "QS",
    "USUBJID": "01-701-008",
    "QSSEQ": 6,
    "QSTESTCD": "CIBIC",
    "QSTEST": "CIBIC+ Global Assessment",
    "QSCAT": "CIBIC+",
    "VISITNUM": 7,
    "VISIT": "WEEK 24",
    "QSDTC": "2014-05-11",
    "QSBLFL": "",
    "QSORRES": "NO CHANGE",
    "QSSTRESC": "4",
    "QSSTRESN": 4
  },
  {
    "STUDYID": "CDISCPILOT01",
    "DOMAIN": "QS",
    "USUBJID": "01-701-009",
    "QSSEQ": 1,
    "QSTESTCD": "ACTOT",
    "QSTEST": "ADAS-Cog (11) Total Score",
    "QSCAT": "ADAS-COG",
    "VISITNUM": 1,
    "VISIT": "BASELINE",
    "QSDTC": "2013-06-08",
    "QSBLFL": "Y",
    "QSORRES": "33",
    "QSSTRESC": "33",
    "QSSTRESN": 33
  },
  {
    "STUDYID": "CDISCPILOT01",
    "DOMAIN": "QS",
    "USUBJID": "01-701-009",
    "QSSEQ": 2,
    "QSTESTCD": "ACTOT",
    "QSTEST": "ADAS-Cog (11) Total Score",
    "QSCAT": "ADAS-COG",
    "VISITNUM": 3,
    "VISIT": "WEEK 4",
    "QSDTC": "2013-07-06",
    "QSBLFL": "",
    "QSORRES": "34",
    "QSSTRESC": "34",
    "QSSTRESN": 34
  },
  {
    "STUDYID": "CDISCPILOT01",
    "DOMAIN": "QS",
    "USUBJID": "01-701-009",
    "QSSEQ": 3,
    "QSTESTCD": "CIBIC",
    "QSTEST": "CIBIC+ Global Assessment",
    "QSCAT": "CIBIC+",
    "VISITNUM": 7,
    "VISIT": "WEEK 24",
    "QSDTC": "2013-11-23",
    "QSBLFL": "",
    "QSORRES": "NO CHANGE",
    "QSSTRESC": "4",
    "QSSTRESN": 4
  },
  {
    "STUDYID": "CDISCPILOT01",
    "DOMAIN": "QS",
    "USUBJID": "01-701-010",
    "QSSEQ": 1,
    "QSTESTCD": "ACTOT",
    "QSTEST": "ADAS-Cog (11) Total Score",
    "QSCAT": "ADAS-COG",
    "VISITNUM": 1,
    "VISIT": "BASELINE",
    "QSDTC": "2013-12-03",
    "QSBLFL": "Y",
    "QSORRES": "36",
    "QSSTRESC": "36",
    "QSSTRESN": 36
  },
  {
    "STUDYID": "CDISCPILOT01",
    "DOMAIN": "QS",
    "USUBJID": "01-701-010",
    "QSSEQ": 2,
    "QSTESTCD": "ACTOT",
    "QSTEST": "ADAS-Cog (11) Total Score",
    "QSCAT": "ADAS-COG",
    "VISITNUM": 3,
    "VISIT": "WEEK 4",
    "QSDTC": "2013-12-31",
    "QSBLFL": "",
    "QSORRES": "37",
    "QSSTRESC": "37",
    "QSSTRESN": 37
  },
  {
    "STUDYID": "CDISCPILOT01",
    "DOMAIN": "QS",
    "USUBJID": "01-701-010",
    "QSSEQ": 3,
    "QSTESTCD": "ACTOT",
    "QSTEST": "ADAS-Cog (11) Total Score",
    "QSCAT": "ADAS-COG",
    "VISITNUM": 4,
    "VISIT": "WEEK 8",
    "QSDTC": "2014-01-28",
    "QSBLFL": "",
    "QSORRES": "37",
    "QSSTRESC": "37",
    "QSSTRESN": 37
  },
  {
    "STUDYID": "CDISCPILOT01",
    "DOMAIN": "QS",
    "USUBJID": "01-701-010",
    "QSSEQ": 4,
    "QSTESTCD": "ACTOT",
    "QSTEST": "ADAS-Cog (11) Total Score",
    "QSCAT": "ADAS-COG",
    "VISITNUM": 5,
    "VISIT": "WEEK 12",
    "QSDTC": "2014-02-25",
    "QSBLFL": "",
    "QSORRES": "38",
    "QSSTRESC": "38",
    "QSSTRESN": 38
  },
  {
    "STUDYID": "CDISCPILOT01",
    "DOMAIN": "QS",
    "USUBJID": "01-701-010",
    "QSSEQ": 5,
    "QSTESTCD": "CIBIC",
    "QSTEST": "CIBIC+ Global Assessment",
    "QSCAT": "CIBIC+",
    "VISITNUM": 7,
    "VISIT": "WEEK 24",
    "QSDTC": "2014-05-20",
    "QSBLFL": "",
    "QSORRES": "NO CHANGE",
    "QSSTRESC": "4",
    "QSSTRESN": 4
  },
  {
    "STUDYID": "CDISCPILOT01",
    "DOMAIN": "QS",
    "USUBJID": "01-701-011",
    "QSSEQ": 1,
    "QSTESTCD": "ACTOT",
    "QSTEST": "ADAS-Cog (11) Total Score",
    "QSCAT": "ADAS-COG",
    "VISITNUM": 1,
    "VISIT": "BASELINE",
    "QSDTC": "2013-08-01",
    "QSBLFL": "Y",
    "QSORRES": "12",
    "QSSTRESC": "12",
    "QSSTRESN": 12
  },
  {
    "STUDYID": "CDISCPILOT01",
    "DOMAIN": "QS",
    "USUBJID": "01-701-011",
    "QSSEQ": 2,
    "QSTESTCD": "ACTOT",
    "QSTEST": "ADAS-Cog (11) Total Score",
    "QSCAT": "ADAS-COG",
    "VISITNUM": 3,
    "VISIT": "WEEK 4",
    "QSDTC": "2013-08-29",
    "QSBLFL": "",
    "QSORRES": "15",
    "QSSTRESC": "15",
    "QSSTRESN": 15
  },
  {
    "STUDYID": "CDISCPILOT01",
    "DOMAIN": "QS",
    "USUBJID": "01-701-011",
    "QSSEQ": 3,
    "QSTESTCD": "ACTOT",
    "QSTEST": "ADAS-Cog (11) Total Score",
    "QSCAT": "ADAS-COG",
    "VISITNUM": 4,
    "VISIT": "WEEK 8",
    "QSDTC": "2013-09-26",
    "QSBLFL": "",
    "QSORRES": "11",
    "QSSTRESC": "11",
    "QSSTRESN": 11
  },
  {
    "STUDYID": "CDISCPILOT01",
    "DOMAIN": "QS",
    "USUBJID": "01-701-011",
    "QSSEQ": 4,
    "QSTESTCD": "ACTOT",
    "QSTEST": "ADAS-Cog (11) Total Score",
    "QSCAT": "ADAS-COG",
    "VISITNUM": 5,
    "VISIT": "WEEK 12",
    "QSDTC": "2013-10-24",
    "QSBLFL": "",
    "QSORRES": "18",
    "QSSTRESC": "18",
    "QSSTRESN": 18
  },
  {
    "STUDYID": "CDISCPILOT01",
    "DOMAIN": "QS",
    "USUBJID": "01-701-011",
    "QSSEQ": 5,
    "QSTESTCD": "ACTOT",
    "QSTEST": "ADAS-Cog (11) Total Score",
    "QSCAT": "ADAS-COG",
    "VISITNUM": 7,
    "VISIT": "WEEK 24",
    "QSDTC": "2014-01-16",
    "QSBLFL": "",
    "QSORRES": "15",
    "QSSTRESC": "15",
    "QSSTRESN": 15
  },
  {
    "STUDYID": "CDISCPILOT01",
    "DOMAIN": "QS",
    "USUBJID": "01-701-011",
    "QSSEQ": 6,
    "QSTESTCD": "CIBIC",
    "QSTEST": "CIBIC+ Global Assessment",
    "QSCAT": "CIBIC+",
    "VISITNUM": 7,
    "VISIT": "WEEK 24",
    "QSDTC": "2014-01-16",
    "QSBLFL": "",
    "QSORRES": "MODERATE WORSENING",
    "QSSTRESC": "6",
    "QSSTRESN": 6
  },
  {
    "STUDYID": "CDISCPILOT01",
    "DOMAIN": "QS",
    "USUBJID": "01-701-012",
    "QSSEQ": 1,
    "QSTESTCD": "ACTOT",
    "QSTEST": "ADAS-Cog (11) Total Score",
    "QSCAT": "ADAS-COG",
    "VISITNUM": 1,
    "VISIT": "BASELINE",
    "QSDTC": "2013-03-09",
    "QSBLFL": "Y",
    "QSORRES": "5",
    "QSSTRESC": "5",
    "QSSTRESN": 5
  },
  {
    "STUDYID": "CDISCPILOT01",
    "DOMAIN": "QS",
    "USUBJID": "01-701-012",
    "QSSEQ": 2,
    "QSTESTCD": "ACTOT",
    "QSTEST": "ADAS-Cog (11) Total Score",
    "QSCAT": "ADAS-COG",
    "VISITNUM": 3,
    "VISIT": "WEEK 4",
    "QSDTC": "2013-04-06",
    "QSBLFL": "",
    "QSORRES": "8",
    "QSSTRESC": "8",
    "QSSTRESN": 8
  },
  {
    "STUDYID": "CDISCPILOT01",
    "DOMAIN": "QS",
    "USUBJID": "01-701-012",
    "QSSEQ": 3,
    "QSTESTCD": "ACTOT",
    "QSTEST": "ADAS-Cog (11) Total Score",
    "QSCAT": "ADAS-COG",
    "VISITNUM": 4,
    "VISIT": "WEEK 8",
    "QSDTC": "2013-05-04",
    "QSBLFL": "",
    "QSORRES": "9",
    "QSSTRESC": "9",
    "QSSTRESN": 9
  },
  {
    "STUDYID": "CDISCPILOT01",
    "DOMAIN": "QS",
    "USUBJID": "01-701-012",
    "QSSEQ": 4,
    "QSTESTCD": "ACTOT",
    "QSTEST": "ADAS-Cog (11) Total Score",
    "QSCAT": "ADAS-COG",
    "VISITNUM": 5,
    "VISIT": "WEEK 12",
    "QSDTC": "2013-06-01",
    "QSBLFL": "",
    "QSORRES": "7",
    "QSSTRESC": "7",
    "QSSTRESN": 7
  },
  {
    "STUDYID": "CDISCPILOT01",
    "DOMAIN": "QS",
    "USUBJID": "01-701-012",
    "QSSEQ": 5,
    "QSTESTCD": "ACTOT",
    "QSTEST": "ADAS-Cog (11) Total Score",
    "QSCAT": "ADAS-COG",
    "VISITNUM": 7,
    "VISIT": "WEEK 24",
    "QSDTC": "2013-08-24",
    "QSBLFL": "",
    "QSORRES": "12",
    "QSSTRESC": "12",
    "QSSTRESN": 12
  },
  {
    "STUDYID": "CDISCPILOT01",
    "DOMAIN": "QS",
    "USUBJID": "01-701-012",
    "QSSEQ": 6,
    "QSTESTCD": "CIBIC",
    "QSTEST": "CIBIC+ Global Assessment",
    "QSCAT": "CIBIC+",
    "VISITNUM": 7,
    "VISIT": "WEEK 24",
    "QSDTC": "2013-08-24",
    "QSBLFL": "",
    "QSORRES": "NO CHANGE",
    "QSSTRESC": "4",
    "QSSTRESN": 4
  },
  {
    "STUDYID": "CDISCPILOT01",
    "DOMAIN": "QS",
    "USUBJID": "01-701-013",
    "QSSEQ": 1,
    "QSTESTCD": "ACTOT",
    "QSTEST": "ADAS-Cog (11) Total Score",
    "QSCAT": "ADAS-COG",
    "VISITNUM": 1,
    "VISIT": "BASELINE",
    "QSDTC": "2013-10-22",
    "QSBLFL": "Y",
    "QSORRES": "4",
    "QSSTRESC": "4",
    "QSSTRESN": 4
  },
  {
    "STUDYID": "CDISCPILOT01",
    "DOMAIN": "QS",
    "USUBJID": "01-701-013",
    "QSSEQ": 2,
    "QSTESTCD": "ACTOT",
    "QSTEST": "ADAS-Cog (11) Total Score",
    "QSCAT": "ADAS-COG",
    "VISITNUM": 3,
    "VISIT": "WEEK 4",
    "QSDTC": "2013-11-19",
    "QSBLFL": "",
    "QSORRES": "5",
    "QSSTRESC": "5",
    "QSSTRESN": 5
  },
  {
    "STUDYID": "CDISCPILOT01",
    "DOMAIN": "QS",
    "USUBJID": "01-701-013",
    "QSSEQ": 3,
    "QSTESTCD": "ACTOT",
    "QSTEST": "ADAS-Cog (11) Total Score",
    "QSCAT": "ADAS-COG",
    "VISITNUM": 4,
    "VISIT": "WEEK 8",
    "QSDTC": "2013-12-17",
    "QSBLFL": "",
    "QSORRES": "6",
    "QSSTRESC": "6",
    "QSSTRESN": 6
  },
  {
    "STUDYID": "CDISCPILOT01",
    "DOMAIN": "QS",
    "USUBJID": "01-701-013",
    "QSSEQ": 4,
    "QSTESTCD": "CIBIC",
    "QSTEST": "CIBIC+ Global Assessment",
    "QSCAT": "CIBIC+",
    "VISITNUM": 7,
    "VISIT": "WEEK 24",
    "QSDTC": "2014-04-08",
    "QSBLFL": "",
    "QSORRES": "NO CHANGE",
    "QSSTRESC": "4",
    "QSSTRESN": 4
  },
  {
    "STUDYID": "CDISCPILOT01",
    "DOMAIN": "QS",
    "USUBJID": "01-701-014",
    "QSSEQ": 1,
    "QSTESTCD": "ACTOT",
    "QSTEST": "ADAS-Cog (11) Total Score",
    "QSCAT": "ADAS-COG",
    "VISITNUM": 1,
    "VISIT": "BASELINE",
    "QSDTC": "2013-12-08",
    "QSBLFL": "Y",
    "QSORRES": "3",
    "QSSTRESC": "3",
    "QSSTRESN": 3
  },
  {
    "STUDYID": "CDISCPILOT01",
    "DOMAIN": "QS",
    "USUBJID": "01-701-014",
    "QSSEQ": 2,
    "QSTESTCD": "ACTOT",
    "QSTEST": "ADAS-Cog (11) Total Score",
    "QSCAT": "ADAS-COG",
    "VISITNUM": 3,
    "VISIT": "WEEK 4",
    "QSDTC": "2014-01-05",
    "QSBLFL": "",
    "QSORRES": "4",
    "QSSTRESC": "4",
    "QSSTRESN": 4
  },
  {
    "STUDYID": "CDISCPILOT01",
    "DOMAIN": "QS",
    "USUBJID": "01-701-014",
    "QSSEQ": 3,
    "QSTESTCD": "ACTOT",
    "QSTEST": "ADAS-Cog (11) Total Score",
    "QSCAT": "ADAS-COG",
    "VISITNUM": 4,
    "VISIT": "WEEK 8",
    "QSDTC": "2014-02-02",
    "QSBLFL": "",
    "QSORRES": "8",
    "QSSTRESC": "8",
    "QSSTRESN": 8
  },
  {
    "STUDYID": "CDISCPILOT01",
    "DOMAIN": "QS",
    "USUBJID": "01-701-014",
    "QSSEQ": 4,
    "QSTESTCD": "ACTOT",
    "QSTEST": "ADAS-Cog (11) Total Score",
    "QSCAT": "ADAS-COG",
    "VISITNUM": 5,
    "VISIT": "WEEK 12",
    "QSDTC": "2014-03-02",
    "QSBLFL": "",
    "QSORRES": "7",
    "QSSTRESC": "7",
    "QSSTRESN": 7
  },
  {
    "STUDYID": "CDISCPILOT01",
    "DOMAIN": "QS",
    "USUBJID": "01-701-014",
    "QSSEQ": 5,
    "QSTESTCD": "CIBIC",
    "QSTEST": "CIBIC+ Global Assessment",
    "QSCAT": "CIBIC+",
    "VISITNUM": 7,
    "VISIT": "WEEK 24",
    "QSDTC": "2014-05-25",
    "QSBLFL": "",
    "QSORRES": "NO CHANGE",
    "QSSTRESC": "4",
    "QSSTRESN": 4
  },
  {
    "STUDYID": "CDISCPILOT01",
    "DOMAIN": "QS",
    "USUBJID": "01-701-015",
    "QSSEQ": 1,
    "QSTESTCD": "ACTOT",
    "QSTEST": "ADAS-Cog (11) Total Score",
    "QSCAT": "ADAS-COG",
    "VISITNUM": 1,
    "VISIT": "BASELINE",
    "QSDTC": "2013-07-01",
    "QSBLFL": "Y",
    "QSORRES": "35",
    "QSSTRESC": "35",
    "QSSTRESN": 35
  },
  {
    "STUDYID": "CDISCPILOT01",
    "DOMAIN": "QS",
    "USUBJID": "01-701-015",
    "QSSEQ": 2,
    "QSTESTCD": "ACTOT",
    "QSTEST": "ADAS-Cog (11) Total Score",
    "QSCAT": "ADAS-COG",
    "VISITNUM": 3,
    "VISIT": "WEEK 4",
    "QSDTC": "2013-07-29",
    "QSBLFL": "",
    "QSORRES": "34",
    "QSSTRESC": "34",
    "QSSTRESN": 34
  },
  {
    "STUDYID": "CDISCPILOT01",
    "DOMAIN": "QS",
    "USUBJID": "01-701-015",
    "QSSEQ": 3,
    "QSTESTCD": "ACTOT",
    "QSTEST": "ADAS-Cog (11) Total Score",
    "QSCAT": "ADAS-COG",
    "VISITNUM": 4,
    "VISIT": "WEEK 8",
    "QSDTC": "2013-08-26",
    "QSBLFL": "",
    "QSORRES": "36",
    "QSSTRESC": "36",
    "QSSTRESN": 36
  },
  {
    "STUDYID": "CDISCPILOT01",
    "DOMAIN": "QS",
    "USUBJID": "01-701-015",
    "QSSEQ": 4,
    "QSTESTCD": "ACTOT",
    "QSTEST": "ADAS-Cog (11) Total Score",
    "QSCAT": "ADAS-COG",
    "VISITNUM": 5,
    "VISIT": "WEEK 12",
    "QSDTC": "2013-09-23",
    "QSBLFL": "",
    "QSORRES": "35",
    "QSSTRESC": "35",
    "QSSTRESN": 35
  },
  {
    "STUDYID": "CDISCPILOT01",
    "DOMAIN": "QS",
    "USUBJID": "01-701-015",
    "QSSEQ": 5,
    "QSTESTCD": "ACTOT",
    "QSTEST": "ADAS-Cog (11) Total Score",
    "QSCAT": "ADAS-COG",
    "VISITNUM": 7,
    "VISIT": "WEEK 24",
    "QSDTC": "2013-12-16",
    "QSBLFL": "",
    "QSORRES": "42",
    "QSSTRESC": "42",
    "QSSTRESN": 42
  },
  {
    "STUDYID": "CDISCPILOT01",
    "DOMAIN": "QS",
    "USUBJID": "01-701-015",
    "QSSEQ": 6,
    "QSTESTCD": "CIBIC",
    "QSTEST": "CIBIC+ Global Assessment",
    "QSCAT": "CIBIC+",
    "VISITNUM": 7,
    "VISIT": "WEEK 24",
    "QSDTC": "2013-12-16",
    "QSBLFL": "",
    "QSORRES": "NO CHANGE",
    "QSSTRESC": "4",
    "QSSTRESN": 4
  },
  {
    "STUDYID": "CDISCPILOT01",
    "DOMAIN": "QS",
    "USUBJID": "01-701-016",
    "QSSEQ": 1,
    "QSTESTCD": "ACTOT",
    "QSTEST": "ADAS-Cog (11) Total Score",
    "QSCAT": "ADAS-COG",
    "VISITNUM": 1,
    "VISIT": "BASELINE",
    "QSDTC": "2013-09-14",
    "QSBLFL": "Y",
    "QSORRES": "17",
    "QSSTRESC": "17",
    "QSSTRESN": 17
  },
  {
    "STUDYID": "CDISCPILOT01",
    "DOMAIN": "QS",
    "USUBJID": "01-701-016",
    "QSSEQ": 2,
    "QSTESTCD": "ACTOT",
    "QSTEST": "ADAS-Cog (11) Total Score",
    "QSCAT": "ADAS-COG",
    "VISITNUM": 3,
    "VISIT": "WEEK 4",
    "QSDTC": "2013-10-12",
    "QSBLFL": "",
    "QSORRES": "16",
    "QSSTRESC": "16",
    "QSSTRESN": 16
  },
  {
    "STUDYID": "CDISCPILOT01",
    "DOMAIN": "QS",
    "USUBJID": "01-701-016",
    "QSSEQ": 3,
    "QSTESTCD": "ACTOT",
    "QSTEST": "ADAS-Cog (11) Total Score",
    "QSCAT": "ADAS-COG",
    "VISITNUM": 4,
    "VISIT": "WEEK 8",
    "QSDTC": "2013-11-09",
    "QSBLFL": "",
    "QSORRES": "18",
    "QSSTRESC": "18",
    "QSSTRESN": 18
  },
  {
    "STUDYID": "CDISCPILOT01",
    "DOMAIN": "QS",
    "USUBJID": "01-701-016",
    "QSSEQ": 4,
    "QSTESTCD": "ACTOT",
    "QSTEST": "ADAS-Cog (11) Total Score",
    "QSCAT": "ADAS-COG",
    "VISITNUM": 5,
    "VISIT": "WEEK 12",
    "QSDTC": "2013-12-07",
    "QSBLFL": "",
    "QSORRES": "18",
    "QSSTRESC": "18",
    "QSSTRESN": 18
  },
  {
    "STUDYID": "CDISCPILOT01",
    "DOMAIN": "QS",
    "USUBJID": "01-701-016",
    "QSSEQ": 5,
    "QSTESTCD": "ACTOT",
    "QSTEST": "ADAS-Cog (11) Total Score",
    "QSCAT": "ADAS-COG",
    "VISITNUM": 7,
    "VISIT": "WEEK 24",
    "QSDTC": "2014-03-01",
    "QSBLFL": "",
    "QSORRES": "25",
    "QSSTRESC": "25",
    "QSSTRESN": 25
  },
  {
    "STUDYID": "CDISCPILOT01",
    "DOMAIN": "QS",
    "USUBJID": "01-701-016",
    "QSSEQ": 6,
    "QSTESTCD": "CIBIC",
    "QSTEST": "CIBIC+ Global Assessment",
    "QSCAT": "CIBIC+",
    "VISITNUM": 7,
    "VISIT": "WEEK 24",
    "QSDTC": "2014-03-01",
    "QSBLFL": "",
    "QSORRES": "MINIMAL WORSENING",
    "QSSTRESC": "5",
    "QSSTRESN": 5
  },
  {
    "STUDYID": "CDISCPILOT01",
    "DOMAIN": "QS",
    "USUBJID": "01-701-017",
    "QSSEQ": 1,
    "QSTESTCD": "ACTOT",
    "QSTEST": "ADAS-Cog (11) Total Score",
    "QSCAT": "ADAS-COG",
    "VISITNUM": 1,
    "VISIT": "BASELINE",
    "QSDTC": "2013-05-29",
    "QSBLFL": "Y",
    "QSORRES": "3",
    "QSSTRESC": "3",
    "QSSTRESN": 3
  },
  {
    "STUDYID": "CDISCPILOT01",
    "DOMAIN": "QS",
    "USUBJID": "01-701-017",
    "QSSEQ": 2,
    "QSTESTCD": "ACTOT",
    "QSTEST": "ADAS-Cog (11) Total Score",
    "QSCAT": "ADAS-COG",
    "VISITNUM": 3,
    "VISIT": "WEEK 4",
    "QSDTC": "2013-06-26",
    "QSBLFL": "",
    "QSORRES": "5",
    "QSSTRESC": "5",
    "QSSTRESN": 5
  },
  {
    "STUDYID": "CDISCPILOT01",
    "DOMAIN": "QS",
    "USUBJID": "01-701-017",
    "QSSEQ": 3,
    "QSTESTCD": "ACTOT",
    "QSTEST": "ADAS-Cog (11) Total Score",
    "QSCAT": "ADAS-COG",
    "VISITNUM": 4,
    "VISIT": "WEEK 8",
    "QSDTC": "2013-07-24",
    "QSBLFL": "",
    "QSORRES": "7",
    "QSSTRESC": "7",
    "QSSTRESN": 7
  },
  {
    "STUDYID": "CDISCPILOT01",
    "DOMAIN": "QS",
    "USUBJID": "01-701-017",
    "QSSEQ": 4,
    "QSTESTCD": "ACTOT",
    "QSTEST": "ADAS-Cog (11) Total Score",
    "QSCAT": "ADAS-COG",
    "VISITNUM": 5,
    "VISIT": "WEEK 12",
    "QSDTC": "2013-08-21",
    "QSBLFL": "",
    "QSORRES": "3",
    "QSSTRESC": "3",
    "QSSTRESN": 3
  },
  {
    "STUDYID": "CDISCPILOT01",
    "DOMAIN": "QS",
    "USUBJID": "01-701-017",
    "QSSEQ": 5,
    "QSTESTCD": "ACTOT",
    "QSTEST": "ADAS-Cog (11) Total Score",
    "QSCAT": "ADAS-COG",
    "VISITNUM": 7,
    "VISIT": "WEEK 24",
    "QSDTC": "2013-11-13",
    "QSBLFL": "",
    "QSORRES": "3",
    "QSSTRESC": "3",
    "QSSTRESN": 3
  },
  {
    "STUDYID": "CDISCPILOT01",
    "DOMAIN": "QS",
    "USUBJID": "01-701-017",
    "QSSEQ": 6,
    "QSTESTCD": "CIBIC",
    "QSTEST": "CIBIC+ Global Assessment",
    "QSCAT": "CIBIC+",
    "VISITNUM": 7,
    "VISIT": "WEEK 24",
    "QSDTC": "2013-11-13",
    "QSBLFL": "",
    "QSORRES": "MODERATE IMPROVEMENT",
    "QSSTRESC": "2",
    "QSSTRESN": 2
  },
  {
    "STUDYID": "CDISCPILOT01",
    "DOMAIN": "QS",
    "USUBJID": "01-701-018",
    "QSSEQ": 1,
    "QSTESTCD": "ACTOT",
    "QSTEST": "ADAS-Cog (11) Total Score",
    "QSCAT": "ADAS-COG",
    "VISITNUM": 1,
    "VISIT": "BASELINE",
    "QSDTC": "2013-04-14",
    "QSBLFL": "Y",
    "QSORRES": "13",
    "QSSTRESC": "13",
    "QSSTRESN": 13
  },
  {
    "STUDYID": "CDISCPILOT01",
    "DOMAIN": "QS",
    "USUBJID": "01-701-018",
    "QSSEQ": 2,
    "QSTESTCD": "ACTOT",
    "QSTEST": "ADAS-Cog (11) Total Score",
    "QSCAT": "ADAS-COG",
    "VISITNUM": 3,
    "VISIT": "WEEK 4",
    "QSDTC": "2013-05-12",
    "QSBLFL": "",
    "QSORRES": "11",
    "QSSTRESC": "11",
    "QSSTRESN": 11
  },
  {
    "STUDYID": "CDISCPILOT01",
    "DOMAIN": "QS",
    "USUBJID": "01-701-018",
    "QSSEQ": 3,
    "QSTESTCD": "ACTOT",
    "QSTEST": "ADAS-Cog (11) Total Score",
    "QSCAT": "ADAS-COG",
    "VISITNUM": 4,
    "VISIT": "WEEK 8",
    "QSDTC": "2013-06-09",
    "QSBLFL": "",
    "QSORRES": "10",
    "QSSTRESC": "10",
    "QSSTRESN": 10
  },
  {
    "STUDYID": "CDISCPILOT01",
    "DOMAIN": "QS",
    "USUBJID": "01-701-018",
    "QSSEQ": 4,
    "QSTESTCD": "ACTOT",
    "QSTEST": "ADAS-Cog (11) Total Score",
    "QSCAT": "ADAS-COG",
    "VISITNUM": 5,
    "VISIT": "WEEK 12",
    "QSDTC": "2013-07-07",
    "QSBLFL": "",
    "QSORRES": "22",
    "QSSTRESC": "22",
    "QSSTRESN": 22
  },
  {
    "STUDYID": "CDISCPILOT01",
    "DOMAIN": "QS",
    "USUBJID": "01-701-018",
    "QSSEQ": 5,
    "QSTESTCD": "ACTOT",
    "QSTEST": "ADAS-Cog (11) Total Score",
    "QSCAT": "ADAS-COG",
    "VISITNUM": 7,
    "VISIT": "WEEK 24",
    "QSDTC": "2013-09-29",
    "QSBLFL": "",
    "QSORRES": "21",
    "QSSTRESC": "21",
    "QSSTRESN": 21
  },
  {
    "STUDYID": "CDISCPILOT01",
    "DOMAIN": "QS",
    "USUBJID": "01-701-018",
    "QSSEQ": 6,
    "QSTESTCD": "CIBIC",
    "QSTEST": "CIBIC+ Global Assessment",
    "QSCAT": "CIBIC+",
    "VISITNUM": 7,
    "VISIT": "WEEK 24",
    "QSDTC": "2013-09-29",
    "QSBLFL": "",
    "QSORRES": "MINIMAL WORSENING",
    "QSSTRESC": "5",
    "QSSTRESN": 5
  },
  {
    "STUDYID": "CDISCPILOT01",
    "DOMAIN": "QS",
    "USUBJID": "01-701-019",
    "QSSEQ": 1,
    "QSTESTCD": "ACTOT",
    "QSTEST": "ADAS-Cog (11) Total Score",
    "QSCAT": "ADAS-COG",
    "VISITNUM": 1,
    "VISIT": "BASELINE",
    "QSDTC": "2013-04-14",
    "QSBLFL": "Y",
    "QSORRES": "30",
    "QSSTRESC": "30",
    "QSSTRESN": 30
  },
  {
    "STUDYID": "CDISCPILOT01",
    "DOMAIN": "QS",
    "USUBJID": "01-701-019",
    "QSSEQ": 2,
    "QSTESTCD": "CIBIC",
    "QSTEST": "CIBIC+ Global Assessment",
    "QSCAT": "CIBIC+",
    "VISITNUM": 7,
    "VISIT": "WEEK 24",
    "QSDTC": "2013-09-29",
    "QSBLFL": "",
    "QSORRES": "MINIMAL WORSENING",
    "QSSTRESC": "5",
    "QSSTRESN": 5
  },
  {
    "STUDYID": "CDISCPILOT01",
    "DOMAIN": "QS",
    "USUBJID": "01-701-020",
    "QSSEQ": 1,
    "QSTESTCD": "ACTOT",
    "QSTEST": "ADAS-Cog (11) Total Score",
    "QSCAT": "ADAS-COG",
    "VISITNUM": 1,
    "VISIT": "BASELINE",
    "QSDTC": "2013-04-10",
    "QSBLFL": "Y",
    "QSORRES": "29",
    "QSSTRESC": "29",
    "QSSTRESN": 29
  },
  {
    "STUDYID": "CDISCPILOT01",
    "DOMAIN": "QS",
    "USUBJID": "01-701-020",
    "QSSEQ": 2,
    "QSTESTCD": "ACTOT",
    "QSTEST": "ADAS-Cog (11) Total Score",
    "QSCAT": "ADAS-COG",
    "VISITNUM": 3,
    "VISIT": "WEEK 4",
    "QSDTC": "2013-05-08",
    "QSBLFL": "",
    "QSORRES": "30",
    "QSSTRESC": "30",
    "QSSTRESN": 30
  },
  {
    "STUDYID": "CDISCPILOT01",
    "DOMAIN": "QS",
    "USUBJID": "01-701-020",
    "QSSEQ": 3,
    "QSTESTCD": "ACTOT",
    "QSTEST": "ADAS-Cog (11) Total Score",
    "QSCAT": "ADAS-COG",
    "VISITNUM": 4,
    "VISIT": "WEEK 8",
    "QSDTC": "2013-06-05",
    "QSBLFL": "",
    "QSORRES": "24",
    "QSSTRESC": "24",
    "QSSTRESN": 24
  },
  {
    "STUDYID": "CDISCPILOT01",
    "DOMAIN": "QS",
    "USUBJID": "01-701-020",
    "QSSEQ": 4,
    "QSTESTCD": "ACTOT",
    "QSTEST": "ADAS-Cog (11) Total Score",
    "QSCAT": "ADAS-COG",
    "VISITNUM": 5,
    "VISIT": "WEEK 12",
    "QSDTC": "2013-07-03",
    "QSBLFL": "",
    "QSORRES": "31",
    "QSSTRESC": "31",
    "QSSTRESN": 31
  },
  {
    "STUDYID": "CDISCPILOT01",
    "DOMAIN": "QS",
    "USUBJID": "01-701-020",
    "QSSEQ": 5,
    "QSTESTCD": "ACTOT",
    "QSTEST": "ADAS-Cog (11) Total Score",
    "QSCAT": "ADAS-COG",
    "VISITNUM": 7,
    "VISIT": "WEEK 24",
    "QSDTC": "2013-09-25",
    "QSBLFL": "",
    "QSORRES": "36",
    "QSSTRESC": "36",
    "QSSTRESN": 36
  },
  {
    "STUDYID": "CDISCPILOT01",
    "DOMAIN": "QS",
    "USUBJID": "01-701-020",
    "QSSEQ": 6,
    "QSTESTCD": "CIBIC",
    "QSTEST": "CIBIC+ Global Assessment",
    "QSCAT": "CIBIC+",
    "VISITNUM": 7,
    "VISIT": "WEEK 24",
    "QSDTC": "2013-09-25",
    "QSBLFL": "",
    "QSORRES": "NO CHANGE",
    "QSSTRESC": "4",
    "QSSTRESN": 4
  },
  {
    "STUDYID": "CDISCPILOT01",
    "DOMAIN": "QS",
    "USUBJID": "01-701-021",
    "QSSEQ": 1,
    "QSTESTCD": "ACTOT",
    "QSTEST": "ADAS-Cog (11) Total Score",
    "QSCAT": "ADAS-COG",
    "VISITNUM": 1,
    "VISIT": "BASELINE",
    "QSDTC": "2013-04-13",
    "QSBLFL": "Y",
    "QSORRES": "20",
    "QSSTRESC": "20",
    "QSSTRESN": 20
  },
  {
    "STUDYID": "CDISCPILOT01",
    "DOMAIN": "QS",
    "USUBJID": "01-701-021",
    "QSSEQ": 2,
    "QSTESTCD": "ACTOT",
    "QSTEST": "ADAS-Cog (11) Total Score",
    "QSCAT": "ADAS-COG",
    "VISITNUM": 3,
    "VISIT": "WEEK 4",
    "QSDTC": "2013-05-11",
    "QSBLFL": "",
    "QSORRES": "16",
    "QSSTRESC": "16",
    "QSSTRESN": 16
  },
  {
    "STUDYID": "CDISCPILOT01",
    "DOMAIN": "QS",
    "USUBJID": "01-701-021",
    "QSSEQ": 3,
    "QSTESTCD": "ACTOT",
    "QSTEST": "ADAS-Cog (11) Total Score",
    "QSCAT": "ADAS-COG",
    "VISITNUM": 4,
    "VISIT": "WEEK 8",
    "QSDTC": "2013-06-08",
    "QSBLFL": "",
    "QSORRES": "24",
    "QSSTRESC": "24",
    "QSSTRESN": 24
  },
  {
    "STUDYID": "CDISCPILOT01",
    "DOMAIN": "QS",
    "USUBJID": "01-701-021",
    "QSSEQ": 4,
    "QSTESTCD": "ACTOT",
    "QSTEST": "ADAS-Cog (11) Total Score",
    "QSCAT": "ADAS-COG",
    "VISITNUM": 5,
    "VISIT": "WEEK 12",
    "QSDTC": "2013-07-06",
    "QSBLFL": "",
    "QSORRES": "23",
    "QSSTRESC": "23",
    "QSSTRESN": 23
  },
  {
    "STUDYID": "CDISCPILOT01",
    "DOMAIN": "QS",
    "USUBJID": "01-701-021",
    "QSSEQ": 5,
    "QSTESTCD": "ACTOT",
    "QSTEST": "ADAS-Cog (11) Total Score",
    "QSCAT": "ADAS-COG",
    "VISITNUM": 7,
    "VISIT": "WEEK 24",
    "QSDTC": "2013-09-28",
    "QSBLFL": "",
    "QSORRES": "22",
    "QSSTRESC": "22",
    "QSSTRESN": 22
  },
  {
    "STUDYID": "CDISCPILOT01",
    "DOMAIN": "QS",
    "USUBJID": "01-701-021",
    "QSSEQ": 6,
    "QSTESTCD": "CIBIC",
    "QSTEST": "CIBIC+ Global Assessment",
    "QSCAT": "CIBIC+",
    "VISITNUM": 7,
    "VISIT": "WEEK 24",
    "QSDTC": "2013-09-28",
    "QSBLFL": "",
    "QSORRES": "NO CHANGE",
    "QSSTRESC": "4",
    "QSSTRESN": 4
  },
  {
    "STUDYID": "CDISCPILOT01",
    "DOMAIN": "QS",
    "USUBJID": "01-701-022",
    "QSSEQ": 1,
    "QSTESTCD": "ACTOT",
    "QSTEST": "ADAS-Cog (11) Total Score",
    "QSCAT": "ADAS-COG",
    "VISITNUM": 1,
    "VISIT": "BASELINE",
    "QSDTC": "2013-09-30",
    "QSBLFL": "Y",
    "QSORRES": "14",
    "QSSTRESC": "14",
    "QSSTRESN": 14
  },
  {
    "STUDYID": "CDISCPILOT01",
    "DOMAIN": "QS",
    "USUBJID": "01-701-022",
    "QSSEQ": 2,
    "QSTESTCD": "ACTOT",
    "QSTEST": "ADAS-Cog (11) Total Score",
    "QSCAT": "ADAS-COG",
    "VISITNUM": 3,
    "VISIT": "WEEK 4",
    "QSDTC": "2013-10-28",
    "QSBLFL": "",
    "QSORRES": "13",
    "QSSTRESC": "13",
    "QSSTRESN": 13
  },
  {
    "STUDYID": "CDISCPILOT01",
    "DOMAIN": "QS",
    "USUBJID": "01-701-022",
    "QSSEQ": 3,
    "QSTESTCD": "ACTOT",
    "QSTEST": "ADAS-Cog (11) Total Score",
    "QSCAT": "ADAS-COG",
    "VISITNUM": 4,
    "VISIT": "WEEK 8",
    "QSDTC": "2013-11-25",
    "QSBLFL": "",
    "QSORRES": "15",
    "QSSTRESC": "15",
    "QSSTRESN": 15
  },
  {
    "STUDYID": "CDISCPILOT01",
    "DOMAIN": "QS",
    "USUBJID": "01-701-022",
    "QSSEQ": 4,
    "QSTESTCD": "ACTOT",
    "QSTEST": "ADAS-Cog (11) Total Score",
    "QSCAT": "ADAS-COG",
    "VISITNUM": 5,
    "VISIT": "WEEK 12",
    "QSDTC": "2013-12-23",
    "QSBLFL": "",
    "QSORRES": "12",
    "QSSTRESC": "12",
    "QSSTRESN": 12
  },
  {
    "STUDYID": "CDISCPILOT01",
    "DOMAIN": "QS",
    "USUBJID": "01-701-022",
    "QSSEQ": 5,
    "QSTESTCD": "ACTOT",
    "QSTEST": "ADAS-Cog (11) Total Score",
    "QSCAT": "ADAS-COG",
    "VISITNUM": 7,
    "VISIT": "WEEK 24",
    "QSDTC": "2014-03-17",
    "QSBLFL": "",
    "QSORRES": "17",
    "QSSTRESC": "17",
    "QSSTRESN": 17
  },
  {
    "STUDYID": "CDISCPILOT01",
    "DOMAIN": "QS",
    "USUBJID": "01-701-022",
    "QSSEQ": 6,
    "QSTESTCD": "CIBIC",
    "QSTEST": "CIBIC+ Global Assessment",
    "QSCAT": "CIBIC+",
    "VISITNUM": 7,
    "VISIT": "WEEK 24",
    "QSDTC": "2014-03-17",
    "QSBLFL": "",
    "QSORRES": "MINIMAL IMPROVEMENT",
    "QSSTRESC": "3",
    "QSSTRESN": 3
  },
  {
    "STUDYID": "CDISCPILOT01",
    "DOMAIN": "QS",
    "USUBJID": "01-701-023",
    "QSSEQ": 1,
    "QSTESTCD": "ACTOT",
    "QSTEST": "ADAS-Cog (11) Total Score",
    "QSCAT": "ADAS-COG",
    "VISITNUM": 1,
    "VISIT": "BASELINE",
    "QSDTC": "2013-07-26",
    "QSBLFL": "Y",
    "QSORRES": "34",
    "QSSTRESC": "34",
    "QSSTRESN": 34
  },
  {
    "STUDYID": "CDISCPILOT01",
    "DOMAIN": "QS",
    "USUBJID": "01-701-023",
    "QSSEQ": 2,
    "QSTESTCD": "ACTOT",
    "QSTEST": "ADAS-Cog (11) Total Score",
    "QSCAT": "ADAS-COG",
    "VISITNUM": 3,
    "VISIT": "WEEK 4",
    "QSDTC": "2013-08-23",
    "QSBLFL": "",
    "QSORRES": "34",
    "QSSTRESC": "34",
    "QSSTRESN": 34
  },
  {
    "STUDYID": "CDISCPILOT01",
    "DOMAIN": "QS",
    "USUBJID": "01-701-023",
    "QSSEQ": 3,
    "QSTESTCD": "ACTOT",
    "QSTEST": "ADAS-Cog (11) Total Score",
    "QSCAT": "ADAS-COG",
    "VISITNUM": 4,
    "VISIT": "WEEK 8",
    "QSDTC": "2013-09-20",
    "QSBLFL": "",
    "QSORRES": "34",
    "QSSTRESC": "34",
    "QSSTRESN": 34
  },
  {
    "STUDYID": "CDISCPILOT01",
    "DOMAIN": "QS",
    "USUBJID": "01-701-023",
    "QSSEQ": 4,
    "QSTESTCD": "ACTOT",
    "QSTEST": "ADAS-Cog (11) Total Score",
    "QSCAT": "ADAS-COG",
    "VISITNUM": 5,
    "VISIT": "WEEK 12",
    "QSDTC": "2013-10-18",
    "QSBLFL": "",
    "QSORRES": "32",
    "QSSTRESC": "32",
    "QSSTRESN": 32
  },
  {
    "STUDYID": "CDISCPILOT01",
    "DOMAIN": "QS",
    "USUBJID": "01-701-023",
    "QSSEQ": 5,
    "QSTESTCD": "ACTOT",
    "QSTEST": "ADAS-Cog (11) Total Score",
    "QSCAT": "ADAS-COG",
    "VISITNUM": 7,
    "VISIT": "WEEK 24",
    "QSDTC": "2014-01-10",
    "QSBLFL": "",
    "QSORRES": "34",
    "QSSTRESC": "34",
    "QSSTRESN": 34
  },
  {
    "STUDYID": "CDISCPILOT01",
    "DOMAIN": "QS",
    "USUBJID": "01-701-023",
    "QSSEQ": 6,
    "QSTESTCD": "CIBIC",
    "QSTEST": "CIBIC+ Global Assessment",
    "QSCAT": "CIBIC+",
    "VISITNUM": 7,
    "VISIT": "WEEK 24",
    "QSDTC": "2014-01-10",
    "QSBLFL": "",
    "QSORRES": "MINIMAL WORSENING",
    "QSSTRESC": "5",
    "QSSTRESN": 5
  },
  {
    "STUDYID": "CDISCPILOT01",
    "DOMAIN": "QS",
    "USUBJID": "01-701-024",
    "QSSEQ": 1,
    "QSTESTCD": "ACTOT",
    "QSTEST": "ADAS-Cog (11) Total Score",
    "QSCAT": "ADAS-COG",
    "VISITNUM": 1,
    "VISIT": "BASELINE",
    "QSDTC": "2013-12-20",
    "QSBLFL": "Y",
    "QSORRES": "10",
    "QSSTRESC": "10",
    "QSSTRESN": 10
  },
  {
    "STUDYID": "CDISCPILOT01",
    "DOMAIN": "QS",
    "USUBJID": "01-701-024",
    "QSSEQ": 2,
    "QSTESTCD": "ACTOT",
    "QSTEST": "ADAS-Cog (11) Total Score",
    "QSCAT": "ADAS-COG",
    "VISITNUM": 3,
    "VISIT": "WEEK 4",
    "QSDTC": "2014-01-17",
    "QSBLFL": "",
    "QSORRES": "13",
    "QSSTRESC": "13",
    "QSSTRESN": 13
  },
  {
    "STUDYID": "CDISCPILOT01",
    "DOMAIN": "QS",
    "USUBJID": "01-701-024",
    "QSSEQ": 3,
    "QSTESTCD": "ACTOT",
    "QSTEST": "ADAS-Cog (11) Total Score",
    "QSCAT": "ADAS-COG",
    "VISITNUM": 4,
    "VISIT": "WEEK 8",
    "QSDTC": "2014-02-14",
    "QSBLFL": "",
    "QSORRES": "15",
    "QSSTRESC": "15",
    "QSSTRESN": 15
  },
  {
    "STUDYID": "CDISCPILOT01",
    "DOMAIN": "QS",
    "USUBJID": "01-701-024",
    "QSSEQ": 4,
    "QSTESTCD": "ACTOT",
    "QSTEST": "ADAS-Cog (11) Total Score",
    "QSCAT": "ADAS-COG",
    "VISITNUM": 5,
    "VISIT": "WEEK 12",
    "QSDTC": "2014-03-14",
    "QSBLFL": "",
    "QSORRES": "3",
    "QSSTRESC": "3",
    "QSSTRESN": 3
  },
  {
    "STUDYID": "CDISCPILOT01",
    "DOMAIN": "QS",
    "USUBJID": "01-701-024",
    "QSSEQ": 5,
    "QSTESTCD": "ACTOT",
    "QSTEST": "ADAS-Cog (11) Total Score",
    "QSCAT": "ADAS-COG",
    "VISITNUM": 7,
    "VISIT": "WEEK 24",
    "QSDTC": "2014-06-06",
    "QSBLFL": "",
    "QSORRES": "3",
    "QSSTRESC": "3",
    "QSSTRESN": 3
  },
  {
    "STUDYID": "CDISCPILOT01",
    "DOMAIN": "QS",
    "USUBJID": "01-701-024",
    "QSSEQ": 6,
    "QSTESTCD": "CIBIC",
    "QSTEST": "CIBIC+ Global Assessment",
    "QSCAT": "CIBIC+",
    "VISITNUM": 7,
    "VISIT": "WEEK 24",
    "QSDTC": "2014-06-06",
    "QSBLFL": "",
    "QSORRES": "MINIMAL WORSENING",
    "QSSTRESC": "5",
    "QSSTRESN": 5
  },
  {
    "STUDYID": "CDISCPILOT01",
    "DOMAIN": "QS",
    "USUBJID": "01-701-025",
    "QSSEQ": 1,
    "QSTESTCD": "ACTOT",
    "QSTEST": "ADAS-Cog (11) Total Score",
    "QSCAT": "ADAS-COG",
    "VISITNUM": 1,
    "VISIT": "BASELINE",
    "QSDTC": "2013-11-23",
    "QSBLFL": "Y",
    "QSORRES": "3",
    "QSSTRESC": "3",
    "QSSTRESN": 3
  },
  {
    "STUDYID": "CDISCPILOT01",
    "DOMAIN": "QS",
    "USUBJID": "01-701-025",
    "QSSEQ": 2,
    "QSTESTCD": "ACTOT",
    "QSTEST": "ADAS-Cog (11) Total Score",
    "QSCAT": "ADAS-COG",
    "VISITNUM": 3,
    "VISIT": "WEEK 4",
    "QSDTC": "2013-12-21",
    "QSBLFL": "",
    "QSORRES": "3",
    "QSSTRESC": "3",
    "QSSTRESN": 3
  },
  {
    "STUDYID": "CDISCPILOT01",
    "DOMAIN": "QS",
    "USUBJID": "01-701-025",
    "QSSEQ": 3,
    "QSTESTCD": "ACTOT",
    "QSTEST": "ADAS-Cog (11) Total Score",
    "QSCAT": "ADAS-COG",
    "VISITNUM": 4,
    "VISIT": "WEEK 8",
    "QSDTC": "2014-01-18",
    "QSBLFL": "",
    "QSORRES": "9",
    "QSSTRESC": "9",
    "QSSTRESN": 9
  },
  {
    "STUDYID": "CDISCPILOT01",
    "DOMAIN": "QS",
    "USUBJID": "01-701-025",
    "QSSEQ": 4,
    "QSTESTCD": "ACTOT",
    "QSTEST": "ADAS-Cog (11) Total Score",
    "QSCAT": "ADAS-COG",
    "VISITNUM": 5,
    "VISIT": "WEEK 12",
    "QSDTC": "2014-02-15",
    "QSBLFL": "",
    "QSORRES": "6",
    "QSSTRESC": "6",
    "QSSTRESN": 6
  },
  {
    "STUDYID": "CDISCPILOT01",
    "DOMAIN": "QS",
    "USUBJID": "01-701-025",
    "QSSEQ": 5,
    "QSTESTCD": "ACTOT",
    "QSTEST": "ADAS-Cog (11) Total Score",
    "QSCAT": "ADAS-COG",
    "VISITNUM": 7,
    "VISIT": "WEEK 24",
    "QSDTC": "2014-05-10",
    "QSBLFL": "",
    "QSORRES": "11",
    "QSSTRESC": "11",
    "QSSTRESN": 11
  },
  {
    "STUDYID": "CDISCPILOT01",
    "DOMAIN": "QS",
    "USUBJID": "01-701-025",
    "QSSEQ": 6,
    "QSTESTCD": "CIBIC",
    "QSTEST": "CIBIC+ Global Assessment",
    "QSCAT": "CIBIC+",
    "VISITNUM": 7,
    "VISIT": "WEEK 24",
    "QSDTC": "2014-05-10",
    "QSBLFL": "",
    "QSORRES": "NO CHANGE",
    "QSSTRESC": "4",
    "QSSTRESN": 4
  },
  {
    "STUDYID": "CDISCPILOT01",
    "DOMAIN": "QS",
    "USUBJID": "01-701-026",
    "QSSEQ": 1,
    "QSTESTCD": "ACTOT",
    "QSTEST": "ADAS-Cog (11) Total Score",
    "QSCAT": "ADAS-COG",
    "VISITNUM": 1,
    "VISIT": "BASELINE",
    "QSDTC": "2013-03-06",
    "QSBLFL": "Y",
    "QSORRES": "26",
    "QSSTRESC": "26",
    "QSSTRESN": 26
  },
  {
    "STUDYID": "CDISCPILOT01",
    "DOMAIN": "QS",
    "USUBJID": "01-701-026",
    "QSSEQ": 2,
    "QSTESTCD": "ACTOT",
    "QSTEST": "ADAS-Cog (11) Total Score",
    "QSCAT": "ADAS-COG",
    "VISITNUM": 3,
    "VISIT": "WEEK 4",
    "QSDTC": "2013-04-03",
    "QSBLFL": "",
    "QSORRES": "24",
    "QSSTRESC": "24",
    "QSSTRESN": 24
  },
  {
    "STUDYID": "CDISCPILOT01",
    "DOMAIN": "QS",
    "USUBJID": "01-701-026",
    "QSSEQ": 3,
    "QSTESTCD": "ACTOT",
    "QSTEST": "ADAS-Cog (11) Total Score",
    "QSCAT": "ADAS-COG",
    "VISITNUM": 4,
    "VISIT": "WEEK 8",
    "QSDTC": "2013-05-01",
    "QSBLFL": "",
    "QSORRES": "31",
    "QSSTRESC": "31",
    "QSSTRESN": 31
  },
  {
    "STUDYID": "CDISCPILOT01",
    "DOMAIN": "QS",
    "USUBJID": "01-701-026",
    "QSSEQ": 4,
    "QSTESTCD": "ACTOT",
    "QSTEST": "ADAS-Cog (11) Total Score",
    "QSCAT": "ADAS-COG",
    "VISITNUM": 5,
    "VISIT": "WEEK 12",
    "QSDTC": "2013-05-29",
    "QSBLFL": "",
    "QSORRES": "30",
    "QSSTRESC": "30",
    "QSSTRESN": 30
  },
  {
    "STUDYID": "CDISCPILOT01",
    "DOMAIN": "QS",
    "USUBJID": "01-701-026",
    "QSSEQ": 5,
    "QSTESTCD": "ACTOT",
    "QSTEST": "ADAS-Cog (11) Total Score",
    "QSCAT": "ADAS-COG",
    "VISITNUM": 7,
    "VISIT": "WEEK 24",
    "QSDTC": "2013-08-21",
    "QSBLFL": "",
    "QSORRES": "33",
    "QSSTRESC": "33",
    "QSSTRESN": 33
  },
  {
    "STUDYID": "CDISCPILOT01",
    "DOMAIN": "QS",
    "USUBJID": "01-701-026",
    "QSSEQ": 6,
    "QSTESTCD": "CIBIC",
    "QSTEST": "CIBIC+ Global Assessment",
    "QSCAT": "CIBIC+",
    "VISITNUM": 7,
    "VISIT": "WEEK 24",
    "QSDTC": "2013-08-21",
    "QSBLFL": "",
    "QSORRES": "MINIMAL IMPROVEMENT",
    "QSSTRESC": "3",
    "QSSTRESN": 3
  },
  {
    "STUDYID": "CDISCPILOT01",
    "DOMAIN": "QS",
    "USUBJID": "01-701-027",
    "QSSEQ": 1,
    "QSTESTCD": "ACTOT",
    "QSTEST": "ADAS-Cog (11) Total Score",
    "QSCAT": "ADAS-COG",
    "VISITNUM": 1,
    "VISIT": "BASELINE",
    "QSDTC": "2013-11-28",
    "QSBLFL": "Y",
    "QSORRES": "12",
    "QSSTRESC": "12",
    "QSSTRESN": 12
  },
  {
    "STUDYID": "CDISCPILOT01",
    "DOMAIN": "QS",
    "USUBJID": "01-701-027",
    "QSSEQ": 2,
    "QSTESTCD": "ACTOT",
    "QSTEST": "ADAS-Cog (11) Total Score",
    "QSCAT": "ADAS-COG",
    "VISITNUM": 3,
    "VISIT": "WEEK 4",
    "QSDTC": "2013-12-26",
    "QSBLFL": "",
    "QSORRES": "12",
    "QSSTRESC": "12",
    "QSSTRESN": 12
  },
  {
    "STUDYID": "CDISCPILOT01",
    "DOMAIN": "QS",
    "USUBJID": "01-701-027",
    "QSSEQ": 3,
    "QSTESTCD": "ACTOT",
    "QSTEST": "ADAS-Cog (11) Total Score",
    "QSCAT": "ADAS-COG",
    "VISITNUM": 4,
    "VISIT": "WEEK 8",
    "QSDTC": "2014-01-23",
    "QSBLFL": "",
    "QSORRES": "15",
    "QSSTRESC": "15",
    "QSSTRESN": 15
  },
  {
    "STUDYID": "CDISCPILOT01",
    "DOMAIN": "QS",
    "USUBJID": "01-701-027",
    "QSSEQ": 4,
    "QSTESTCD": "CIBIC",
    "QSTEST": "CIBIC+ Global Assessment",
    "QSCAT": "CIBIC+",
    "VISITNUM": 7,
    "VISIT": "WEEK 24",
    "QSDTC": "2014-05-15",
    "QSBLFL": "",
    "QSORRES": "MINIMAL WORSENING",
    "QSSTRESC": "5",
    "QSSTRESN": 5
  },
  {
    "STUDYID": "CDISCPILOT01",
    "DOMAIN": "QS",
    "USUBJID": "01-701-028",
    "QSSEQ": 1,
    "QSTESTCD": "ACTOT",
    "QSTEST": "ADAS-Cog (11) Total Score",
    "QSCAT": "ADAS-COG",
    "VISITNUM": 1,
    "VISIT": "BASELINE",
    "QSDTC": "2013-07-27",
    "QSBLFL": "Y",
    "QSORRES": "40",
    "QSSTRESC": "40",
    "QSSTRESN": 40
  },
  {
    "STUDYID": "CDISCPILOT01",
    "DOMAIN": "QS",
    "USUBJID": "01-701-028",
    "QSSEQ": 2,
    "QSTESTCD": "ACTOT",
    "QSTEST": "ADAS-Cog (11) Total Score",
    "QSCAT": "ADAS-COG",
    "VISITNUM": 3,
    "VISIT": "WEEK 4",
    "QSDTC": "2013-08-24",
    "QSBLFL": "",
    "QSORRES": "40",
    "QSSTRESC": "40",
    "QSSTRESN": 40
  },
  {
    "STUDYID": "CDISCPILOT01",
    "DOMAIN": "QS",
    "USUBJID": "01-701-028",
    "QSSEQ": 3,
    "QSTESTCD": "ACTOT",
    "QSTEST": "ADAS-Cog (11) Total Score",
    "QSCAT": "ADAS-COG",
    "VISITNUM": 4,
    "VISIT": "WEEK 8",
    "QSDTC": "2013-09-21",
    "QSBLFL": "",
    "QSORRES": "38",
    "QSSTRESC": "38",
    "QSSTRESN": 38
  },
  {
    "STUDYID": "CDISCPILOT01",
    "DOMAIN": "QS",
    "USUBJID": "01-701-028",
    "QSSEQ": 4,
    "QSTESTCD": "ACTOT",
    "QSTEST": "ADAS-Cog (11) Total Score",
    "QSCAT": "ADAS-COG",
    "VISITNUM": 5,
    "VISIT": "WEEK 12",
    "QSDTC": "2013-10-19",
    "QSBLFL": "",
    "QSORRES": "39",
    "QSSTRESC": "39",
    "QSSTRESN": 39
  },
  {
    "STUDYID": "CDISCPILOT01",
    "DOMAIN": "QS",
    "USUBJID": "01-701-028",
    "QSSEQ": 5,
    "QSTESTCD": "ACTOT",
    "QSTEST": "ADAS-Cog (11) Total Score",
    "QSCAT": "ADAS-COG",
    "VISITNUM": 7,
    "VISIT": "WEEK 24",
    "QSDTC": "2014-01-11",
    "QSBLFL": "",
    "QSORRES": "45",
    "QSSTRESC": "45",
    "QSSTRESN": 45
  },
  {
    "STUDYID": "CDISCPILOT01",
    "DOMAIN": "QS",
    "USUBJID": "01-701-028",
    "QSSEQ": 6,
    "QSTESTCD": "CIBIC",
    "QSTEST": "CIBIC+ Global Assessment",
    "QSCAT": "CIBIC+",
    "VISITNUM": 7,
    "VISIT": "WEEK 24",
    "QSDTC": "2014-01-11",
    "QSBLFL": "",
    "QSORRES": "MINIMAL WORSENING",
    "QSSTRESC": "5",
    "QSSTRESN": 5
  },
  {
    "STUDYID": "CDISCPILOT01",
    "DOMAIN": "QS",
    "USUBJID": "01-701-029",
    "QSSEQ": 1,
    "QSTESTCD": "ACTOT",
    "QSTEST": "ADAS-Cog (11) Total Score",
    "QSCAT": "ADAS-COG",
    "VISITNUM": 1,
    "VISIT": "BASELINE",
    "QSDTC": "2013-10-29",
    "QSBLFL": "Y",
    "QSORRES": "16",
    "QSSTRESC": "16",
    "QSSTRESN": 16
  },
  {
    "STUDYID": "CDISCPILOT01",
    "DOMAIN": "QS",
    "USUBJID": "01-701-029",
    "QSSEQ": 2,
    "QSTESTCD": "ACTOT",
    "QSTEST": "ADAS-Cog (11) Total Score",
    "QSCAT": "ADAS-COG",
    "VISITNUM": 3,
    "VISIT": "WEEK 4",
    "QSDTC": "2013-11-26",
    "QSBLFL": "",
    "QSORRES": "16",
    "QSSTRESC": "16",
    "QSSTRESN": 16
  },
  {
    "STUDYID": "CDISCPILOT01",
    "DOMAIN": "QS",
    "USUBJID": "01-701-029",
    "QSSEQ": 3,
    "QSTESTCD": "CIBIC",
    "QSTEST": "CIBIC+ Global Assessment",
    "QSCAT": "CIBIC+",
    "VISITNUM": 7,
    "VISIT": "WEEK 24",
    "QSDTC": "2014-04-15",
    "QSBLFL": "",
    "QSORRES": "MINIMAL WORSENING",
    "QSSTRESC": "5",
    "QSSTRESN": 5
  },
  {
    "STUDYID": "CDISCPILOT01",
    "DOMAIN": "QS",
    "USUBJID": "01-701-030",
    "QSSEQ": 1,
    "QSTESTCD": "ACTOT",
    "QSTEST": "ADAS-Cog (11) Total Score",
    "QSCAT": "ADAS-COG",
    "VISITNUM": 1,
    "VISIT": "BASELINE",
    "QSDTC": "2013-06-30",
    "QSBLFL": "Y",
    "QSORRES": "9",
    "QSSTRESC": "9",
    "QSSTRESN": 9
  },
  {
    "STUDYID": "CDISCPILOT01",
    "DOMAIN": "QS",
    "USUBJID": "01-701-030",
    "QSSEQ": 2,
    "QSTESTCD": "ACTOT",
    "QSTEST": "ADAS-Cog (11) Total Score",
    "QSCAT": "ADAS-COG",
    "VISITNUM": 3,
    "VISIT": "WEEK 4",
    "QSDTC": "2013-07-28",
    "QSBLFL": "",
    "QSORRES": "9",
    "QSSTRESC": "9",
    "QSSTRESN": 9
  },
  {
    "STUDYID": "CDISCPILOT01",
    "DOMAIN": "QS",
    "USUBJID": "01-701-030",
    "QSSEQ": 3,
    "QSTESTCD": "ACTOT",
    "QSTEST": "ADAS-Cog (11) Total Score",
    "QSCAT": "ADAS-COG",
    "VISITNUM": 4,
    "VISIT": "WEEK 8",
    "QSDTC": "2013-08-25",
    "QSBLFL": "",
    "QSORRES": "7",
    "QSSTRESC": "7",
    "QSSTRESN": 7
  },
  {
    "STUDYID": "CDISCPILOT01",
    "DOMAIN": "QS",
    "USUBJID": "01-701-030",
    "QSSEQ": 4,
    "QSTESTCD": "ACTOT",
    "QSTEST": "ADAS-Cog (11) Total Score",
    "QSCAT": "ADAS-COG",
    "VISITNUM": 5,
    "VISIT": "WEEK 12",
    "QSDTC": "2013-09-22",
    "QSBLFL": "",
    "QSORRES": "6",
    "QSSTRESC": "6",
    "QSSTRESN": 6
  },
  {
    "STUDYID": "CDISCPILOT01",
    "DOMAIN": "QS",
    "USUBJID": "01-701-030",
    "QSSEQ": 5,
    "QSTESTCD": "ACTOT",
    "QSTEST": "ADAS-Cog (11) Total Score",
    "QSCAT": "ADAS-COG",
    "VISITNUM": 7,
    "VISIT": "WEEK 24",
    "QSDTC": "2013-12-15",
    "QSBLFL": "",
    "QSORRES": "12",
    "QSSTRESC": "12",
    "QSSTRESN": 12
  },
  {
    "STUDYID": "CDISCPILOT01",
    "DOMAIN": "QS",
    "USUBJID": "01-701-030",
    "QSSEQ": 6,
    "QSTESTCD": "CIBIC",
    "QSTEST": "CIBIC+ Global Assessment",
    "QSCAT": "CIBIC+",
    "VISITNUM": 7,
    "VISIT": "WEEK 24",
    "QSDTC": "2013-12-15",
    "QSBLFL": "",
    "QSORRES": "NO CHANGE",
    "QSSTRESC": "4",
    "QSSTRESN": 4
  },
  {
    "STUDYID": "CDISCPILOT01",
    "DOMAIN": "QS",
    "USUBJID": "01-701-031",
    "QSSEQ": 1,
    "QSTESTCD": "ACTOT",
    "QSTEST": "ADAS-Cog (11) Total Score",
    "QSCAT": "ADAS-COG",
    "VISITNUM": 1,
    "VISIT": "BASELINE",
    "QSDTC": "2013-09-16",
    "QSBLFL": "Y",
    "QSORRES": "23",
    "QSSTRESC": "23",
    "QSSTRESN": 23
  },
  {
    "STUDYID": "CDISCPILOT01",
    "DOMAIN": "QS",
    "USUBJID": "01-701-031",
    "QSSEQ": 2,
    "QSTESTCD": "CIBIC",
    "QSTEST": "CIBIC+ Global Assessment",
    "QSCAT": "CIBIC+",
    "VISITNUM": 7,
    "VISIT": "WEEK 24",
    "QSDTC": "2014-03-03",
    "QSBLFL": "",
    "QSORRES": "MINIMAL WORSENING",
    "QSSTRESC": "5",
    "QSSTRESN": 5
  },
  {
    "STUDYID": "CDISCPILOT01",
    "DOMAIN": "QS",
    "USUBJID": "01-701-032",
    "QSSEQ": 1,
    "QSTESTCD": "ACTOT",
    "QSTEST": "ADAS-Cog (11) Total Score",
    "QSCAT": "ADAS-COG",
    "VISITNUM": 1,
    "VISIT": "BASELINE",
    "QSDTC": "2013-03-15",
    "QSBLFL": "Y",
    "QSORRES": "13",
    "QSSTRESC": "13",
    "QSSTRESN": 13
  },
  {
    "STUDYID": "CDISCPILOT01",
    "DOMAIN": "QS",
    "USUBJID": "01-701-032",
    "QSSEQ": 2,
    "QSTESTCD": "CIBIC",
    "QSTEST": "CIBIC+ Global Assessment",
    "QSCAT": "CIBIC+",
    "VISITNUM": 7,
    "VISIT": "WEEK 24",
    "QSDTC": "2013-08-30",
    "QSBLFL": "",
    "QSORRES": "NO CHANGE",
    "QSSTRESC": "4",
    "QSSTRESN": 4
  },
  {
    "STUDYID": "CDISCPILOT01",
    "DOMAIN": "QS",
    "USUBJID": "01-701-033",
    "QSSEQ": 1,
    "QSTESTCD": "ACTOT",
    "QSTEST": "ADAS-Cog (11) Total Score",
    "QSCAT": "ADAS-COG",
    "VISITNUM": 1,
    "VISIT": "BASELINE",
    "QSDTC": "2013-11-06",
    "QSBLFL": "Y",
    "QSORRES": "27",
    "QSSTRESC": "27",
    "QSSTRESN": 27
  },
  {
    "STUDYID": "CDISCPILOT01",
    "DOMAIN": "QS",
    "USUBJID": "01-701-033",
    "QSSEQ": 2,
    "QSTESTCD": "ACTOT",
    "QSTEST": "ADAS-Cog (11) Total Score",
    "QSCAT": "ADAS-COG",
    "VISITNUM": 3,
    "VISIT": "WEEK 4",
    "QSDTC": "2013-12-04",
    "QSBLFL": "",
    "QSORRES": "25",
    "QSSTRESC": "25",
    "QSSTRESN": 25
  },
  {
    "STUDYID": "CDISCPILOT01",
    "DOMAIN": "QS",
    "USUBJID": "01-701-033",
    "QSSEQ": 3,
    "QSTESTCD": "ACTOT",
    "QSTEST": "ADAS-Cog (11) Total Score",
    "QSCAT": "ADAS-COG",
    "VISITNUM": 4,
    "VISIT": "WEEK 8",
    "QSDTC": "2014-01-01",
    "QSBLFL": "",
    "QSORRES": "28",
    "QSSTRESC": "28",
    "QSSTRESN": 28
  },
  {
    "STUDYID": "CDISCPILOT01",
    "DOMAIN": "QS",
    "USUBJID": "01-701-033",
    "QSSEQ": 4,
    "QSTESTCD": "ACTOT",
    "QSTEST": "ADAS-Cog (11) Total Score",
    "QSCAT": "ADAS-COG",
    "VISITNUM": 5,
    "VISIT": "WEEK 12",
    "QSDTC": "2014-01-29",
    "QSBLFL": "",
    "QSORRES": "26",
    "QSSTRESC": "26",
    "QSSTRESN": 26
  },
  {
    "STUDYID": "CDISCPILOT01",
    "DOMAIN": "QS",
    "USUBJID": "01-701-033",
    "QSSEQ": 5,
    "QSTESTCD": "ACTOT",
    "QSTEST": "ADAS-Cog (11) Total Score",
    "QSCAT": "ADAS-COG",
    "VISITNUM": 7,
    "VISIT": "WEEK 24",
    "QSDTC": "2014-04-23",
    "QSBLFL": "",
    "QSORRES": "38",
    "QSSTRESC": "38",
    "QSSTRESN": 38
  },
  {
    "STUDYID": "CDISCPILOT01",
    "DOMAIN": "QS",
    "USUBJID": "01-701-033",
    "QSSEQ": 6,
    "QSTESTCD": "CIBIC",
    "QSTEST": "CIBIC+ Global Assessment",
    "QSCAT": "CIBIC+",
    "VISITNUM": 7,
    "VISIT": "WEEK 24",
    "QSDTC": "2014-04-23",
    "QSBLFL": "",
    "QSORRES": "MINIMAL IMPROVEMENT",
    "QSSTRESC": "3",
    "QSSTRESN": 3
  },
  {
    "STUDYID": "CDISCPILOT01",
    "DOMAIN": "QS",
    "USUBJID": "01-701-034",
    "QSSEQ": 1,
    "QSTESTCD": "ACTOT",
    "QSTEST": "ADAS-Cog (11) Total Score",
    "QSCAT": "ADAS-COG",
    "VISITNUM": 1,
    "VISIT": "BASELINE",
    "QSDTC": "2013-08-15",
    "QSBLFL": "Y",
    "QSORRES": "29",
    "QSSTRESC": "29",
    "QSSTRESN": 29
  },
  {
    "STUDYID": "CDISCPILOT01",
    "DOMAIN": "QS",
    "USUBJID": "01-701-034",
    "QSSEQ": 2,
    "QSTESTCD": "ACTOT",
    "QSTEST": "ADAS-Cog (11) Total Score",
    "QSCAT": "ADAS-COG",
    "VISITNUM": 3,
    "VISIT": "WEEK 4",
    "QSDTC": "2013-09-12",
    "QSBLFL": "",
    "QSORRES": "27",
    "QSSTRESC": "27",
    "QSSTRESN": 27
  },
  {
    "STUDYID": "CDISCPILOT01",
    "DOMAIN": "QS",
    "USUBJID": "01-701-034",
    "QSSEQ": 3,
    "QSTESTCD": "ACTOT",
    "QSTEST": "ADAS-Cog (11) Total Score",
    "QSCAT": "ADAS-COG",
    "VISITNUM": 4,
    "VISIT": "WEEK 8",
    "QSDTC": "2013-10-10",
    "QSBLFL": "",
    "QSORRES": "30",
    "QSSTRESC": "30",
    "QSSTRESN": 30
  },
  {
    "STUDYID": "CDISCPILOT01",
    "DOMAIN": "QS",
    "USUBJID": "01-701-034",
    "QSSEQ": 4,
    "QSTESTCD": "ACTOT",
    "QSTEST": "ADAS-Cog (11) Total Score",
    "QSCAT": "ADAS-COG",
    "VISITNUM": 5,
    "VISIT": "WEEK 12",
    "QSDTC": "2013-11-07",
    "QSBLFL": "",
    "QSORRES": "27",
    "QSSTRESC": "27",
    "QSSTRESN": 27
  },
  {
    "STUDYID": "CDISCPILOT01",
    "DOMAIN": "QS",
    "USUBJID": "01-701-034",
    "QSSEQ": 5,
    "QSTESTCD": "ACTOT",
    "QSTEST": "ADAS-Cog (11) Total Score",
    "QSCAT": "ADAS-COG",
    "VISITNUM": 7,
    "VISIT": "WEEK 24",
    "QSDTC": "2014-01-30",
    "QSBLFL": "",
    "QSORRES": "27",
    "QSSTRESC": "27",
    "QSSTRESN": 27
  },
  {
    "STUDYID": "CDISCPILOT01",
    "DOMAIN": "QS",
    "USUBJID": "01-701-034",
    "QSSEQ": 6,
    "QSTESTCD": "CIBIC",
    "QSTEST": "CIBIC+ Global Assessment",
    "QSCAT": "CIBIC+",
    "VISITNUM": 7,
    "VISIT": "WEEK 24",
    "QSDTC": "2014-01-30",
    "QSBLFL": "",
    "QSORRES": "MINIMAL IMPROVEMENT",
    "QSSTRESC": "3",
    "QSSTRESN": 3
  },
  {
    "STUDYID": "CDISCPILOT01",
    "DOMAIN": "QS",
    "USUBJID": "01-701-035",
    "QSSEQ": 1,
    "QSTESTCD": "ACTOT",
    "QSTEST": "ADAS-Cog (11) Total Score",
    "QSCAT": "ADAS-COG",
    "VISITNUM": 1,
    "VISIT": "BASELINE",
    "QSDTC": "2013-04-25",
    "QSBLFL": "Y",
    "QSORRES": "3",
    "QSSTRESC": "3",
    "QSSTRESN": 3
  },
  {
    "STUDYID": "CDISCPILOT01",
    "DOMAIN": "QS",
    "USUBJID": "01-701-035",
    "QSSEQ": 2,
    "QSTESTCD": "ACTOT",
    "QSTEST": "ADAS-Cog (11) Total Score",
    "QSCAT": "ADAS-COG",
    "VISITNUM": 3,
    "VISIT": "WEEK 4",
    "QSDTC": "2013-05-23",
    "QSBLFL": "",
    "QSORRES": "3",
    "QSSTRESC": "3",
    "QSSTRESN": 3
  },
  {
    "STUDYID": "CDISCPILOT01",
    "DOMAIN": "QS",
    "USUBJID": "01-701-035",
    "QSSEQ": 3,
    "QSTESTCD": "ACTOT",
    "QSTEST": "ADAS-Cog (11) Total Score",
    "QSCAT": "ADAS-COG",
    "VISITNUM": 4,
    "VISIT": "WEEK 8",
    "QSDTC": "2013-06-20",
    "QSBLFL": "",
    "QSORRES": "4",
    "QSSTRESC": "4",
    "QSSTRESN": 4
  },
  {
    "STUDYID": "CDISCPILOT01",
    "DOMAIN": "QS",
    "USUBJID": "01-701-035",
    "QSSEQ": 4,
    "QSTESTCD": "ACTOT",
    "QSTEST": "ADAS-Cog (11) Total Score",
    "QSCAT": "ADAS-COG",
    "VISITNUM": 5,
    "VISIT": "WEEK 12",
    "QSDTC": "2013-07-18",
    "QSBLFL": "",
    "QSORRES": "7",
    "QSSTRESC": "7",
    "QSSTRESN": 7
  },
  {
    "STUDYID": "CDISCPILOT01",
    "DOMAIN": "QS",
    "USUBJID": "01-701-035",
    "QSSEQ": 5,
    "QSTESTCD": "ACTOT",
    "QSTEST": "ADAS-Cog (11) Total Score",
    "QSCAT": "ADAS-COG",
    "VISITNUM": 7,
    "VISIT": "WEEK 24",
    "QSDTC": "2013-10-10",
    "QSBLFL": "",
    "QSORRES": "9",
    "QSSTRESC": "9",
    "QSSTRESN": 9
  },
  {
    "STUDYID": "CDISCPILOT01",
    "DOMAIN": "QS",
    "USUBJID": "01-701-035",
    "QSSEQ": 6,
    "QSTESTCD": "CIBIC",
    "QSTEST": "CIBIC+ Global Assessment",
    "QSCAT": "CIBIC+",
    "VISITNUM": 7,
    "VISIT": "WEEK 24",
    "QSDTC": "2013-10-10",
    "QSBLFL": "",
    "QSORRES": "MINIMAL IMPROVEMENT",
    "QSSTRESC": "3",
    "QSSTRESN": 3
  },
  {
    "STUDYID": "CDISCPILOT01",
    "DOMAIN": "QS",
    "USUBJID": "01-701-036",
    "QSSEQ": 1,
    "QSTESTCD": "ACTOT",
    "QSTEST": "ADAS-Cog (11) Total Score",
    "QSCAT": "ADAS-COG",
    "VISITNUM": 1,
    "VISIT": "BASELINE",
    "QSDTC": "2013-08-16",
    "QSBLFL": "Y",
    "QSORRES": "29",
    "QSSTRESC": "29",
    "QSSTRESN": 29
  },
  {
    "STUDYID": "CDISCPILOT01",
    "DOMAIN": "QS",
    "USUBJID": "01-701-036",
    "QSSEQ": 2,
    "QSTESTCD": "ACTOT",
    "QSTEST": "ADAS-Cog (11) Total Score",
    "QSCAT": "ADAS-COG",
    "VISITNUM": 3,
    "VISIT": "WEEK 4",
    "QSDTC": "2013-09-13",
    "QSBLFL": "",
    "QSORRES": "30",
    "QSSTRESC": "30",
    "QSSTRESN": 30
  },
  {
    "STUDYID": "CDISCPILOT01",
    "DOMAIN": "QS",
    "USUBJID": "01-701-036",
    "QSSEQ": 3,
    "QSTESTCD": "CIBIC",
    "QSTEST": "CIBIC+ Global Assessment",
    "QSCAT": "CIBIC+",
    "VISITNUM": 7,
    "VISIT": "WEEK 24",
    "QSDTC": "2014-01-31",
    "QSBLFL": "",
    "QSORRES": "NO CHANGE",
    "QSSTRESC": "4",
    "QSSTRESN": 4
  },
  {
    "STUDYID": "CDISCPILOT01",
    "DOMAIN": "QS",
    "USUBJID": "01-701-037",
    "QSSEQ": 1,
    "QSTESTCD": "ACTOT",
    "QSTEST": "ADAS-Cog (11) Total Score",
    "QSCAT": "ADAS-COG",
    "VISITNUM": 1,
    "VISIT": "BASELINE",
    "QSDTC": "2013-01-05",
    "QSBLFL": "Y",
    "QSORRES": "27",
    "QSSTRESC": "27",
    "QSSTRESN": 27
  },
  {
    "STUDYID": "CDISCPILOT01",
    "DOMAIN": "QS",
    "USUBJID": "01-701-037",
    "QSSEQ": 2,
    "QSTESTCD": "ACTOT",
    "QSTEST": "ADAS-Cog (11) Total Score",
    "QSCAT": "ADAS-COG",
    "VISITNUM": 3,
    "VISIT": "WEEK 4",
    "QSDTC": "2013-02-02",
    "QSBLFL": "",
    "QSORRES": "27",
    "QSSTRESC": "27",
    "QSSTRESN": 27
  },
  {
    "STUDYID": "CDISCPILOT01",
    "DOMAIN": "QS",
    "USUBJID": "01-701-037",
    "QSSEQ": 3,
    "QSTESTCD": "ACTOT",
    "QSTEST": "ADAS-Cog (11) Total Score",
    "QSCAT": "ADAS-COG",
    "VISITNUM": 4,
    "VISIT": "WEEK 8",
    "QSDTC": "2013-03-02",
    "QSBLFL": "",
    "QSORRES": "26",
    "QSSTRESC": "26",
    "QSSTRESN": 26
  },
  {
    "STUDYID": "CDISCPILOT01",
    "DOMAIN": "QS",
    "USUBJID": "01-701-037",
    "QSSEQ": 4,
    "QSTESTCD": "ACTOT",
    "QSTEST": "ADAS-Cog (11) Total Score",
    "QSCAT": "ADAS-COG",
    "VISITNUM": 5,
    "VISIT": "WEEK 12",
    "QSDTC": "2013-03-30",
    "QSBLFL": "",
    "QSORRES": "32",
    "QSSTRESC": "32",
    "QSSTRESN": 32
  },
  {
    "STUDYID": "CDISCPILOT01",
    "DOMAIN": "QS",
    "USUBJID": "01-701-037",
    "QSSEQ": 5,
    "QSTESTCD": "ACTOT",
    "QSTEST": "ADAS-Cog (11) Total Score",
    "QSCAT": "ADAS-COG",
    "VISITNUM": 7,
    "VISIT": "WEEK 24",
    "QSDTC": "2013-06-22",
    "QSBLFL": "",
    "QSORRES": "35",
    "QSSTRESC": "35",
    "QSSTRESN": 35
  },
  {
    "STUDYID": "CDISCPILOT01",
    "DOMAIN": "QS",
    "USUBJID": "01-701-037",
    "QSSEQ": 6,
    "QSTESTCD": "CIBIC",
    "QSTEST": "CIBIC+ Global Assessment",
    "QSCAT": "CIBIC+",
    "VISITNUM": 7,
    "VISIT": "WEEK 24",
    "QSDTC": "2013-06-22",
    "QSBLFL": "",
    "QSORRES": "NO CHANGE",
    "QSSTRESC": "4",
    "QSSTRESN": 4
  },
  {
    "STUDYID": "CDISCPILOT01",
    "DOMAIN": "QS",
    "USUBJID": "01-701-038",
    "QSSEQ": 1,
    "QSTESTCD": "ACTOT",
    "QSTEST": "ADAS-Cog (11) Total Score",
    "QSCAT": "ADAS-COG",
    "VISITNUM": 1,
    "VISIT": "BASELINE",
    "QSDTC": "2013-06-14",
    "QSBLFL": "Y",
    "QSORRES": "18",
    "QSSTRESC": "18",
    "QSSTRESN": 18
  },
  {
    "STUDYID": "CDISCPILOT01",
    "DOMAIN": "QS",
    "USUBJID": "01-701-038",
    "QSSEQ": 2,
    "QSTESTCD": "ACTOT",
    "QSTEST": "ADAS-Cog (11) Total Score",
    "QSCAT": "ADAS-COG",
    "VISITNUM": 3,
    "VISIT": "WEEK 4",
    "QSDTC": "2013-07-12",
    "QSBLFL": "",
    "QSORRES": "17",
    "QSSTRESC": "17",
    "QSSTRESN": 17
  },
  {
    "STUDYID": "CDISCPILOT01",
    "DOMAIN": "QS",
    "USUBJID": "01-701-038",
    "QSSEQ": 3,
    "QSTESTCD": "CIBIC",
    "QSTEST": "CIBIC+ Global Assessment",
    "QSCAT": "CIBIC+",
    "VISITNUM": 7,
    "VISIT": "WEEK 24",
    "QSDTC": "2013-11-29",
    "QSBLFL": "",
    "QSORRES": "MINIMAL IMPROVEMENT",
    "QSSTRESC": "3",
    "QSSTRESN": 3
  },
  {
    "STUDYID": "CDISCPILOT01",
    "DOMAIN": "QS",
    "USUBJID": "01-701-039",
    "QSSEQ": 1,
    "QSTESTCD": "ACTOT",
    "QSTEST": "ADAS-Cog (11) Total Score",
    "QSCAT": "ADAS-COG",
    "VISITNUM": 1,
    "VISIT": "BASELINE",
    "QSDTC": "2013-04-27",
    "QSBLFL": "Y",
    "QSORRES": "31",
    "QSSTRESC": "31",
    "QSSTRESN": 31
  },
  {
    "STUDYID": "CDISCPILOT01",
    "DOMAIN": "QS",
    "USUBJID": "01-701-039",
    "QSSEQ": 2,
    "QSTESTCD": "CIBIC",
    "QSTEST": "CIBIC+ Global Assessment",
    "QSCAT": "CIBIC+",
    "VISITNUM": 7,
    "VISIT": "WEEK 24",
    "QSDTC": "2013-10-12",
    "QSBLFL": "",
    "QSORRES": "NO CHANGE",
    "QSSTRESC": "4",
    "QSSTRESN": 4
  },
  {
    "STUDYID": "CDISCPILOT01",
    "DOMAIN": "QS",
    "USUBJID": "01-701-040",
    "QSSEQ": 1,
    "QSTESTCD": "ACTOT",
    "QSTEST": "ADAS-Cog (11) Total Score",
    "QSCAT": "ADAS-COG",
    "VISITNUM": 1,
    "VISIT": "BASELINE",
    "QSDTC": "2013-10-03",
    "QSBLFL": "Y",
    "QSORRES": "48",
    "QSSTRESC": "48",
    "QSSTRESN": 48
  },
  {
    "STUDYID": "CDISCPILOT01",
    "DOMAIN": "QS",
    "USUBJID": "01-701-040",
    "QSSEQ": 2,
    "QSTESTCD": "CIBIC",
    "QSTEST": "CIBIC+ Global Assessment",
    "QSCAT": "CIBIC+",
    "VISITNUM": 7,
    "VISIT": "WEEK 24",
    "QSDTC": "2014-03-20",
    "QSBLFL": "",
    "QSORRES": "MINIMAL WORSENING",
    "QSSTRESC": "5",
    "QSSTRESN": 5
  },
  {
    "STUDYID": "CDISCPILOT01",
    "DOMAIN": "QS",
    "USUBJID": "01-701-041",
    "QSSEQ": 1,
    "QSTESTCD": "ACTOT",
    "QSTEST": "ADAS-Cog (11) Total Score",
    "QSCAT": "ADAS-COG",
    "VISITNUM": 1,
    "VISIT": "BASELINE",
    "QSDTC": "2013-11-06",
    "QSBLFL": "Y",
    "QSORRES": "27",
    "QSSTRESC": "27",
    "QSSTRESN": 27
  },
  {
    "STUDYID": "CDISCPILOT01",
    "DOMAIN": "QS",
    "USUBJID": "01-701-041",
    "QSSEQ": 2,
    "QSTESTCD": "ACTOT",
    "QSTEST": "ADAS-Cog (11) Total Score",
    "QSCAT": "ADAS-COG",
    "VISITNUM": 3,
    "VISIT": "WEEK 4",
    "QSDTC": "2013-12-04",
    "QSBLFL": "",
    "QSORRES": "26",
    "QSSTRESC": "26",
    "QSSTRESN": 26
  },
  {
    "STUDYID": "CDISCPILOT01",
    "DOMAIN": "QS",
    "USUBJID": "01-701-041",
    "QSSEQ": 3,
    "QSTESTCD": "ACTOT",
    "QSTEST": "ADAS-Cog (11) Total Score",
    "QSCAT": "ADAS-COG",
    "VISITNUM": 4,
    "VISIT": "WEEK 8",
    "QSDTC": "2014-01-01",
    "QSBLFL": "",
    "QSORRES": "26",
    "QSSTRESC": "26",
    "QSSTRESN": 26
  },
  {
    "STUDYID": "CDISCPILOT01",
    "DOMAIN": "QS",
    "USUBJID": "01-701-041",
    "QSSEQ": 4,
    "QSTESTCD": "ACTOT",
    "QSTEST": "ADAS-Cog (11) Total Score",
    "QSCAT": "ADAS-COG",
    "VISITNUM": 5,
    "VISIT": "WEEK 12",
    "QSDTC": "2014-01-29",
    "QSBLFL": "",
    "QSORRES": "27",
    "QSSTRESC": "27",
    "QSSTRESN": 27
  },
  {
    "STUDYID": "CDISCPILOT01",
    "DOMAIN": "QS",
    "USUBJID": "01-701-041",
    "QSSEQ": 5,
    "QSTESTCD": "CIBIC",
    "QSTEST": "CIBIC+ Global Assessment",
    "QSCAT": "CIBIC+",
    "VISITNUM": 7,
    "VISIT": "WEEK 24",
    "QSDTC": "2014-04-23",
    "QSBLFL": "",
    "QSORRES": "MINIMAL WORSENING",
    "QSSTRESC": "5",
    "QSSTRESN": 5
  },
  {
    "STUDYID": "CDISCPILOT01",
    "DOMAIN": "QS",
    "USUBJID": "01-701-042",
    "QSSEQ": 1,
    "QSTESTCD": "ACTOT",
    "QSTEST": "ADAS-Cog (11) Total Score",
    "QSCAT": "ADAS-COG",
    "VISITNUM": 1,
    "VISIT": "BASELINE",
    "QSDTC": "2013-09-03",
    "QSBLFL": "Y",
    "QSORRES": "36",
    "QSSTRESC": "36",
    "QSSTRESN": 36
  },
  {
    "STUDYID": "CDISCPILOT01",
    "DOMAIN": "QS",
    "USUBJID": "01-701-042",
    "QSSEQ": 2,
    "QSTESTCD": "ACTOT",
    "QSTEST": "ADAS-Cog (11) Total Score",
    "QSCAT": "ADAS-COG",
    "VISITNUM": 3,
    "VISIT": "WEEK 4",
    "QSDTC": "2013-10-01",
    "QSBLFL": "",
    "QSORRES": "34",
    "QSSTRESC": "34",
    "QSSTRESN": 34
  },
  {
    "STUDYID": "CDISCPILOT01",
    "DOMAIN": "QS",
    "USUBJID": "01-701-042",
    "QSSEQ": 3,
    "QSTESTCD": "ACTOT",
    "QSTEST": "ADAS-Cog (11) Total Score",
    "QSCAT": "ADAS-COG",
    "VISITNUM": 4,
    "VISIT": "WEEK 8",
    "QSDTC": "2013-10-29",
    "QSBLFL": "",
    "QSORRES": "39",
    "QSSTRESC": "39",
    "QSSTRESN": 39
  },
  {
    "STUDYID": "CDISCPILOT01",
    "DOMAIN": "QS",
    "USUBJID": "01-701-042",
    "QSSEQ": 4,
    "QSTESTCD": "ACTOT",
    "QSTEST": "ADAS-Cog (11) Total Score",
    "QSCAT": "ADAS-COG",
    "VISITNUM": 5,
    "VISIT": "WEEK 12",
    "QSDTC": "2013-11-26",
    "QSBLFL": "",
    "QSORRES": "36",
    "QSSTRESC": "36",
    "QSSTRESN": 36
  },
  {
    "STUDYID": "CDISCPILOT01",
    "DOMAIN": "QS",
    "USUBJID": "01-701-042",
    "QSSEQ": 5,
    "QSTESTCD": "ACTOT",
    "QSTEST": "ADAS-Cog (11) Total Score",
    "QSCAT": "ADAS-COG",
    "VISITNUM": 7,
    "VISIT": "WEEK 24",
    "QSDTC": "2014-02-18",
    "QSBLFL": "",
    "QSORRES": "36",
    "QSSTRESC": "36",
    "QSSTRESN": 36
  },
  {
    "STUDYID": "CDISCPILOT01",
    "DOMAIN": "QS",
    "USUBJID": "01-701-042",
    "QSSEQ": 6,
    "QSTESTCD": "CIBIC",
    "QSTEST": "CIBIC+ Global Assessment",
    "QSCAT": "CIBIC+",
    "VISITNUM": 7,
    "VISIT": "WEEK 24",
    "QSDTC": "2014-02-18",
    "QSBLFL": "",
    "QSORRES": "NO CHANGE",
    "QSSTRESC": "4",
    "QSSTRESN": 4
  },
  {
    "STUDYID": "CDISCPILOT01",
    "DOMAIN": "QS",
    "USUBJID": "01-701-043",
    "QSSEQ": 1,
    "QSTESTCD": "ACTOT",
    "QSTEST": "ADAS-Cog (11) Total Score",
    "QSCAT": "ADAS-COG",
    "VISITNUM": 1,
    "VISIT": "BASELINE",
    "QSDTC": "2013-06-15",
    "QSBLFL": "Y",
    "QSORRES": "31",
    "QSSTRESC": "31",
    "QSSTRESN": 31
  },
  {
    "STUDYID": "CDISCPILOT01",
    "DOMAIN": "QS",
    "USUBJID": "01-701-043",
    "QSSEQ": 2,
    "QSTESTCD": "CIBIC",
    "QSTEST": "CIBIC+ Global Assessment",
    "QSCAT": "CIBIC+",
    "VISITNUM": 7,
    "VISIT": "WEEK 24",
    "QSDTC": "2013-11-30",
    "QSBLFL": "",
    "QSORRES": "NO CHANGE",
    "QSSTRESC": "4",
    "QSSTRESN": 4
  },
  {
    "STUDYID": "CDISCPILOT01",
    "DOMAIN": "QS",
    "USUBJID": "01-703-001",
    "QSSEQ": 1,
    "QSTESTCD": "ACTOT",
    "QSTEST": "ADAS-Cog (11) Total Score",
    "QSCAT": "ADAS-COG",
    "VISITNUM": 1,
    "VISIT": "BASELINE",
    "QSDTC": "2013-01-12",
    "QSBLFL": "Y",
    "QSORRES": "51",
    "QSSTRESC": "51",
    "QSSTRESN": 51
  },
  {
    "STUDYID": "CDISCPILOT01",
    "DOMAIN": "QS",
    "USUBJID": "01-703-001",
    "QSSEQ": 2,
    "QSTESTCD": "ACTOT",
    "QSTEST": "ADAS-Cog (11) Total Score",
    "QSCAT": "ADAS-COG",
    "VISITNUM": 3,
    "VISIT": "WEEK 4",
    "QSDTC": "2013-02-09",
    "QSBLFL": "",
    "QSORRES": "52",
    "QSSTRESC": "52",
    "QSSTRESN": 52
  },
  {
    "STUDYID": "CDISCPILOT01",
    "DOMAIN": "QS",
    "USUBJID": "01-703-001",
    "QSSEQ": 3,
    "QSTESTCD": "ACTOT",
    "QSTEST": "ADAS-Cog (11) Total Score",
    "QSCAT": "ADAS-COG",
    "VISITNUM": 4,
    "VISIT": "WEEK 8",
    "QSDTC": "2013-03-09",
    "QSBLFL": "",
    "QSORRES": "49",
    "QSSTRESC": "49",
    "QSSTRESN": 49
  },
  {
    "STUDYID": "CDISCPILOT01",
    "DOMAIN": "QS",
    "USUBJID": "01-703-001",
    "QSSEQ": 4,
    "QSTESTCD": "ACTOT",
    "QSTEST": "ADAS-Cog (11) Total Score",
    "QSCAT": "ADAS-COG",
    "VISITNUM": 5,
    "VISIT": "WEEK 12",
    "QSDTC": "2013-04-06",
    "QSBLFL": "",
    "QSORRES": "53",
    "QSSTRESC": "53",
    "QSSTRESN": 53
  },
  {
    "STUDYID": "CDISCPILOT01",
    "DOMAIN": "QS",
    "USUBJID": "01-703-001",
    "QSSEQ": 5,
    "QSTESTCD": "ACTOT",
    "QSTEST": "ADAS-Cog (11) Total Score",
    "QSCAT": "ADAS-COG",
    "VISITNUM": 7,
    "VISIT": "WEEK 24",
    "QSDTC": "2013-06-29",
    "QSBLFL": "",
    "QSORRES": "53",
    "QSSTRESC": "53",
    "QSSTRESN": 53
  },
  {
    "STUDYID": "CDISCPILOT01",
    "DOMAIN": "QS",
    "USUBJID": "01-703-001",
    "QSSEQ": 6,
    "QSTESTCD": "CIBIC",
    "QSTEST": "CIBIC+ Global Assessment",
    "QSCAT": "CIBIC+",
    "VISITNUM": 7,
    "VISIT": "WEEK 24",
    "QSDTC": "2013-06-29",
    "QSBLFL": "",
    "QSORRES": "MINIMAL WORSENING",
    "QSSTRESC": "5",
    "QSSTRESN": 5
  },
  {
    "STUDYID": "CDISCPILOT01",
    "DOMAIN": "QS",
    "USUBJID": "01-703-002",
    "QSSEQ": 1,
    "QSTESTCD": "ACTOT",
    "QSTEST": "ADAS-Cog (11) Total Score",
    "QSCAT": "ADAS-COG",
    "VISITNUM": 1,
    "VISIT": "BASELINE",
    "QSDTC": "2013-02-03",
    "QSBLFL": "Y",
    "QSORRES": "32",
    "QSSTRESC": "32",
    "QSSTRESN": 32
  },
  {
    "STUDYID": "CDISCPILOT01",
    "DOMAIN": "QS",
    "USUBJID": "01-703-002",
    "QSSEQ": 2,
    "QSTESTCD": "ACTOT",
    "QSTEST": "ADAS-Cog (11) Total Score",
    "QSCAT": "ADAS-COG",
    "VISITNUM": 3,
    "VISIT": "WEEK 4",
    "QSDTC": "2013-03-03",
    "QSBLFL": "",
    "QSORRES": "31",
    "QSSTRESC": "31",
    "QSSTRESN": 31
  },
  {
    "STUDYID": "CDISCPILOT01",
    "DOMAIN": "QS",
    "USUBJID": "01-703-002",
    "QSSEQ": 3,
    "QSTESTCD": "ACTOT",
    "QSTEST": "ADAS-Cog (11) Total Score",
    "QSCAT": "ADAS-COG",
    "VISITNUM": 4,
    "VISIT": "WEEK 8",
    "QSDTC": "2013-03-31",
    "QSBLFL": "",
    "QSORRES": "33",
    "QSSTRESC": "33",
    "QSSTRESN": 33
  },
  {
    "STUDYID": "CDISCPILOT01",
    "DOMAIN": "QS",
    "USUBJID": "01-703-002",
    "QSSEQ": 4,
    "QSTESTCD": "ACTOT",
    "QSTEST": "ADAS-Cog (11) Total Score",
    "QSCAT": "ADAS-COG",
    "VISITNUM": 5,
    "VISIT": "WEEK 12",
    "QSDTC": "2013-04-28",
    "QSBLFL": "",
    "QSORRES": "38",
    "QSSTRESC": "38",
    "QSSTRESN": 38
  },
  {
    "STUDYID": "CDISCPILOT01",
    "DOMAIN": "QS",
    "USUBJID": "01-703-002",
    "QSSEQ": 5,
    "QSTESTCD": "CIBIC",
    "QSTEST": "CIBIC+ Global Assessment",
    "QSCAT": "CIBIC+",
    "VISITNUM": 7,
    "VISIT": "WEEK 24",
    "QSDTC": "2013-07-21",
    "QSBLFL": "",
    "QSORRES": "NO CHANGE",
    "QSSTRESC": "4",
    "QSSTRESN": 4
  },
  {
    "STUDYID": "CDISCPILOT01",
    "DOMAIN": "QS",
    "USUBJID": "01-703-003",
    "QSSEQ": 1,
    "QSTESTCD": "ACTOT",
    "QSTEST": "ADAS-Cog (11) Total Score",
    "QSCAT": "ADAS-COG",
    "VISITNUM": 1,
    "VISIT": "BASELINE",
    "QSDTC": "2013-08-12",
    "QSBLFL": "Y",
    "QSORRES": "28",
    "QSSTRESC": "28",
    "QSSTRESN": 28
  },
  {
    "STUDYID": "CDISCPILOT01",
    "DOMAIN": "QS",
    "USUBJID": "01-703-003",
    "QSSEQ": 2,
    "QSTESTCD": "ACTOT",
    "QSTEST": "ADAS-Cog (11) Total Score",
    "QSCAT": "ADAS-COG",
    "VISITNUM": 3,
    "VISIT": "WEEK 4",
    "QSDTC": "2013-09-09",
    "QSBLFL": "",
    "QSORRES": "27",
    "QSSTRESC": "27",
    "QSSTRESN": 27
  },
  {
    "STUDYID": "CDISCPILOT01",
    "DOMAIN": "QS",
    "USUBJID": "01-703-003",
    "QSSEQ": 3,
    "QSTESTCD": "ACTOT",
    "QSTEST": "ADAS-Cog (11) Total Score",
    "QSCAT": "ADAS-COG",
    "VISITNUM": 4,
    "VISIT": "WEEK 8",
    "QSDTC": "2013-10-07",
    "QSBLFL": "",
    "QSORRES": "31",
    "QSSTRESC": "31",
    "QSSTRESN": 31
  },
  {
    "STUDYID": "CDISCPILOT01",
    "DOMAIN": "QS",
    "USUBJID": "01-703-003",
    "QSSEQ": 4,
    "QSTESTCD": "ACTOT",
    "QSTEST": "ADAS-Cog (11) Total Score",
    "QSCAT": "ADAS-COG",
    "VISITNUM": 5,
    "VISIT": "WEEK 12",
    "QSDTC": "2013-11-04",
    "QSBLFL": "",
    "QSORRES": "23",
    "QSSTRESC": "23",
    "QSSTRESN": 23
  },
  {
    "STUDYID": "CDISCPILOT01",
    "DOMAIN": "QS",
    "USUBJID": "01-703-003",
    "QSSEQ": 5,
    "QSTESTCD": "ACTOT",
    "QSTEST": "ADAS-Cog (11) Total Score",
    "QSCAT": "ADAS-COG",
    "VISITNUM": 7,
    "VISIT": "WEEK 24",
    "QSDTC": "2014-01-27",
    "QSBLFL": "",
    "QSORRES": "36",
    "QSSTRESC": "36",
    "QSSTRESN": 36
  },
  {
    "STUDYID": "CDISCPILOT01",
    "DOMAIN": "QS",
    "USUBJID": "01-703-003",
    "QSSEQ": 6,
    "QSTESTCD": "CIBIC",
    "QSTEST": "CIBIC+ Global Assessment",
    "QSCAT": "CIBIC+",
    "VISITNUM": 7,
    "VISIT": "WEEK 24",
    "QSDTC": "2014-01-27",
    "QSBLFL": "",
    "QSORRES": "NO CHANGE",
    "QSSTRESC": "4",
    "QSSTRESN": 4
  },
  {
    "STUDYID": "CDISCPILOT01",
    "DOMAIN": "QS",
    "USUBJID": "01-703-004",
    "QSSEQ": 1,
    "QSTESTCD": "ACTOT",
    "QSTEST": "ADAS-Cog (11) Total Score",
    "QSCAT": "ADAS-COG",
    "VISITNUM": 1,
    "VISIT": "BASELINE",
    "QSDTC": "2013-07-30",
    "QSBLFL": "Y",
    "QSORRES": "28",
    "QSSTRESC": "28",
    "QSSTRESN": 28
  },
  {
    "STUDYID": "CDISCPILOT01",
    "DOMAIN": "QS",
    "USUBJID": "01-703-004",
    "QSSEQ": 2,
    "QSTESTCD": "ACTOT",
    "QSTEST": "ADAS-Cog (11) Total Score",
    "QSCAT": "ADAS-COG",
    "VISITNUM": 3,
    "VISIT": "WEEK 4",
    "QSDTC": "2013-08-27",
    "QSBLFL": "",
    "QSORRES": "30",
    "QSSTRESC": "30",
    "QSSTRESN": 30
  },
  {
    "STUDYID": "CDISCPILOT01",
    "DOMAIN": "QS",
    "USUBJID": "01-703-004",
    "QSSEQ": 3,
    "QSTESTCD": "ACTOT",
    "QSTEST": "ADAS-Cog (11) Total Score",
    "QSCAT": "ADAS-COG",
    "VISITNUM": 4,
    "VISIT": "WEEK 8",
    "QSDTC": "2013-09-24",
    "QSBLFL": "",
    "QSORRES": "25",
    "QSSTRESC": "25",
    "QSSTRESN": 25
  },
  {
    "STUDYID": "CDISCPILOT01",
    "DOMAIN": "QS",
    "USUBJID": "01-703-004",
    "QSSEQ": 4,
    "QSTESTCD": "ACTOT",
    "QSTEST": "ADAS-Cog (11) Total Score",
    "QSCAT": "ADAS-COG",
    "VISITNUM": 5,
    "VISIT": "WEEK 12",
    "QSDTC": "2013-10-22",
    "QSBLFL": "",
    "QSORRES": "36",
    "QSSTRESC": "36",
    "QSSTRESN": 36
  },
  {
    "STUDYID": "CDISCPILOT01",
    "DOMAIN": "QS",
    "USUBJID": "01-703-004",
    "QSSEQ": 5,
    "QSTESTCD": "CIBIC",
    "QSTEST": "CIBIC+ Global Assessment",
    "QSCAT": "CIBIC+",
    "VISITNUM": 7,
    "VISIT": "WEEK 24",
    "QSDTC": "2014-01-14",
    "QSBLFL": "",
    "QSORRES": "MINIMAL WORSENING",
    "QSSTRESC": "5",
    "QSSTRESN": 5
  },
  {
    "STUDYID": "CDISCPILOT01",
    "DOMAIN": "QS",
    "USUBJID": "01-703-005",
    "QSSEQ": 1,
    "QSTESTCD": "ACTOT",
    "QSTEST": "ADAS-Cog (11) Total Score",
    "QSCAT": "ADAS-COG",
    "VISITNUM": 1,
    "VISIT": "BASELINE",
    "QSDTC": "2013-03-05",
    "QSBLFL": "Y",
    "QSORRES": "26",
    "QSSTRESC": "26",
    "QSSTRESN": 26
  },
  {
    "STUDYID": "CDISCPILOT01",
    "DOMAIN": "QS",
    "USUBJID": "01-703-005",
    "QSSEQ": 2,
    "QSTESTCD": "ACTOT",
    "QSTEST": "ADAS-Cog (11) Total Score",
    "QSCAT": "ADAS-COG",
    "VISITNUM": 3,
    "VISIT": "WEEK 4",
    "QSDTC": "2013-04-02",
    "QSBLFL": "",
    "QSORRES": "24",
    "QSSTRESC": "24",
    "QSSTRESN": 24
  },
  {
    "STUDYID": "CDISCPILOT01",
    "DOMAIN": "QS",
    "USUBJID": "01-703-005",
    "QSSEQ": 3,
    "QSTESTCD": "CIBIC",
    "QSTEST": "CIBIC+ Global Assessment",
    "QSCAT": "CIBIC+",
    "VISITNUM": 7,
    "VISIT": "WEEK 24",
    "QSDTC": "2013-08-20",
    "QSBLFL": "",
    "QSORRES": "MODERATE WORSENING",
    "QSSTRESC": "6",
    "QSSTRESN": 6
  },
  {
    "STUDYID": "CDISCPILOT01",
    "DOMAIN": "QS",
    "USUBJID": "01-703-006",
    "QSSEQ": 1,
    "QSTESTCD": "ACTOT",
    "QSTEST": "ADAS-Cog (11) Total Score",
    "QSCAT": "ADAS-COG",
    "VISITNUM": 1,
    "VISIT": "BASELINE",
    "QSDTC": "2013-07-24",
    "QSBLFL": "Y",
    "QSORRES": "17",
    "QSSTRESC": "17",
    "QSSTRESN": 17
  },
  {
    "STUDYID": "CDISCPILOT01",
    "DOMAIN": "QS",
    "USUBJID": "01-703-006",
    "QSSEQ": 2,
    "QSTESTCD": "ACTOT",
    "QSTEST": "ADAS-Cog (11) Total Score",
    "QSCAT": "ADAS-COG",
    "VISITNUM": 3,
    "VISIT": "WEEK 4",
    "QSDTC": "2013-08-21",
    "QSBLFL": "",
    "QSORRES": "17",
    "QSSTRESC": "17",
    "QSSTRESN": 17
  },
  {
    "STUDYID": "CDISCPILOT01",
    "DOMAIN": "QS",
    "USUBJID": "01-703-006",
    "QSSEQ": 3,
    "QSTESTCD": "CIBIC",
    "QSTEST": "CIBIC+ Global Assessment",
    "QSCAT": "CIBIC+",
    "VISITNUM": 7,
    "VISIT": "WEEK 24",
    "QSDTC": "2014-01-08",
    "QSBLFL": "",
    "QSORRES": "MINIMAL WORSENING",
    "QSSTRESC": "5",
    "QSSTRESN": 5
  },
  {
    "STUDYID": "CDISCPILOT01",
    "DOMAIN": "QS",
    "USUBJID": "01-703-007",
    "QSSEQ": 1,
    "QSTESTCD": "ACTOT",
    "QSTEST": "ADAS-Cog (11) Total Score",
    "QSCAT": "ADAS-COG",
    "VISITNUM": 1,
    "VISIT": "BASELINE",
    "QSDTC": "2013-02-21",
    "QSBLFL": "Y",
    "QSORRES": "32",
    "QSSTRESC": "32",
    "QSSTRESN": 32
  },
  {
    "STUDYID": "CDISCPILOT01",
    "DOMAIN": "QS",
    "USUBJID": "01-703-007",
    "QSSEQ": 2,
    "QSTESTCD": "ACTOT",
    "QSTEST": "ADAS-Cog (11) Total Score",
    "QSCAT": "ADAS-COG",
    "VISITNUM": 3,
    "VISIT": "WEEK 4",
    "QSDTC": "2013-03-21",
    "QSBLFL": "",
    "QSORRES": "35",
    "QSSTRESC": "35",
    "QSSTRESN": 35
  },
  {
    "STUDYID": "CDISCPILOT01",
    "DOMAIN": "QS",
    "USUBJID": "01-703-007",
    "QSSEQ": 3,
    "QSTESTCD": "ACTOT",
    "QSTEST": "ADAS-Cog (11) Total Score",
    "QSCAT": "ADAS-COG",
    "VISITNUM": 4,
    "VISIT": "WEEK 8",
    "QSDTC": "2013-04-18",
    "QSBLFL": "",
    "QSORRES": "31",
    "QSSTRESC": "31",
    "QSSTRESN": 31
  },
  {
    "STUDYID": "CDISCPILOT01",
    "DOMAIN": "QS",
    "USUBJID": "01-703-007",
    "QSSEQ": 4,
    "QSTESTCD": "CIBIC",
    "QSTEST": "CIBIC+ Global Assessment",
    "QSCAT": "CIBIC+",
    "VISITNUM": 7,
    "VISIT": "WEEK 24",
    "QSDTC": "2013-08-08",
    "QSBLFL": "",
    "QSORRES": "NO CHANGE",
    "QSSTRESC": "4",
    "QSSTRESN": 4
  },
  {
    "STUDYID": "CDISCPILOT01",
    "DOMAIN": "QS",
    "USUBJID": "01-703-008",
    "QSSEQ": 1,
    "QSTESTCD": "ACTOT",
    "QSTEST": "ADAS-Cog (11) Total Score",
    "QSCAT": "ADAS-COG",
    "VISITNUM": 1,
    "VISIT": "BASELINE",
    "QSDTC": "2014-01-01",
    "QSBLFL": "Y",
    "QSORRES": "36",
    "QSSTRESC": "36",
    "QSSTRESN": 36
  },
  {
    "STUDYID": "CDISCPILOT01",
    "DOMAIN": "QS",
    "USUBJID": "01-703-008",
    "QSSEQ": 2,
    "QSTESTCD": "ACTOT",
    "QSTEST": "ADAS-Cog (11) Total Score",
    "QSCAT": "ADAS-COG",
    "VISITNUM": 3,
    "VISIT": "WEEK 4",
    "QSDTC": "2014-01-29",
    "QSBLFL": "",
    "QSORRES": "34",
    "QSSTRESC": "34",
    "QSSTRESN": 34
  },
  {
    "STUDYID": "CDISCPILOT01",
    "DOMAIN": "QS",
    "USUBJID": "01-703-008",
    "QSSEQ": 3,
    "QSTESTCD": "ACTOT",
    "QSTEST": "ADAS-Cog (11) Total Score",
    "QSCAT": "ADAS-COG",
    "VISITNUM": 4,
    "VISIT": "WEEK 8",
    "QSDTC": "2014-02-26",
    "QSBLFL": "",
    "QSORRES": "40",
    "QSSTRESC": "40",
    "QSSTRESN": 40
  },
  {
    "STUDYID": "CDISCPILOT01",
    "DOMAIN": "QS",
    "USUBJID": "01-703-008",
    "QSSEQ": 4,
    "QSTESTCD": "ACTOT",
    "QSTEST": "ADAS-Cog (11) Total Score",
    "QSCAT": "ADAS-COG",
    "VISITNUM": 5,
    "VISIT": "WEEK 12",
    "QSDTC": "2014-03-26",
    "QSBLFL": "",
    "QSORRES": "40",
    "QSSTRESC": "40",
    "QSSTRESN": 40
  },
  {
    "STUDYID": "CDISCPILOT01",
    "DOMAIN": "QS",
    "USUBJID": "01-703-008",
    "QSSEQ": 5,
    "QSTESTCD": "ACTOT",
    "QSTEST": "ADAS-Cog (11) Total Score",
    "QSCAT": "ADAS-COG",
    "VISITNUM": 7,
    "VISIT": "WEEK 24",
    "QSDTC": "2014-06-18",
    "QSBLFL": "",
    "QSORRES": "38",
    "QSSTRESC": "38",
    "QSSTRESN": 38
  },
  {
    "STUDYID": "CDISCPILOT01",
    "DOMAIN": "QS",
    "USUBJID": "01-703-008",
    "QSSEQ": 6,
    "QSTESTCD": "CIBIC",
    "QSTEST": "CIBIC+ Global Assessment",
    "QSCAT": "CIBIC+",
    "VISITNUM": 7,
    "VISIT": "WEEK 24",
    "QSDTC": "2014-06-18",
    "QSBLFL": "",
    "QSORRES": "NO CHANGE",
    "QSSTRESC": "4",
    "QSSTRESN": 4
  },
  {
    "STUDYID": "CDISCPILOT01",
    "DOMAIN": "QS",
    "USUBJID": "01-703-009",
    "QSSEQ": 1,
    "QSTESTCD": "ACTOT",
    "QSTEST": "ADAS-Cog (11) Total Score",
    "QSCAT": "ADAS-COG",
    "VISITNUM": 1,
    "VISIT": "BASELINE",
    "QSDTC": "2013-06-04",
    "QSBLFL": "Y",
    "QSORRES": "11",
    "QSSTRESC": "11",
    "QSSTRESN": 11
  },
  {
    "STUDYID": "CDISCPILOT01",
    "DOMAIN": "QS",
    "USUBJID": "01-703-009",
    "QSSEQ": 2,
    "QSTESTCD": "ACTOT",
    "QSTEST": "ADAS-Cog (11) Total Score",
    "QSCAT": "ADAS-COG",
    "VISITNUM": 3,
    "VISIT": "WEEK 4",
    "QSDTC": "2013-07-02",
    "QSBLFL": "",
    "QSORRES": "10",
    "QSSTRESC": "10",
    "QSSTRESN": 10
  },
  {
    "STUDYID": "CDISCPILOT01",
    "DOMAIN": "QS",
    "USUBJID": "01-703-009",
    "QSSEQ": 3,
    "QSTESTCD": "CIBIC",
    "QSTEST": "CIBIC+ Global Assessment",
    "QSCAT": "CIBIC+",
    "VISITNUM": 7,
    "VISIT": "WEEK 24",
    "QSDTC": "2013-11-19",
    "QSBLFL": "",
    "QSORRES": "MINIMAL WORSENING",
    "QSSTRESC": "5",
    "QSSTRESN": 5
  },
  {
    "STUDYID": "CDISCPILOT01",
    "DOMAIN": "QS",
    "USUBJID": "01-703-010",
    "QSSEQ": 1,
    "QSTESTCD": "ACTOT",
    "QSTEST": "ADAS-Cog (11) Total Score",
    "QSCAT": "ADAS-COG",
    "VISITNUM": 1,
    "VISIT": "BASELINE",
    "QSDTC": "2013-07-02",
    "QSBLFL": "Y",
    "QSORRES": "35",
    "QSSTRESC": "35",
    "QSSTRESN": 35
  },
  {
    "STUDYID": "CDISCPILOT01",
    "DOMAIN": "QS",
    "USUBJID": "01-703-010",
    "QSSEQ": 2,
    "QSTESTCD": "CIBIC",
    "QSTEST": "CIBIC+ Global Assessment",
    "QSCAT": "CIBIC+",
    "VISITNUM": 7,
    "VISIT": "WEEK 24",
    "QSDTC": "2013-12-17",
    "QSBLFL": "",
    "QSORRES": "NO CHANGE",
    "QSSTRESC": "4",
    "QSSTRESN": 4
  },
  {
    "STUDYID": "CDISCPILOT01",
    "DOMAIN": "QS",
    "USUBJID": "01-703-011",
    "QSSEQ": 1,
    "QSTESTCD": "ACTOT",
    "QSTEST": "ADAS-Cog (11) Total Score",
    "QSCAT": "ADAS-COG",
    "VISITNUM": 1,
    "VISIT": "BASELINE",
    "QSDTC": "2013-12-22",
    "QSBLFL": "Y",
    "QSORRES": "23",
    "QSSTRESC": "23",
    "QSSTRESN": 23
  },
  {
    "STUDYID": "CDISCPILOT01",
    "DOMAIN": "QS",
    "USUBJID": "01-703-011",
    "QSSEQ": 2,
    "QSTESTCD": "ACTOT",
    "QSTEST": "ADAS-Cog (11) Total Score",
    "QSCAT": "ADAS-COG",
    "VISITNUM": 3,
    "VISIT": "WEEK 4",
    "QSDTC": "2014-01-19",
    "QSBLFL": "",
    "QSORRES": "24",
    "QSSTRESC": "24",
    "QSSTRESN": 24
  },
  {
    "STUDYID": "CDISCPILOT01",
    "DOMAIN": "QS",
    "USUBJID": "01-703-011",
    "QSSEQ": 3,
    "QSTESTCD": "ACTOT",
    "QSTEST": "ADAS-Cog (11) Total Score",
    "QSCAT": "ADAS-COG",
    "VISITNUM": 4,
    "VISIT": "WEEK 8",
    "QSDTC": "2014-02-16",
    "QSBLFL": "",
    "QSORRES": "20",
    "QSSTRESC": "20",
    "QSSTRESN": 20
  },
  {
    "STUDYID": "CDISCPILOT01",
    "DOMAIN": "QS",
    "USUBJID": "01-703-011",
    "QSSEQ": 4,
    "QSTESTCD": "ACTOT",
    "QSTEST": "ADAS-Cog (11) Total Score",
    "QSCAT": "ADAS-COG",
    "VISITNUM": 5,
    "VISIT": "WEEK 12",
    "QSDTC": "2014-03-16",
    "QSBLFL": "",
    "QSORRES": "22",
    "QSSTRESC": "22",
    "QSSTRESN": 22
  },
  {
    "STUDYID": "CDISCPILOT01",
    "DOMAIN": "QS",
    "USUBJID": "01-703-011",
    "QSSEQ": 5,
    "QSTESTCD": "ACTOT",
    "QSTEST": "ADAS-Cog (11) Total Score",
    "QSCAT": "ADAS-COG",
    "VISITNUM": 7,
    "VISIT": "WEEK 24",
    "QSDTC": "2014-06-08",
    "QSBLFL": "",
    "QSORRES": "32",
    "QSSTRESC": "32",
    "QSSTRESN": 32
  },
  {
    "STUDYID": "CDISCPILOT01",
    "DOMAIN": "QS",
    "USUBJID": "01-703-011",
    "QSSEQ": 6,
    "QSTESTCD": "CIBIC",
    "QSTEST": "CIBIC+ Global Assessment",
    "QSCAT": "CIBIC+",
    "VISITNUM": 7,
    "VISIT": "WEEK 24",
    "QSDTC": "2014-06-08",
    "QSBLFL": "",
    "QSORRES": "MINIMAL IMPROVEMENT",
    "QSSTRESC": "3",
    "QSSTRESN": 3
  },
  {
    "STUDYID": "CDISCPILOT01",
    "DOMAIN": "QS",
    "USUBJID": "01-703-012",
    "QSSEQ": 1,
    "QSTESTCD": "ACTOT",
    "QSTEST": "ADAS-Cog (11) Total Score",
    "QSCAT": "ADAS-COG",
    "VISITNUM": 1,
    "VISIT": "BASELINE",
    "QSDTC": "2013-02-06",
    "QSBLFL": "Y",
    "QSORRES": "30",
    "QSSTRESC": "30",
    "QSSTRESN": 30
  },
  {
    "STUDYID": "CDISCPILOT01",
    "DOMAIN": "QS",
    "USUBJID": "01-703-012",
    "QSSEQ": 2,
    "QSTESTCD": "CIBIC",
    "QSTEST": "CIBIC+ Global Assessment",
    "QSCAT": "CIBIC+",
    "VISITNUM": 7,
    "VISIT": "WEEK 24",
    "QSDTC": "2013-07-24",
    "QSBLFL": "",
    "QSORRES": "MINIMAL WORSENING",
    "QSSTRESC": "5",
    "QSSTRESN": 5
  },
  {
    "STUDYID": "CDISCPILOT01",
    "DOMAIN": "QS",
    "USUBJID": "01-703-013",
    "QSSEQ": 1,
    "QSTESTCD": "ACTOT",
    "QSTEST": "ADAS-Cog (11) Total Score",
    "QSCAT": "ADAS-COG",
    "VISITNUM": 1,
    "VISIT": "BASELINE",
    "QSDTC": "2013-04-28",
    "QSBLFL": "Y",
    "QSORRES": "12",
    "QSSTRESC": "12",
    "QSSTRESN": 12
  },
  {
    "STUDYID": "CDISCPILOT01",
    "DOMAIN": "QS",
    "USUBJID": "01-703-013",
    "QSSEQ": 2,
    "QSTESTCD": "ACTOT",
    "QSTEST": "ADAS-Cog (11) Total Score",
    "QSCAT": "ADAS-COG",
    "VISITNUM": 3,
    "VISIT": "WEEK 4",
    "QSDTC": "2013-05-26",
    "QSBLFL": "",
    "QSORRES": "14",
    "QSSTRESC": "14",
    "QSSTRESN": 14
  },
  {
    "STUDYID": "CDISCPILOT01",
    "DOMAIN": "QS",
    "USUBJID": "01-703-013",
    "QSSEQ": 3,
    "QSTESTCD": "ACTOT",
    "QSTEST": "ADAS-Cog (11) Total Score",
    "QSCAT": "ADAS-COG",
    "VISITNUM": 4,
    "VISIT": "WEEK 8",
    "QSDTC": "2013-06-23",
    "QSBLFL": "",
    "QSORRES": "14",
    "QSSTRESC": "14",
    "QSSTRESN": 14
  },
  {
    "STUDYID": "CDISCPILOT01",
    "DOMAIN": "QS",
    "USUBJID": "01-703-013",
    "QSSEQ": 4,
    "QSTESTCD": "ACTOT",
    "QSTEST": "ADAS-Cog (11) Total Score",
    "QSCAT": "ADAS-COG",
    "VISITNUM": 5,
    "VISIT": "WEEK 12",
    "QSDTC": "2013-07-21",
    "QSBLFL": "",
    "QSORRES": "14",
    "QSSTRESC": "14",
    "QSSTRESN": 14
  },
  {
    "STUDYID": "CDISCPILOT01",
    "DOMAIN": "QS",
    "USUBJID": "01-703-013",
    "QSSEQ": 5,
    "QSTESTCD": "CIBIC",
    "QSTEST": "CIBIC+ Global Assessment",
    "QSCAT": "CIBIC+",
    "VISITNUM": 7,
    "VISIT": "WEEK 24",
    "QSDTC": "2013-10-13",
    "QSBLFL": "",
    "QSORRES": "MODERATE WORSENING",
    "QSSTRESC": "6",
    "QSSTRESN": 6
  },
  {
    "STUDYID": "CDISCPILOT01",
    "DOMAIN": "QS",
    "USUBJID": "01-703-014",
    "QSSEQ": 1,
    "QSTESTCD": "ACTOT",
    "QSTEST": "ADAS-Cog (11) Total Score",
    "QSCAT": "ADAS-COG",
    "VISITNUM": 1,
    "VISIT": "BASELINE",
    "QSDTC": "2013-07-17",
    "QSBLFL": "Y",
    "QSORRES": "5",
    "QSSTRESC": "5",
    "QSSTRESN": 5
  },
  {
    "STUDYID": "CDISCPILOT01",
    "DOMAIN": "QS",
    "USUBJID": "01-703-014",
    "QSSEQ": 2,
    "QSTESTCD": "ACTOT",
    "QSTEST": "ADAS-Cog (11) Total Score",
    "QSCAT": "ADAS-COG",
    "VISITNUM": 3,
    "VISIT": "WEEK 4",
    "QSDTC": "2013-08-14",
    "QSBLFL": "",
    "QSORRES": "3",
    "QSSTRESC": "3",
    "QSSTRESN": 3
  },
  {
    "STUDYID": "CDISCPILOT01",
    "DOMAIN": "QS",
    "USUBJID": "01-703-014",
    "QSSEQ": 3,
    "QSTESTCD": "CIBIC",
    "QSTEST": "CIBIC+ Global Assessment",
    "QSCAT": "CIBIC+",
    "VISITNUM": 7,
    "VISIT": "WEEK 24",
    "QSDTC": "2014-01-01",
    "QSBLFL": "",
    "QSORRES": "NO CHANGE",
    "QSSTRESC": "4",
    "QSSTRESN": 4
  },
  {
    "STUDYID": "CDISCPILOT01",
    "DOMAIN": "QS",
    "USUBJID": "01-703-015",
    "QSSEQ": 1,
    "QSTESTCD": "ACTOT",
    "QSTEST": "ADAS-Cog (11) Total Score",
    "QSCAT": "ADAS-COG",
    "VISITNUM": 1,
    "VISIT": "BASELINE",
    "QSDTC": "2013-02-11",
    "QSBLFL": "Y",
    "QSORRES": "26",
    "QSSTRESC": "26",
    "QSSTRESN": 26
  },
  {
    "STUDYID": "CDISCPILOT01",
    "DOMAIN": "QS",
    "USUBJID": "01-703-015",
    "QSSEQ": 2,
    "QSTESTCD": "ACTOT",
    "QSTEST": "ADAS-Cog (11) Total Score",
    "QSCAT": "ADAS-COG",
    "VISITNUM": 3,
    "VISIT": "WEEK 4",
    "QSDTC": "2013-03-11",
    "QSBLFL": "",
    "QSORRES": "22",
    "QSSTRESC": "22",
    "QSSTRESN": 22
  },
  {
    "STUDYID": "CDISCPILOT01",
    "DOMAIN": "QS",
    "USUBJID": "01-703-015",
    "QSSEQ": 3,
    "QSTESTCD": "ACTOT",
    "QSTEST": "ADAS-Cog (11) Total Score",
    "QSCAT": "ADAS-COG",
    "VISITNUM": 4,
    "VISIT": "WEEK 8",
    "QSDTC": "2013-04-08",
    "QSBLFL": "",
    "QSORRES": "30",
    "QSSTRESC": "30",
    "QSSTRESN": 30
  },
  {
    "STUDYID": "CDISCPILOT01",
    "DOMAIN": "QS",
    "USUBJID": "01-703-015",
    "QSSEQ": 4,
    "QSTESTCD": "ACTOT",
    "QSTEST": "ADAS-Cog (11) Total Score",
    "QSCAT": "ADAS-COG",
    "VISITNUM": 5,
    "VISIT": "WEEK 12",
    "QSDTC": "2013-05-06",
    "QSBLFL": "",
    "QSORRES": "24",
    "QSSTRESC": "24",
    "QSSTRESN": 24
  },
  {
    "STUDYID": "CDISCPILOT01",
    "DOMAIN": "QS",
    "USUBJID": "01-703-015",
    "QSSEQ": 5,
    "QSTESTCD": "ACTOT",
    "QSTEST": "ADAS-Cog (11) Total Score",
    "QSCAT": "ADAS-COG",
    "VISITNUM": 7,
    "VISIT": "WEEK 24",
    "QSDTC": "2013-07-29",
    "QSBLFL": "",
    "QSORRES": "34",
    "QSSTRESC": "34",
    "QSSTRESN": 34
  },
  {
    "STUDYID": "CDISCPILOT01",
    "DOMAIN": "QS",
    "USUBJID": "01-703-015",
    "QSSEQ": 6,
    "QSTESTCD": "CIBIC",
    "QSTEST": "CIBIC+ Global Assessment",
    "QSCAT": "CIBIC+",
    "VISITNUM": 7,
    "VISIT": "WEEK 24",
    "QSDTC": "2013-07-29",
    "QSBLFL": "",
    "QSORRES": "MINIMAL WORSENING",
    "QSSTRESC": "5",
    "QSSTRESN": 5
  },
  {
    "STUDYID": "CDISCPILOT01",
    "DOMAIN": "QS",
    "USUBJID": "01-703-016",
    "QSSEQ": 1,
    "QSTESTCD": "ACTOT",
    "QSTEST": "ADAS-Cog (11) Total Score",
    "QSCAT": "ADAS-COG",
    "VISITNUM": 1,
    "VISIT": "BASELINE",
    "QSDTC": "2013-05-02",
    "QSBLFL": "Y",
    "QSORRES": "23",
    "QSSTRESC": "23",
    "QSSTRESN": 23
  },
  {
    "STUDYID": "CDISCPILOT01",
    "DOMAIN": "QS",
    "USUBJID": "01-703-016",
    "QSSEQ": 2,
    "QSTESTCD": "ACTOT",
    "QSTEST": "ADAS-Cog (11) Total Score",
    "QSCAT": "ADAS-COG",
    "VISITNUM": 3,
    "VISIT": "WEEK 4",
    "QSDTC": "2013-05-30",
    "QSBLFL": "",
    "QSORRES": "26",
    "QSSTRESC": "26",
    "QSSTRESN": 26
  },
  {
    "STUDYID": "CDISCPILOT01",
    "DOMAIN": "QS",
    "USUBJID": "01-703-016",
    "QSSEQ": 3,
    "QSTESTCD": "ACTOT",
    "QSTEST": "ADAS-Cog (11) Total Score",
    "QSCAT": "ADAS-COG",
    "VISITNUM": 4,
    "VISIT": "WEEK 8",
    "QSDTC": "2013-06-27",
    "QSBLFL": "",
    "QSORRES": "25",
    "QSSTRESC": "25",
    "QSSTRESN": 25
  },
  {
    "STUDYID": "CDISCPILOT01",
    "DOMAIN": "QS",
    "USUBJID": "01-703-016",
    "QSSEQ": 4,
    "QSTESTCD": "ACTOT",
    "QSTEST": "ADAS-Cog (11) Total Score",
    "QSCAT": "ADAS-COG",
    "VISITNUM": 5,
    "VISIT": "WEEK 12",
    "QSDTC": "2013-07-25",
    "QSBLFL": "",
    "QSORRES": "23",
    "QSSTRESC": "23",
    "QSSTRESN": 23
  },
  {
    "STUDYID": "CDISCPILOT01",
    "DOMAIN": "QS",
    "USUBJID": "01-703-016",
    "QSSEQ": 5,
    "QSTESTCD": "CIBIC",
    "QSTEST": "CIBIC+ Global Assessment",
    "QSCAT": "CIBIC+",
    "VISITNUM": 7,
    "VISIT": "WEEK 24",
    "QSDTC": "2013-10-17",
    "QSBLFL": "",
    "QSORRES": "MODERATE WORSENING",
    "QSSTRESC": "6",
    "QSSTRESN": 6
  },
  {
    "STUDYID": "CDISCPILOT01",
    "DOMAIN": "QS",
    "USUBJID": "01-703-017",
    "QSSEQ": 1,
    "QSTESTCD": "ACTOT",
    "QSTEST": "ADAS-Cog (11) Total Score",
    "QSCAT": "ADAS-COG",
    "VISITNUM": 1,
    "VISIT": "BASELINE",
    "QSDTC": "2013-11-18",
    "QSBLFL": "Y",
    "QSORRES": "26",
    "QSSTRESC": "26",
    "QSSTRESN": 26
  },
  {
    "STUDYID": "CDISCPILOT01",
    "DOMAIN": "QS",
    "USUBJID": "01-703-017",
    "QSSEQ": 2,
    "QSTESTCD": "ACTOT",
    "QSTEST": "ADAS-Cog (11) Total Score",
    "QSCAT": "ADAS-COG",
    "VISITNUM": 3,
    "VISIT": "WEEK 4",
    "QSDTC": "2013-12-16",
    "QSBLFL": "",
    "QSORRES": "27",
    "QSSTRESC": "27",
    "QSSTRESN": 27
  },
  {
    "STUDYID": "CDISCPILOT01",
    "DOMAIN": "QS",
    "USUBJID": "01-703-017",
    "QSSEQ": 3,
    "QSTESTCD": "CIBIC",
    "QSTEST": "CIBIC+ Global Assessment",
    "QSCAT": "CIBIC+",
    "VISITNUM": 7,
    "VISIT": "WEEK 24",
    "QSDTC": "2014-05-05",
    "QSBLFL": "",
    "QSORRES": "MINIMAL WORSENING",
    "QSSTRESC": "5",
    "QSSTRESN": 5
  },
  {
    "STUDYID": "CDISCPILOT01",
    "DOMAIN": "QS",
    "USUBJID": "01-703-018",
    "QSSEQ": 1,
    "QSTESTCD": "ACTOT",
    "QSTEST": "ADAS-Cog (11) Total Score",
    "QSCAT": "ADAS-COG",
    "VISITNUM": 1,
    "VISIT": "BASELINE",
    "QSDTC": "2013-08-23",
    "QSBLFL": "Y",
    "QSORRES": "32",
    "QSSTRESC": "32",
    "QSSTRESN": 32
  },
  {
    "STUDYID": "CDISCPILOT01",
    "DOMAIN": "QS",
    "USUBJID": "01-703-018",
    "QSSEQ": 2,
    "QSTESTCD": "ACTOT",
    "QSTEST": "ADAS-Cog (11) Total Score",
    "QSCAT": "ADAS-COG",
    "VISITNUM": 3,
    "VISIT": "WEEK 4",
    "QSDTC": "2013-09-20",
    "QSBLFL": "",
    "QSORRES": "37",
    "QSSTRESC": "37",
    "QSSTRESN": 37
  },
  {
    "STUDYID": "CDISCPILOT01",
    "DOMAIN": "QS",
    "USUBJID": "01-703-018",
    "QSSEQ": 3,
    "QSTESTCD": "CIBIC",
    "QSTEST": "CIBIC+ Global Assessment",
    "QSCAT": "CIBIC+",
    "VISITNUM": 7,
    "VISIT": "WEEK 24",
    "QSDTC": "2014-02-07",
    "QSBLFL": "",
    "QSORRES": "MINIMAL WORSENING",
    "QSSTRESC": "5",
    "QSSTRESN": 5
  },
  {
    "STUDYID": "CDISCPILOT01",
    "DOMAIN": "QS",
    "USUBJID": "01-703-019",
    "QSSEQ": 1,
    "QSTESTCD": "ACTOT",
    "QSTEST": "ADAS-Cog (11) Total Score",
    "QSCAT": "ADAS-COG",
    "VISITNUM": 1,
    "VISIT": "BASELINE",
    "QSDTC": "2013-11-03",
    "QSBLFL": "Y",
    "QSORRES": "5",
    "QSSTRESC": "5",
    "QSSTRESN": 5
  },
  {
    "STUDYID": "CDISCPILOT01",
    "DOMAIN": "QS",
    "USUBJID": "01-703-019",
    "QSSEQ": 2,
    "QSTESTCD": "ACTOT",
    "QSTEST": "ADAS-Cog (11) Total Score",
    "QSCAT": "ADAS-COG",
    "VISITNUM": 3,
    "VISIT": "WEEK 4",
    "QSDTC": "2013-12-01",
    "QSBLFL": "",
    "QSORRES": "7",
    "QSSTRESC": "7",
    "QSSTRESN": 7
  },
  {
    "STUDYID": "CDISCPILOT01",
    "DOMAIN": "QS",
    "USUBJID": "01-703-019",
    "QSSEQ": 3,
    "QSTESTCD": "ACTOT",
    "QSTEST": "ADAS-Cog (11) Total Score",
    "QSCAT": "ADAS-COG",
    "VISITNUM": 4,
    "VISIT": "WEEK 8",
    "QSDTC": "2013-12-29",
    "QSBLFL": "",
    "QSORRES": "7",
    "QSSTRESC": "7",
    "QSSTRESN": 7
  },
  {
    "STUDYID": "CDISCPILOT01",
    "DOMAIN": "QS",
    "USUBJID": "01-703-019",
    "QSSEQ": 4,
    "QSTESTCD": "ACTOT",
    "QSTEST": "ADAS-Cog (11) Total Score",
    "QSCAT": "ADAS-COG",
    "VISITNUM": 5,
    "VISIT": "WEEK 12",
    "QSDTC": "2014-01-26",
    "QSBLFL": "",
    "QSORRES": "9",
    "QSSTRESC": "9",
    "QSSTRESN": 9
  },
  {
    "STUDYID": "CDISCPILOT01",
    "DOMAIN": "QS",
    "USUBJID": "01-703-019",
    "QSSEQ": 5,
    "QSTESTCD": "ACTOT",
    "QSTEST": "ADAS-Cog (11) Total Score",
    "QSCAT": "ADAS-COG",
    "VISITNUM": 7,
    "VISIT": "WEEK 24",
    "QSDTC": "2014-04-20",
    "QSBLFL": "",
    "QSORRES": "10",
    "QSSTRESC": "10",
    "QSSTRESN": 10
  },
  {
    "STUDYID": "CDISCPILOT01",
    "DOMAIN": "QS",
    "USUBJID": "01-703-019",
    "QSSEQ": 6,
    "QSTESTCD": "CIBIC",
    "QSTEST": "CIBIC+ Global Assessment",
    "QSCAT": "CIBIC+",
    "VISITNUM": 7,
    "VISIT": "WEEK 24",
    "QSDTC": "2014-04-20",
    "QSBLFL": "",
    "QSORRES": "NO CHANGE",
    "QSSTRESC": "4",
    "QSSTRESN": 4
  },
  {
    "STUDYID": "CDISCPILOT01",
    "DOMAIN": "QS",
    "USUBJID": "01-703-020",
    "QSSEQ": 1,
    "QSTESTCD": "ACTOT",
    "QSTEST": "ADAS-Cog (11) Total Score",
    "QSCAT": "ADAS-COG",
    "VISITNUM": 1,
    "VISIT": "BASELINE",
    "QSDTC": "2013-07-07",
    "QSBLFL": "Y",
    "QSORRES": "26",
    "QSSTRESC": "26",
    "QSSTRESN": 26
  },
  {
    "STUDYID": "CDISCPILOT01",
    "DOMAIN": "QS",
    "USUBJID": "01-703-020",
    "QSSEQ": 2,
    "QSTESTCD": "ACTOT",
    "QSTEST": "ADAS-Cog (11) Total Score",
    "QSCAT": "ADAS-COG",
    "VISITNUM": 3,
    "VISIT": "WEEK 4",
    "QSDTC": "2013-08-04",
    "QSBLFL": "",
    "QSORRES": "24",
    "QSSTRESC": "24",
    "QSSTRESN": 24
  },
  {
    "STUDYID": "CDISCPILOT01",
    "DOMAIN": "QS",
    "USUBJID": "01-703-020",
    "QSSEQ": 3,
    "QSTESTCD": "ACTOT",
    "QSTEST": "ADAS-Cog (11) Total Score",
    "QSCAT": "ADAS-COG",
    "VISITNUM": 4,
    "VISIT": "WEEK 8",
    "QSDTC": "2013-09-01",
    "QSBLFL": "",
    "QSORRES": "25",
    "QSSTRESC": "25",
    "QSSTRESN": 25
  },
  {
    "STUDYID": "CDISCPILOT01",
    "DOMAIN": "QS",
    "USUBJID": "01-703-020",
    "QSSEQ": 4,
    "QSTESTCD": "ACTOT",
    "QSTEST": "ADAS-Cog (11) Total Score",
    "QSCAT": "ADAS-COG",
    "VISITNUM": 5,
    "VISIT": "WEEK 12",
    "QSDTC": "2013-09-29",
    "QSBLFL": "",
    "QSORRES": "32",
    "QSSTRESC": "32",
    "QSSTRESN": 32
  },
  {
    "STUDYID": "CDISCPILOT01",
    "DOMAIN": "QS",
    "USUBJID": "01-703-020",
    "QSSEQ": 5,
    "QSTESTCD": "CIBIC",
    "QSTEST": "CIBIC+ Global Assessment",
    "QSCAT": "CIBIC+",
    "VISITNUM": 7,
    "VISIT": "WEEK 24",
    "QSDTC": "2013-12-22",
    "QSBLFL": "",
    "QSORRES": "NO CHANGE",
    "QSSTRESC": "4",
    "QSSTRESN": 4
  },
  {
    "STUDYID": "CDISCPILOT01",
    "DOMAIN": "QS",
    "USUBJID": "01-704-001",
    "QSSEQ": 1,
    "QSTESTCD": "ACTOT",
    "QSTEST": "ADAS-Cog (11) Total Score",
    "QSCAT": "ADAS-COG",
    "VISITNUM": 1,
    "VISIT": "BASELINE",
    "QSDTC": "2013-12-14",
    "QSBLFL": "Y",
    "QSORRES": "18",
    "QSSTRESC": "18",
    "QSSTRESN": 18
  },
  {
    "STUDYID": "CDISCPILOT01",
    "DOMAIN": "QS",
    "USUBJID": "01-704-001",
    "QSSEQ": 2,
    "QSTESTCD": "ACTOT",
    "QSTEST": "ADAS-Cog (11) Total Score",
    "QSCAT": "ADAS-COG",
    "VISITNUM": 3,
    "VISIT": "WEEK 4",
    "QSDTC": "2014-01-11",
    "QSBLFL": "",
    "QSORRES": "22",
    "QSSTRESC": "22",
    "QSSTRESN": 22
  },
  {
    "STUDYID": "CDISCPILOT01",
    "DOMAIN": "QS",
    "USUBJID": "01-704-001",
    "QSSEQ": 3,
    "QSTESTCD": "ACTOT",
    "QSTEST": "ADAS-Cog (11) Total Score",
    "QSCAT": "ADAS-COG",
    "VISITNUM": 4,
    "VISIT": "WEEK 8",
    "QSDTC": "2014-02-08",
    "QSBLFL": "",
    "QSORRES": "19",
    "QSSTRESC": "19",
    "QSSTRESN": 19
  },
  {
    "STUDYID": "CDISCPILOT01",
    "DOMAIN": "QS",
    "USUBJID": "01-704-001",
    "QSSEQ": 4,
    "QSTESTCD": "ACTOT",
    "QSTEST": "ADAS-Cog (11) Total Score",
    "QSCAT": "ADAS-COG",
    "VISITNUM": 5,
    "VISIT": "WEEK 12",
    "QSDTC": "2014-03-08",
    "QSBLFL": "",
    "QSORRES": "11",
    "QSSTRESC": "11",
    "QSSTRESN": 11
  },
  {
    "STUDYID": "CDISCPILOT01",
    "DOMAIN": "QS",
    "USUBJID": "01-704-001",
    "QSSEQ": 5,
    "QSTESTCD": "ACTOT",
    "QSTEST": "ADAS-Cog (11) Total Score",
    "QSCAT": "ADAS-COG",
    "VISITNUM": 7,
    "VISIT": "WEEK 24",
    "QSDTC": "2014-05-31",
    "QSBLFL": "",
    "QSORRES": "24",
    "QSSTRESC": "24",
    "QSSTRESN": 24
  },
  {
    "STUDYID": "CDISCPILOT01",
    "DOMAIN": "QS",
    "USUBJID": "01-704-001",
    "QSSEQ": 6,
    "QSTESTCD": "CIBIC",
    "QSTEST": "CIBIC+ Global Assessment",
    "QSCAT": "CIBIC+",
    "VISITNUM": 7,
    "VISIT": "WEEK 24",
    "QSDTC": "2014-05-31",
    "QSBLFL": "",
    "QSORRES": "MINIMAL WORSENING",
    "QSSTRESC": "5",
    "QSSTRESN": 5
  },
  {
    "STUDYID": "CDISCPILOT01",
    "DOMAIN": "QS",
    "USUBJID": "01-704-002",
    "QSSEQ": 1,
    "QSTESTCD": "ACTOT",
    "QSTEST": "ADAS-Cog (11) Total Score",
    "QSCAT": "ADAS-COG",
    "VISITNUM": 1,
    "VISIT": "BASELINE",
    "QSDTC": "2013-02-21",
    "QSBLFL": "Y",
    "QSORRES": "41",
    "QSSTRESC": "41",
    "QSSTRESN": 41
  },
  {
    "STUDYID": "CDISCPILOT01",
    "DOMAIN": "QS",
    "USUBJID": "01-704-002",
    "QSSEQ": 2,
    "QSTESTCD": "ACTOT",
    "QSTEST": "ADAS-Cog (11) Total Score",
    "QSCAT": "ADAS-COG",
    "VISITNUM": 3,
    "VISIT": "WEEK 4",
    "QSDTC": "2013-03-21",
    "QSBLFL": "",
    "QSORRES": "37",
    "QSSTRESC": "37",
    "QSSTRESN": 37
  },
  {
    "STUDYID": "CDISCPILOT01",
    "DOMAIN": "QS",
    "USUBJID": "01-704-002",
    "QSSEQ": 3,
    "QSTESTCD": "ACTOT",
    "QSTEST": "ADAS-Cog (11) Total Score",
    "QSCAT": "ADAS-COG",
    "VISITNUM": 4,
    "VISIT": "WEEK 8",
    "QSDTC": "2013-04-18",
    "QSBLFL": "",
    "QSORRES": "41",
    "QSSTRESC": "41",
    "QSSTRESN": 41
  },
  {
    "STUDYID": "CDISCPILOT01",
    "DOMAIN": "QS",
    "USUBJID": "01-704-002",
    "QSSEQ": 4,
    "QSTESTCD": "ACTOT",
    "QSTEST": "ADAS-Cog (11) Total Score",
    "QSCAT": "ADAS-COG",
    "VISITNUM": 5,
    "VISIT": "WEEK 12",
    "QSDTC": "2013-05-16",
    "QSBLFL": "",
    "QSORRES": "46",
    "QSSTRESC": "46",
    "QSSTRESN": 46
  },
  {
    "STUDYID": "CDISCPILOT01",
    "DOMAIN": "QS",
    "USUBJID": "01-704-002",
    "QSSEQ": 5,
    "QSTESTCD": "ACTOT",
    "QSTEST": "ADAS-Cog (11) Total Score",
    "QSCAT": "ADAS-COG",
    "VISITNUM": 7,
    "VISIT": "WEEK 24",
    "QSDTC": "2013-08-08",
    "QSBLFL": "",
    "QSORRES": "36",
    "QSSTRESC": "36",
    "QSSTRESN": 36
  },
  {
    "STUDYID": "CDISCPILOT01",
    "DOMAIN": "QS",
    "USUBJID": "01-704-002",
    "QSSEQ": 6,
    "QSTESTCD": "CIBIC",
    "QSTEST": "CIBIC+ Global Assessment",
    "QSCAT": "CIBIC+",
    "VISITNUM": 7,
    "VISIT": "WEEK 24",
    "QSDTC": "2013-08-08",
    "QSBLFL": "",
    "QSORRES": "MINIMAL IMPROVEMENT",
    "QSSTRESC": "3",
    "QSSTRESN": 3
  },
  {
    "STUDYID": "CDISCPILOT01",
    "DOMAIN": "QS",
    "USUBJID": "01-704-003",
    "QSSEQ": 1,
    "QSTESTCD": "ACTOT",
    "QSTEST": "ADAS-Cog (11) Total Score",
    "QSCAT": "ADAS-COG",
    "VISITNUM": 1,
    "VISIT": "BASELINE",
    "QSDTC": "2013-06-22",
    "QSBLFL": "Y",
    "QSORRES": "8",
    "QSSTRESC": "8",
    "QSSTRESN": 8
  },
  {
    "STUDYID": "CDISCPILOT01",
    "DOMAIN": "QS",
    "USUBJID": "01-704-003",
    "QSSEQ": 2,
    "QSTESTCD": "ACTOT",
    "QSTEST": "ADAS-Cog (11) Total Score",
    "QSCAT": "ADAS-COG",
    "VISITNUM": 3,
    "VISIT": "WEEK 4",
    "QSDTC": "2013-07-20",
    "QSBLFL": "",
    "QSORRES": "7",
    "QSSTRESC": "7",
    "QSSTRESN": 7
  },
  {
    "STUDYID": "CDISCPILOT01",
    "DOMAIN": "QS",
    "USUBJID": "01-704-003",
    "QSSEQ": 3,
    "QSTESTCD": "ACTOT",
    "QSTEST": "ADAS-Cog (11) Total Score",
    "QSCAT": "ADAS-COG",
    "VISITNUM": 4,
    "VISIT": "WEEK 8",
    "QSDTC": "2013-08-17",
    "QSBLFL": "",
    "QSORRES": "9",
    "QSSTRESC": "9",
    "QSSTRESN": 9
  },
  {
    "STUDYID": "CDISCPILOT01",
    "DOMAIN": "QS",
    "USUBJID": "01-704-003",
    "QSSEQ": 4,
    "QSTESTCD": "ACTOT",
    "QSTEST": "ADAS-Cog (11) Total Score",
    "QSCAT": "ADAS-COG",
    "VISITNUM": 5,
    "VISIT": "WEEK 12",
    "QSDTC": "2013-09-14",
    "QSBLFL": "",
    "QSORRES": "7",
    "QSSTRESC": "7",
    "QSSTRESN": 7
  },
  {
    "STUDYID": "CDISCPILOT01",
    "DOMAIN": "QS",
    "USUBJID": "01-704-003",
    "QSSEQ": 5,
    "QSTESTCD": "ACTOT",
    "QSTEST": "ADAS-Cog (11) Total Score",
    "QSCAT": "ADAS-COG",
    "VISITNUM": 7,
    "VISIT": "WEEK 24",
    "QSDTC": "2013-12-07",
    "QSBLFL": "",
    "QSORRES": "8",
    "QSSTRESC": "8",
    "QSSTRESN": 8
  },
  {
    "STUDYID": "CDISCPILOT01",
    "DOMAIN": "QS",
    "USUBJID": "01-704-003",
    "QSSEQ": 6,
    "QSTESTCD": "CIBIC",
    "QSTEST": "CIBIC+ Global Assessment",
    "QSCAT": "CIBIC+",
    "VISITNUM": 7,
    "VISIT": "WEEK 24",
    "QSDTC": "2013-12-07",
    "QSBLFL": "",
    "QSORRES": "MINIMAL WORSENING",
    "QSSTRESC": "5",
    "QSSTRESN": 5
  },
  {
    "STUDYID": "CDISCPILOT01",
    "DOMAIN": "QS",
    "USUBJID": "01-704-004",
    "QSSEQ": 1,
    "QSTESTCD": "ACTOT",
    "QSTEST": "ADAS-Cog (11) Total Score",
    "QSCAT": "ADAS-COG",
    "VISITNUM": 1,
    "VISIT": "BASELINE",
    "QSDTC": "2013-09-29",
    "QSBLFL": "Y",
    "QSORRES": "19",
    "QSSTRESC": "19",
    "QSSTRESN": 19
  },
  {
    "STUDYID": "CDISCPILOT01",
    "DOMAIN": "QS",
    "USUBJID": "01-704-004",
    "QSSEQ": 2,
    "QSTESTCD": "ACTOT",
    "QSTEST": "ADAS-Cog (11) Total Score",
    "QSCAT": "ADAS-COG",
    "VISITNUM": 3,
    "VISIT": "WEEK 4",
    "QSDTC": "2013-10-27",
    "QSBLFL": "",
    "QSORRES": "16",
    "QSSTRESC": "16",
    "QSSTRESN": 16
  },
  {
    "STUDYID": "CDISCPILOT01",
    "DOMAIN": "QS",
    "USUBJID": "01-704-004",
    "QSSEQ": 3,
    "QSTESTCD": "CIBIC",
    "QSTEST": "CIBIC+ Global Assessment",
    "QSCAT": "CIBIC+",
    "VISITNUM": 7,
    "VISIT": "WEEK 24",
    "QSDTC": "2014-03-16",
    "QSBLFL": "",
    "QSORRES": "NO CHANGE",
    "QSSTRESC": "4",
    "QSSTRESN": 4
  },
  {
    "STUDYID": "CDISCPILOT01",
    "DOMAIN": "QS",
    "USUBJID": "01-704-005",
    "QSSEQ": 1,
    "QSTESTCD": "ACTOT",
    "QSTEST": "ADAS-Cog (11) Total Score",
    "QSCAT": "ADAS-COG",
    "VISITNUM": 1,
    "VISIT": "BASELINE",
    "QSDTC": "2013-11-08",
    "QSBLFL": "Y",
    "QSORRES": "23",
    "QSSTRESC": "23",
    "QSSTRESN": 23
  },
  {
    "STUDYID": "CDISCPILOT01",
    "DOMAIN": "QS",
    "USUBJID": "01-704-005",
    "QSSEQ": 2,
    "QSTESTCD": "CIBIC",
    "QSTEST": "CIBIC+ Global Assessment",
    "QSCAT": "CIBIC+",
    "VISITNUM": 7,
    "VISIT": "WEEK 24",
    "QSDTC": "2014-04-25",
    "QSBLFL": "",
    "QSORRES": "NO CHANGE",
    "QSSTRESC": "4",
    "QSSTRESN": 4
  },
  {
    "STUDYID": "CDISCPILOT01",
    "DOMAIN": "QS",
    "USUBJID": "01-704-006",
    "QSSEQ": 1,
    "QSTESTCD": "ACTOT",
    "QSTEST": "ADAS-Cog (11) Total Score",
    "QSCAT": "ADAS-COG",
    "VISITNUM": 1,
    "VISIT": "BASELINE",
    "QSDTC": "2013-10-29",
    "QSBLFL": "Y",
    "QSORRES": "14",
    "QSSTRESC": "14",
    "QSSTRESN": 14
  },
  {
    "STUDYID": "CDISCPILOT01",
    "DOMAIN": "QS",
    "USUBJID": "01-704-006",
    "QSSEQ": 2,
    "QSTESTCD": "CIBIC",
    "QSTEST": "CIBIC+ Global Assessment",
    "QSCAT": "CIBIC+",
    "VISITNUM": 7,
    "VISIT": "WEEK 24",
    "QSDTC": "2014-04-15",
    "QSBLFL": "",
    "QSORRES": "NO CHANGE",
    "QSSTRESC": "4",
    "QSSTRESN": 4
  },
  {
    "STUDYID": "CDISCPILOT01",
    "DOMAIN": "QS",
    "USUBJID": "01-704-007",
    "QSSEQ": 1,
    "QSTESTCD": "ACTOT",
    "QSTEST": "ADAS-Cog (11) Total Score",
    "QSCAT": "ADAS-COG",
    "VISITNUM": 1,
    "VISIT": "BASELINE",
    "QSDTC": "2013-12-16",
    "QSBLFL": "Y",
    "QSORRES": "23",
    "QSSTRESC": "23",
    "QSSTRESN": 23
  },
  {
    "STUDYID": "CDISCPILOT01",
    "DOMAIN": "QS",
    "USUBJID": "01-704-007",
    "QSSEQ": 2,
    "QSTESTCD": "ACTOT",
    "QSTEST": "ADAS-Cog (11) Total Score",
    "QSCAT": "ADAS-COG",
    "VISITNUM": 3,
    "VISIT": "WEEK 4",
    "QSDTC": "2014-01-13",
    "QSBLFL": "",
    "QSORRES": "22",
    "QSSTRESC": "22",
    "QSSTRESN": 22
  },
  {
    "STUDYID": "CDISCPILOT01",
    "DOMAIN": "QS",
    "USUBJID": "01-704-007",
    "QSSEQ": 3,
    "QSTESTCD": "ACTOT",
    "QSTEST": "ADAS-Cog (11) Total Score",
    "QSCAT": "ADAS-COG",
    "VISITNUM": 4,
    "VISIT": "WEEK 8",
    "QSDTC": "2014-02-10",
    "QSBLFL": "",
    "QSORRES": "27",
    "QSSTRESC": "27",
    "QSSTRESN": 27
  },
  {
    "STUDYID": "CDISCPILOT01",
    "DOMAIN": "QS",
    "USUBJID": "01-704-007",
    "QSSEQ": 4,
    "QSTESTCD": "ACTOT",
    "QSTEST": "ADAS-Cog (11) Total Score",
    "QSCAT": "ADAS-COG",
    "VISITNUM": 5,
    "VISIT": "WEEK 12",
    "QSDTC": "2014-03-10",
    "QSBLFL": "",
    "QSORRES": "30",
    "QSSTRESC": "30",
    "QSSTRESN": 30
  },
  {
    "STUDYID": "CDISCPILOT01",
    "DOMAIN": "QS",
    "USUBJID": "01-704-007",
    "QSSEQ": 5,
    "QSTESTCD": "ACTOT",
    "QSTEST": "ADAS-Cog (11) Total Score",
    "QSCAT": "ADAS-COG",
    "VISITNUM": 7,
    "VISIT": "WEEK 24",
    "QSDTC": "2014-06-02",
    "QSBLFL": "",
    "QSORRES": "24",
    "QSSTRESC": "24",
    "QSSTRESN": 24
  },
  {
    "STUDYID": "CDISCPILOT01",
    "DOMAIN": "QS",
    "USUBJID": "01-704-007",
    "QSSEQ": 6,
    "QSTESTCD": "CIBIC",
    "QSTEST": "CIBIC+ Global Assessment",
    "QSCAT": "CIBIC+",
    "VISITNUM": 7,
    "VISIT": "WEEK 24",
    "QSDTC": "2014-06-02",
    "QSBLFL": "",
    "QSORRES": "NO CHANGE",
    "QSSTRESC": "4",
    "QSSTRESN": 4
  },
  {
    "STUDYID": "CDISCPILOT01",
    "DOMAIN": "QS",
    "USUBJID": "01-704-008",
    "QSSEQ": 1,
    "QSTESTCD": "ACTOT",
    "QSTEST": "ADAS-Cog (11) Total Score",
    "QSCAT": "ADAS-COG",
    "VISITNUM": 1,
    "VISIT": "BASELINE",
    "QSDTC": "2013-07-05",
    "QSBLFL": "Y",
    "QSORRES": "35",
    "QSSTRESC": "35",
    "QSSTRESN": 35
  },
  {
    "STUDYID": "CDISCPILOT01",
    "DOMAIN": "QS",
    "USUBJID": "01-704-008",
    "QSSEQ": 2,
    "QSTESTCD": "ACTOT",
    "QSTEST": "ADAS-Cog (11) Total Score",
    "QSCAT": "ADAS-COG",
    "VISITNUM": 3,
    "VISIT": "WEEK 4",
    "QSDTC": "2013-08-02",
    "QSBLFL": "",
    "QSORRES": "35",
    "QSSTRESC": "35",
    "QSSTRESN": 35
  },
  {
    "STUDYID": "CDISCPILOT01",
    "DOMAIN": "QS",
    "USUBJID": "01-704-008",
    "QSSEQ": 3,
    "QSTESTCD": "ACTOT",
    "QSTEST": "ADAS-Cog (11) Total Score",
    "QSCAT": "ADAS-COG",
    "VISITNUM": 4,
    "VISIT": "WEEK 8",
    "QSDTC": "2013-08-30",
    "QSBLFL": "",
    "QSORRES": "40",
    "QSSTRESC": "40",
    "QSSTRESN": 40
  },
  {
    "STUDYID": "CDISCPILOT01",
    "DOMAIN": "QS",
    "USUBJID": "01-704-008",
    "QSSEQ": 4,
    "QSTESTCD": "ACTOT",
    "QSTEST": "ADAS-Cog (11) Total Score",
    "QSCAT": "ADAS-COG",
    "VISITNUM": 5,
    "VISIT": "WEEK 12",
    "QSDTC": "2013-09-27",
    "QSBLFL": "",
    "QSORRES": "37",
    "QSSTRESC": "37",
    "QSSTRESN": 37
  },
  {
    "STUDYID": "CDISCPILOT01",
    "DOMAIN": "QS",
    "USUBJID": "01-704-008",
    "QSSEQ": 5,
    "QSTESTCD": "ACTOT",
    "QSTEST": "ADAS-Cog (11) Total Score",
    "QSCAT": "ADAS-COG",
    "VISITNUM": 7,
    "VISIT": "WEEK 24",
    "QSDTC": "2013-12-20",
    "QSBLFL": "",
    "QSORRES": "31",
    "QSSTRESC": "31",
    "QSSTRESN": 31
  },
  {
    "STUDYID": "CDISCPILOT01",
    "DOMAIN": "QS",
    "USUBJID": "01-704-008",
    "QSSEQ": 6,
    "QSTESTCD": "CIBIC",
    "QSTEST": "CIBIC+ Global Assessment",
    "QSCAT": "CIBIC+",
    "VISITNUM": 7,
    "VISIT": "WEEK 24",
    "QSDTC": "2013-12-20",
    "QSBLFL": "",
    "QSORRES": "MINIMAL WORSENING",
    "QSSTRESC": "5",
    "QSSTRESN": 5
  },
  {
    "STUDYID": "CDISCPILOT01",
    "DOMAIN": "QS",
    "USUBJID": "01-704-009",
    "QSSEQ": 1,
    "QSTESTCD": "ACTOT",
    "QSTEST": "ADAS-Cog (11) Total Score",
    "QSCAT": "ADAS-COG",
    "VISITNUM": 1,
    "VISIT": "BASELINE",
    "QSDTC": "2013-07-11",
    "QSBLFL": "Y",
    "QSORRES": "27",
    "QSSTRESC": "27",
    "QSSTRESN": 27
  },
  {
    "STUDYID": "CDISCPILOT01",
    "DOMAIN": "QS",
    "USUBJID": "01-704-009",
    "QSSEQ": 2,
    "QSTESTCD": "ACTOT",
    "QSTEST": "ADAS-Cog (11) Total Score",
    "QSCAT": "ADAS-COG",
    "VISITNUM": 3,
    "VISIT": "WEEK 4",
    "QSDTC": "2013-08-08",
    "QSBLFL": "",
    "QSORRES": "25",
    "QSSTRESC": "25",
    "QSSTRESN": 25
  },
  {
    "STUDYID": "CDISCPILOT01",
    "DOMAIN": "QS",
    "USUBJID": "01-704-009",
    "QSSEQ": 3,
    "QSTESTCD": "ACTOT",
    "QSTEST": "ADAS-Cog (11) Total Score",
    "QSCAT": "ADAS-COG",
    "VISITNUM": 4,
    "VISIT": "WEEK 8",
    "QSDTC": "2013-09-05",
    "QSBLFL": "",
    "QSORRES": "28",
    "QSSTRESC": "28",
    "QSSTRESN": 28
  },
  {
    "STUDYID": "CDISCPILOT01",
    "DOMAIN": "QS",
    "USUBJID": "01-704-009",
    "QSSEQ": 4,
    "QSTESTCD": "ACTOT",
    "QSTEST": "ADAS-Cog (11) Total Score",
    "QSCAT": "ADAS-COG",
    "VISITNUM": 5,
    "VISIT": "WEEK 12",
    "QSDTC": "2013-10-03",
    "QSBLFL": "",
    "QSORRES": "23",
    "QSSTRESC": "23",
    "QSSTRESN": 23
  },
  {
    "STUDYID": "CDISCPILOT01",
    "DOMAIN": "QS",
    "USUBJID": "01-704-009",
    "QSSEQ": 5,
    "QSTESTCD": "CIBIC",
    "QSTEST": "CIBIC+ Global Assessment",
    "QSCAT": "CIBIC+",
    "VISITNUM": 7,
    "VISIT": "WEEK 24",
    "QSDTC": "2013-12-26",
    "QSBLFL": "",
    "QSORRES": "MINIMAL WORSENING",
    "QSSTRESC": "5",
    "QSSTRESN": 5
  },
  {
    "STUDYID": "CDISCPILOT01",
    "DOMAIN": "QS",
    "USUBJID": "01-704-010",
    "QSSEQ": 1,
    "QSTESTCD": "ACTOT",
    "QSTEST": "ADAS-Cog (11) Total Score",
    "QSCAT": "ADAS-COG",
    "VISITNUM": 1,
    "VISIT": "BASELINE",
    "QSDTC": "2013-09-21",
    "QSBLFL": "Y",
    "QSORRES": "3",
    "QSSTRESC": "3",
    "QSSTRESN": 3
  },
  {
    "STUDYID": "CDISCPILOT01",
    "DOMAIN": "QS",
    "USUBJID": "01-704-010",
    "QSSEQ": 2,
    "QSTESTCD": "ACTOT",
    "QSTEST": "ADAS-Cog (11) Total Score",
    "QSCAT": "ADAS-COG",
    "VISITNUM": 3,
    "VISIT": "WEEK 4",
    "QSDTC": "2013-10-19",
    "QSBLFL": "",
    "QSORRES": "4",
    "QSSTRESC": "4",
    "QSSTRESN": 4
  },
  {
    "STUDYID": "CDISCPILOT01",
    "DOMAIN": "QS",
    "USUBJID": "01-704-010",
    "QSSEQ": 3,
    "QSTESTCD": "ACTOT",
    "QSTEST": "ADAS-Cog (11) Total Score",
    "QSCAT": "ADAS-COG",
    "VISITNUM": 4,
    "VISIT": "WEEK 8",
    "QSDTC": "2013-11-16",
    "QSBLFL": "",
    "QSORRES": "3",
    "QSSTRESC": "3",
    "QSSTRESN": 3
  },
  {
    "STUDYID": "CDISCPILOT01",
    "DOMAIN": "QS",
    "USUBJID": "01-704-010",
    "QSSEQ": 4,
    "QSTESTCD": "ACTOT",
    "QSTEST": "ADAS-Cog (11) Total Score",
    "QSCAT": "ADAS-COG",
    "VISITNUM": 5,
    "VISIT": "WEEK 12",
    "QSDTC": "2013-12-14",
    "QSBLFL": "",
    "QSORRES": "3",
    "QSSTRESC": "3",
    "QSSTRESN": 3
  },
  {
    "STUDYID": "CDISCPILOT01",
    "DOMAIN": "QS",
    "USUBJID": "01-704-010",
    "QSSEQ": 5,
    "QSTESTCD": "CIBIC",
    "QSTEST": "CIBIC+ Global Assessment",
    "QSCAT": "CIBIC+",
    "VISITNUM": 7,
    "VISIT": "WEEK 24",
    "QSDTC": "2014-03-08",
    "QSBLFL": "",
    "QSORRES": "NO CHANGE",
    "QSSTRESC": "4",
    "QSSTRESN": 4
  },
  {
    "STUDYID": "CDISCPILOT01",
    "DOMAIN": "QS",
    "USUBJID": "01-704-011",
    "QSSEQ": 1,
    "QSTESTCD": "ACTOT",
    "QSTEST": "ADAS-Cog (11) Total Score",
    "QSCAT": "ADAS-COG",
    "VISITNUM": 1,
    "VISIT": "BASELINE",
    "QSDTC": "2013-11-09",
    "QSBLFL": "Y",
    "QSORRES": "40",
    "QSSTRESC": "40",
    "QSSTRESN": 40
  },
  {
    "STUDYID": "CDISCPILOT01",
    "DOMAIN": "QS",
    "USUBJID": "01-704-011",
    "QSSEQ": 2,
    "QSTESTCD": "ACTOT",
    "QSTEST": "ADAS-Cog (11) Total Score",
    "QSCAT": "ADAS-COG",
    "VISITNUM": 3,
    "VISIT": "WEEK 4",
    "QSDTC": "2013-12-07",
    "QSBLFL": "",
    "QSORRES": "40",
    "QSSTRESC": "40",
    "QSSTRESN": 40
  },
  {
    "STUDYID": "CDISCPILOT01",
    "DOMAIN": "QS",
    "USUBJID": "01-704-011",
    "QSSEQ": 3,
    "QSTESTCD": "ACTOT",
    "QSTEST": "ADAS-Cog (11) Total Score",
    "QSCAT": "ADAS-COG",
    "VISITNUM": 4,
    "VISIT": "WEEK 8",
    "QSDTC": "2014-01-04",
    "QSBLFL": "",
    "QSORRES": "41",
    "QSSTRESC": "41",
    "QSSTRESN": 41
  },
  {
    "STUDYID": "CDISCPILOT01",
    "DOMAIN": "QS",
    "USUBJID": "01-704-011",
    "QSSEQ": 4,
    "QSTESTCD": "ACTOT",
    "QSTEST": "ADAS-Cog (11) Total Score",
    "QSCAT": "ADAS-COG",
    "VISITNUM": 5,
    "VISIT": "WEEK 12",
    "QSDTC": "2014-02-01",
    "QSBLFL": "",
    "QSORRES": "45",
    "QSSTRESC": "45",
    "QSSTRESN": 45
  },
  {
    "STUDYID": "CDISCPILOT01",
    "DOMAIN": "QS",
    "USUBJID": "01-704-011",
    "QSSEQ": 5,
    "QSTESTCD": "ACTOT",
    "QSTEST": "ADAS-Cog (11) Total Score",
    "QSCAT": "ADAS-COG",
    "VISITNUM": 7,
    "VISIT": "WEEK 24",
    "QSDTC": "2014-04-26",
    "QSBLFL": "",
    "QSORRES": "42",
    "QSSTRESC": "42",
    "QSSTRESN": 42
  },
  {
    "STUDYID": "CDISCPILOT01",
    "DOMAIN": "QS",
    "USUBJID": "01-704-011",
    "QSSEQ": 6,
    "QSTESTCD": "CIBIC",
    "QSTEST": "CIBIC+ Global Assessment",
    "QSCAT": "CIBIC+",
    "VISITNUM": 7,
    "VISIT": "WEEK 24",
    "QSDTC": "2014-04-26",
    "QSBLFL": "",
    "QSORRES": "NO CHANGE",
    "QSSTRESC": "4",
    "QSSTRESN": 4
  },
  {
    "STUDYID": "CDISCPILOT01",
    "DOMAIN": "QS",
    "USUBJID": "01-704-012",
    "QSSEQ": 1,
    "QSTESTCD": "ACTOT",
    "QSTEST": "ADAS-Cog (11) Total Score",
    "QSCAT": "ADAS-COG",
    "VISITNUM": 1,
    "VISIT": "BASELINE",
    "QSDTC": "2013-11-17",
    "QSBLFL": "Y",
    "QSORRES": "29",
    "QSSTRESC": "29",
    "QSSTRESN": 29
  },
  {
    "STUDYID": "CDISCPILOT01",
    "DOMAIN": "QS",
    "USUBJID": "01-704-012",
    "QSSEQ": 2,
    "QSTESTCD": "ACTOT",
    "QSTEST": "ADAS-Cog (11) Total Score",
    "QSCAT": "ADAS-COG",
    "VISITNUM": 3,
    "VISIT": "WEEK 4",
    "QSDTC": "2013-12-15",
    "QSBLFL": "",
    "QSORRES": "28",
    "QSSTRESC": "28",
    "QSSTRESN": 28
  },
  {
    "STUDYID": "CDISCPILOT01",
    "DOMAIN": "QS",
    "USUBJID": "01-704-012",
    "QSSEQ": 3,
    "QSTESTCD": "CIBIC",
    "QSTEST": "CIBIC+ Global Assessment",
    "QSCAT": "CIBIC+",
    "VISITNUM": 7,
    "VISIT": "WEEK 24",
    "QSDTC": "2014-05-04",
    "QSBLFL": "",
    "QSORRES": "NO CHANGE",
    "QSSTRESC": "4",
    "QSSTRESN": 4
  },
  {
    "STUDYID": "CDISCPILOT01",
    "DOMAIN": "QS",
    "USUBJID": "01-704-013",
    "QSSEQ": 1,
    "QSTESTCD": "ACTOT",
    "QSTEST": "ADAS-Cog (11) Total Score",
    "QSCAT": "ADAS-COG",
    "VISITNUM": 1,
    "VISIT": "BASELINE",
    "QSDTC": "2013-05-06",
    "QSBLFL": "Y",
    "QSORRES": "24",
    "QSSTRESC": "24",
    "QSSTRESN": 24
  },
  {
    "STUDYID": "CDISCPILOT01",
    "DOMAIN": "QS",
    "USUBJID": "01-704-013",
    "QSSEQ": 2,
    "QSTESTCD": "ACTOT",
    "QSTEST": "ADAS-Cog (11) Total Score",
    "QSCAT": "ADAS-COG",
    "VISITNUM": 3,
    "VISIT": "WEEK 4",
    "QSDTC": "2013-06-03",
    "QSBLFL": "",
    "QSORRES": "26",
    "QSSTRESC": "26",
    "QSSTRESN": 26
  },
  {
    "STUDYID": "CDISCPILOT01",
    "DOMAIN": "QS",
    "USUBJID": "01-704-013",
    "QSSEQ": 3,
    "QSTESTCD": "ACTOT",
    "QSTEST": "ADAS-Cog (11) Total Score",
    "QSCAT": "ADAS-COG",
    "VISITNUM": 4,
    "VISIT": "WEEK 8",
    "QSDTC": "2013-07-01",
    "QSBLFL": "",
    "QSORRES": "30",
    "QSSTRESC": "30",
    "QSSTRESN": 30
  },
  {
    "STUDYID": "CDISCPILOT01",
    "DOMAIN": "QS",
    "USUBJID": "01-704-013",
    "QSSEQ": 4,
    "QSTESTCD": "ACTOT",
    "QSTEST": "ADAS-Cog (11) Total Score",
    "QSCAT": "ADAS-COG",
    "VISITNUM": 5,
    "VISIT": "WEEK 12",
    "QSDTC": "2013-07-29",
    "QSBLFL": "",
    "QSORRES": "27",
    "QSSTRESC": "27",
    "QSSTRESN": 27
  },
  {
    "STUDYID": "CDISCPILOT01",
    "DOMAIN": "QS",
    "USUBJID": "01-704-013",
    "QSSEQ": 5,
    "QSTESTCD": "ACTOT",
    "QSTEST": "ADAS-Cog (11) Total Score",
    "QSCAT": "ADAS-COG",
    "VISITNUM": 7,
    "VISIT": "WEEK 24",
    "QSDTC": "2013-10-21",
    "QSBLFL": "",
    "QSORRES": "35",
    "QSSTRESC": "35",
    "QSSTRESN": 35
  },
  {
    "STUDYID": "CDISCPILOT01",
    "DOMAIN": "QS",
    "USUBJID": "01-704-013",
    "QSSEQ": 6,
    "QSTESTCD": "CIBIC",
    "QSTEST": "CIBIC+ Global Assessment",
    "QSCAT": "CIBIC+",
    "VISITNUM": 7,
    "VISIT": "WEEK 24",
    "QSDTC": "2013-10-21",
    "QSBLFL": "",
    "QSORRES": "NO CHANGE",
    "QSSTRESC": "4",
    "QSSTRESN": 4
  },
  {
    "STUDYID": "CDISCPILOT01",
    "DOMAIN": "QS",
    "USUBJID": "01-704-014",
    "QSSEQ": 1,
    "QSTESTCD": "ACTOT",
    "QSTEST": "ADAS-Cog (11) Total Score",
    "QSCAT": "ADAS-COG",
    "VISITNUM": 1,
    "VISIT": "BASELINE",
    "QSDTC": "2013-09-04",
    "QSBLFL": "Y",
    "QSORRES": "27",
    "QSSTRESC": "27",
    "QSSTRESN": 27
  },
  {
    "STUDYID": "CDISCPILOT01",
    "DOMAIN": "QS",
    "USUBJID": "01-704-014",
    "QSSEQ": 2,
    "QSTESTCD": "ACTOT",
    "QSTEST": "ADAS-Cog (11) Total Score",
    "QSCAT": "ADAS-COG",
    "VISITNUM": 3,
    "VISIT": "WEEK 4",
    "QSDTC": "2013-10-02",
    "QSBLFL": "",
    "QSORRES": "30",
    "QSSTRESC": "30",
    "QSSTRESN": 30
  },
  {
    "STUDYID": "CDISCPILOT01",
    "DOMAIN": "QS",
    "USUBJID": "01-704-014",
    "QSSEQ": 3,
    "QSTESTCD": "ACTOT",
    "QSTEST": "ADAS-Cog (11) Total Score",
    "QSCAT": "ADAS-COG",
    "VISITNUM": 4,
    "VISIT": "WEEK 8",
    "QSDTC": "2013-10-30",
    "QSBLFL": "",
    "QSORRES": "30",
    "QSSTRESC": "30",
    "QSSTRESN": 30
  },
  {
    "STUDYID": "CDISCPILOT01",
    "DOMAIN": "QS",
    "USUBJID": "01-704-014",
    "QSSEQ": 4,
    "QSTESTCD": "ACTOT",
    "QSTEST": "ADAS-Cog (11) Total Score",
    "QSCAT": "ADAS-COG",
    "VISITNUM": 5,
    "VISIT": "WEEK 12",
    "QSDTC": "2013-11-27",
    "QSBLFL": "",
    "QSORRES": "26",
    "QSSTRESC": "26",
    "QSSTRESN": 26
  },
  {
    "STUDYID": "CDISCPILOT01",
    "DOMAIN": "QS",
    "USUBJID": "01-704-014",
    "QSSEQ": 5,
    "QSTESTCD": "CIBIC",
    "QSTEST": "CIBIC+ Global Assessment",
    "QSCAT": "CIBIC+",
    "VISITNUM": 7,
    "VISIT": "WEEK 24",
    "QSDTC": "2014-02-19",
    "QSBLFL": "",
    "QSORRES": "NO CHANGE",
    "QSSTRESC": "4",
    "QSSTRESN": 4
  },
  {
    "STUDYID": "CDISCPILOT01",
    "DOMAIN": "QS",
    "USUBJID": "01-704-015",
    "QSSEQ": 1,
    "QSTESTCD": "ACTOT",
    "QSTEST": "ADAS-Cog (11) Total Score",
    "QSCAT": "ADAS-COG",
    "VISITNUM": 1,
    "VISIT": "BASELINE",
    "QSDTC": "2013-05-08",
    "QSBLFL": "Y",
    "QSORRES": "8",
    "QSSTRESC": "8",
    "QSSTRESN": 8
  },
  {
    "STUDYID": "CDISCPILOT01",
    "DOMAIN": "QS",
    "USUBJID": "01-704-015",
    "QSSEQ": 2,
    "QSTESTCD": "ACTOT",
    "QSTEST": "ADAS-Cog (11) Total Score",
    "QSCAT": "ADAS-COG",
    "VISITNUM": 3,
    "VISIT": "WEEK 4",
    "QSDTC": "2013-06-05",
    "QSBLFL": "",
    "QSORRES": "8",
    "QSSTRESC": "8",
    "QSSTRESN": 8
  },
  {
    "STUDYID": "CDISCPILOT01",
    "DOMAIN": "QS",
    "USUBJID": "01-704-015",
    "QSSEQ": 3,
    "QSTESTCD": "ACTOT",
    "QSTEST": "ADAS-Cog (11) Total Score",
    "QSCAT": "ADAS-COG",
    "VISITNUM": 4,
    "VISIT": "WEEK 8",
    "QSDTC": "2013-07-03",
    "QSBLFL": "",
    "QSORRES": "8",
    "QSSTRESC": "8",
    "QSSTRESN": 8
  },
  {
    "STUDYID": "CDISCPILOT01",
    "DOMAIN": "QS",
    "USUBJID": "01-704-015",
    "QSSEQ": 4,
    "QSTESTCD": "ACTOT",
    "QSTEST": "ADAS-Cog (11) Total Score",
    "QSCAT": "ADAS-COG",
    "VISITNUM": 5,
    "VISIT": "WEEK 12",
    "QSDTC": "2013-07-31",
    "QSBLFL": "",
    "QSORRES": "13",
    "QSSTRESC": "13",
    "QSSTRESN": 13
  },
  {
    "STUDYID": "CDISCPILOT01",
    "DOMAIN": "QS",
    "USUBJID": "01-704-015",
    "QSSEQ": 5,
    "QSTESTCD": "CIBIC",
    "QSTEST": "CIBIC+ Global Assessment",
    "QSCAT": "CIBIC+",
    "VISITNUM": 7,
    "VISIT": "WEEK 24",
    "QSDTC": "2013-10-23",
    "QSBLFL": "",
    "QSORRES": "NO CHANGE",
    "QSSTRESC": "4",
    "QSSTRESN": 4
  },
  {
    "STUDYID": "CDISCPILOT01",
    "DOMAIN": "QS",
    "USUBJID": "01-704-016",
    "QSSEQ": 1,
    "QSTESTCD": "ACTOT",
    "QSTEST": "ADAS-Cog (11) Total Score",
    "QSCAT": "ADAS-COG",
    "VISITNUM": 1,
    "VISIT": "BASELINE",
    "QSDTC": "2013-09-02",
    "QSBLFL": "Y",
    "QSORRES": "3",
    "QSSTRESC": "3",
    "QSSTRESN": 3
  },
  {
    "STUDYID": "CDISCPILOT01",
    "DOMAIN": "QS",
    "USUBJID": "01-704-016",
    "QSSEQ": 2,
    "QSTESTCD": "ACTOT",
    "QSTEST": "ADAS-Cog (11) Total Score",
    "QSCAT": "ADAS-COG",
    "VISITNUM": 3,
    "VISIT": "WEEK 4",
    "QSDTC": "2013-09-30",
    "QSBLFL": "",
    "QSORRES": "3",
    "QSSTRESC": "3",
    "QSSTRESN": 3
  },
  {
    "STUDYID": "CDISCPILOT01",
    "DOMAIN": "QS",
    "USUBJID": "01-704-016",
    "QSSEQ": 3,
    "QSTESTCD": "ACTOT",
    "QSTEST": "ADAS-Cog (11) Total Score",
    "QSCAT": "ADAS-COG",
    "VISITNUM": 4,
    "VISIT": "WEEK 8",
    "QSDTC": "2013-10-28",
    "QSBLFL": "",
    "QSORRES": "9",
    "QSSTRESC": "9",
    "QSSTRESN": 9
  },
  {
    "STUDYID": "CDISCPILOT01",
    "DOMAIN": "QS",
    "USUBJID": "01-704-016",
    "QSSEQ": 4,
    "QSTESTCD": "ACTOT",
    "QSTEST": "ADAS-Cog (11) Total Score",
    "QSCAT": "ADAS-COG",
    "VISITNUM": 5,
    "VISIT": "WEEK 12",
    "QSDTC": "2013-11-25",
    "QSBLFL": "",
    "QSORRES": "3",
    "QSSTRESC": "3",
    "QSSTRESN": 3
  },
  {
    "STUDYID": "CDISCPILOT01",
    "DOMAIN": "QS",
    "USUBJID": "01-704-016",
    "QSSEQ": 5,
    "QSTESTCD": "ACTOT",
    "QSTEST": "ADAS-Cog (11) Total Score",
    "QSCAT": "ADAS-COG",
    "VISITNUM": 7,
    "VISIT": "WEEK 24",
    "QSDTC": "2014-02-17",
    "QSBLFL": "",
    "QSORRES": "17",
    "QSSTRESC": "17",
    "QSSTRESN": 17
  },
  {
    "STUDYID": "CDISCPILOT01",
    "DOMAIN": "QS",
    "USUBJID": "01-704-016",
    "QSSEQ": 6,
    "QSTESTCD": "CIBIC",
    "QSTEST": "CIBIC+ Global Assessment",
    "QSCAT": "CIBIC+",
    "VISITNUM": 7,
    "VISIT": "WEEK 24",
    "QSDTC": "2014-02-17",
    "QSBLFL": "",
    "QSORRES": "MINIMAL IMPROVEMENT",
    "QSSTRESC": "3",
    "QSSTRESN": 3
  },
  {
    "STUDYID": "CDISCPILOT01",
    "DOMAIN": "QS",
    "USUBJID": "01-704-017",
    "QSSEQ": 1,
    "QSTESTCD": "ACTOT",
    "QSTEST": "ADAS-Cog (11) Total Score",
    "QSCAT": "ADAS-COG",
    "VISITNUM": 1,
    "VISIT": "BASELINE",
    "QSDTC": "2013-01-11",
    "QSBLFL": "Y",
    "QSORRES": "19",
    "QSSTRESC": "19",
    "QSSTRESN": 19
  },
  {
    "STUDYID": "CDISCPILOT01",
    "DOMAIN": "QS",
    "USUBJID": "01-704-017",
    "QSSEQ": 2,
    "QSTESTCD": "ACTOT",
    "QSTEST": "ADAS-Cog (11) Total Score",
    "QSCAT": "ADAS-COG",
    "VISITNUM": 3,
    "VISIT": "WEEK 4",
    "QSDTC": "2013-02-08",
    "QSBLFL": "",
    "QSORRES": "19",
    "QSSTRESC": "19",
    "QSSTRESN": 19
  },
  {
    "STUDYID": "CDISCPILOT01",
    "DOMAIN": "QS",
    "USUBJID": "01-704-017",
    "QSSEQ": 3,
    "QSTESTCD": "ACTOT",
    "QSTEST": "ADAS-Cog (11) Total Score",
    "QSCAT": "ADAS-COG",
    "VISITNUM": 4,
    "VISIT": "WEEK 8",
    "QSDTC": "2013-03-08",
    "QSBLFL": "",
    "QSORRES": "23",
    "QSSTRESC": "23",
    "QSSTRESN": 23
  },
  {
    "STUDYID": "CDISCPILOT01",
    "DOMAIN": "QS",
    "USUBJID": "01-704-017",
    "QSSEQ": 4,
    "QSTESTCD": "ACTOT",
    "QSTEST": "ADAS-Cog (11) Total Score",
    "QSCAT": "ADAS-COG",
    "VISITNUM": 5,
    "VISIT": "WEEK 12",
    "QSDTC": "2013-04-05",
    "QSBLFL": "",
    "QSORRES": "24",
    "QSSTRESC": "24",
    "QSSTRESN": 24
  },
  {
    "STUDYID": "CDISCPILOT01",
    "DOMAIN": "QS",
    "USUBJID": "01-704-017",
    "QSSEQ": 5,
    "QSTESTCD": "ACTOT",
    "QSTEST": "ADAS-Cog (11) Total Score",
    "QSCAT": "ADAS-COG",
    "VISITNUM": 7,
    "VISIT": "WEEK 24",
    "QSDTC": "2013-06-28",
    "QSBLFL": "",
    "QSORRES": "21",
    "QSSTRESC": "21",
    "QSSTRESN": 21
  },
  {
    "STUDYID": "CDISCPILOT01",
    "DOMAIN": "QS",
    "USUBJID": "01-704-017",
    "QSSEQ": 6,
    "QSTESTCD": "CIBIC",
    "QSTEST": "CIBIC+ Global Assessment",
    "QSCAT": "CIBIC+",
    "VISITNUM": 7,
    "VISIT": "WEEK 24",
    "QSDTC": "2013-06-28",
    "QSBLFL": "",
    "QSORRES": "NO CHANGE",
    "QSSTRESC": "4",
    "QSSTRESN": 4
  },
  {
    "STUDYID": "CDISCPILOT01",
    "DOMAIN": "QS",
    "USUBJID": "01-704-018",
    "QSSEQ": 1,
    "QSTESTCD": "ACTOT",
    "QSTEST": "ADAS-Cog (11) Total Score",
    "QSCAT": "ADAS-COG",
    "VISITNUM": 1,
    "VISIT": "BASELINE",
    "QSDTC": "2013-06-21",
    "QSBLFL": "Y",
    "QSORRES": "10",
    "QSSTRESC": "10",
    "QSSTRESN": 10
  },
  {
    "STUDYID": "CDISCPILOT01",
    "DOMAIN": "QS",
    "USUBJID": "01-704-018",
    "QSSEQ": 2,
    "QSTESTCD": "ACTOT",
    "QSTEST": "ADAS-Cog (11) Total Score",
    "QSCAT": "ADAS-COG",
    "VISITNUM": 3,
    "VISIT": "WEEK 4",
    "QSDTC": "2013-07-19",
    "QSBLFL": "",
    "QSORRES": "14",
    "QSSTRESC": "14",
    "QSSTRESN": 14
  },
  {
    "STUDYID": "CDISCPILOT01",
    "DOMAIN": "QS",
    "USUBJID": "01-704-018",
    "QSSEQ": 3,
    "QSTESTCD": "ACTOT",
    "QSTEST": "ADAS-Cog (11) Total Score",
    "QSCAT": "ADAS-COG",
    "VISITNUM": 4,
    "VISIT": "WEEK 8",
    "QSDTC": "2013-08-16",
    "QSBLFL": "",
    "QSORRES": "12",
    "QSSTRESC": "12",
    "QSSTRESN": 12
  },
  {
    "STUDYID": "CDISCPILOT01",
    "DOMAIN": "QS",
    "USUBJID": "01-704-018",
    "QSSEQ": 4,
    "QSTESTCD": "ACTOT",
    "QSTEST": "ADAS-Cog (11) Total Score",
    "QSCAT": "ADAS-COG",
    "VISITNUM": 5,
    "VISIT": "WEEK 12",
    "QSDTC": "2013-09-13",
    "QSBLFL": "",
    "QSORRES": "16",
    "QSSTRESC": "16",
    "QSSTRESN": 16
  },
  {
    "STUDYID": "CDISCPILOT01",
    "DOMAIN": "QS",
    "USUBJID": "01-704-018",
    "QSSEQ": 5,
    "QSTESTCD": "CIBIC",
    "QSTEST": "CIBIC+ Global Assessment",
    "QSCAT": "CIBIC+",
    "VISITNUM": 7,
    "VISIT": "WEEK 24",
    "QSDTC": "2013-12-06",
    "QSBLFL": "",
    "QSORRES": "NO CHANGE",
    "QSSTRESC": "4",
    "QSSTRESN": 4
  },
  {
    "STUDYID": "CDISCPILOT01",
    "DOMAIN": "QS",
    "USUBJID": "01-704-019",
    "QSSEQ": 1,
    "QSTESTCD": "ACTOT",
    "QSTEST": "ADAS-Cog (11) Total Score",
    "QSCAT": "ADAS-COG",
    "VISITNUM": 1,
    "VISIT": "BASELINE",
    "QSDTC": "2013-08-07",
    "QSBLFL": "Y",
    "QSORRES": "11",
    "QSSTRESC": "11",
    "QSSTRESN": 11
  },
  {
    "STUDYID": "CDISCPILOT01",
    "DOMAIN": "QS",
    "USUBJID": "01-704-019",
    "QSSEQ": 2,
    "QSTESTCD": "ACTOT",
    "QSTEST": "ADAS-Cog (11) Total Score",
    "QSCAT": "ADAS-COG",
    "VISITNUM": 3,
    "VISIT": "WEEK 4",
    "QSDTC": "2013-09-04",
    "QSBLFL": "",
    "QSORRES": "12",
    "QSSTRESC": "12",
    "QSSTRESN": 12
  },
  {
    "STUDYID": "CDISCPILOT01",
    "DOMAIN": "QS",
    "USUBJID": "01-704-019",
    "QSSEQ": 3,
    "QSTESTCD": "ACTOT",
    "QSTEST": "ADAS-Cog (11) Total Score",
    "QSCAT": "ADAS-COG",
    "VISITNUM": 4,
    "VISIT": "WEEK 8",
    "QSDTC": "2013-10-02",
    "QSBLFL": "",
    "QSORRES": "9",
    "QSSTRESC": "9",
    "QSSTRESN": 9
  },
  {
    "STUDYID": "CDISCPILOT01",
    "DOMAIN": "QS",
    "USUBJID": "01-704-019",
    "QSSEQ": 4,
    "QSTESTCD": "ACTOT",
    "QSTEST": "ADAS-Cog (11) Total Score",
    "QSCAT": "ADAS-COG",
    "VISITNUM": 5,
    "VISIT": "WEEK 12",
    "QSDTC": "2013-10-30",
    "QSBLFL": "",
    "QSORRES": "8",
    "QSSTRESC": "8",
    "QSSTRESN": 8
  },
  {
    "STUDYID": "CDISCPILOT01",
    "DOMAIN": "QS",
    "USUBJID": "01-704-019",
    "QSSEQ": 5,
    "QSTESTCD": "ACTOT",
    "QSTEST": "ADAS-Cog (11) Total Score",
    "QSCAT": "ADAS-COG",
    "VISITNUM": 7,
    "VISIT": "WEEK 24",
    "QSDTC": "2014-01-22",
    "QSBLFL": "",
    "QSORRES": "26",
    "QSSTRESC": "26",
    "QSSTRESN": 26
  },
  {
    "STUDYID": "CDISCPILOT01",
    "DOMAIN": "QS",
    "USUBJID": "01-704-019",
    "QSSEQ": 6,
    "QSTESTCD": "CIBIC",
    "QSTEST": "CIBIC+ Global Assessment",
    "QSCAT": "CIBIC+",
    "VISITNUM": 7,
    "VISIT": "WEEK 24",
    "QSDTC": "2014-01-22",
    "QSBLFL": "",
    "QSORRES": "NO CHANGE",
    "QSSTRESC": "4",
    "QSSTRESN": 4
  },
  {
    "STUDYID": "CDISCPILOT01",
    "DOMAIN": "QS",
    "USUBJID": "01-704-020",
    "QSSEQ": 1,
    "QSTESTCD": "ACTOT",
    "QSTEST": "ADAS-Cog (11) Total Score",
    "QSCAT": "ADAS-COG",
    "VISITNUM": 1,
    "VISIT": "BASELINE",
    "QSDTC": "2013-02-28",
    "QSBLFL": "Y",
    "QSORRES": "29",
    "QSSTRESC": "29",
    "QSSTRESN": 29
  },
  {
    "STUDYID": "CDISCPILOT01",
    "DOMAIN": "QS",
    "USUBJID": "01-704-020",
    "QSSEQ": 2,
    "QSTESTCD": "CIBIC",
    "QSTEST": "CIBIC+ Global Assessment",
    "QSCAT": "CIBIC+",
    "VISITNUM": 7,
    "VISIT": "WEEK 24",
    "QSDTC": "2013-08-15",
    "QSBLFL": "",
    "QSORRES": "MODERATE WORSENING",
    "QSSTRESC": "6",
    "QSSTRESN": 6
  },
  {
    "STUDYID": "CDISCPILOT01",
    "DOMAIN": "QS",
    "USUBJID": "01-704-021",
    "QSSEQ": 1,
    "QSTESTCD": "ACTOT",
    "QSTEST": "ADAS-Cog (11) Total Score",
    "QSCAT": "ADAS-COG",
    "VISITNUM": 1,
    "VISIT": "BASELINE",
    "QSDTC": "2013-05-30",
    "QSBLFL": "Y",
    "QSORRES": "23",
    "QSSTRESC": "23",
    "QSSTRESN": 23
  },
  {
    "STUDYID": "CDISCPILOT01",
    "DOMAIN": "QS",
    "USUBJID": "01-704-021",
    "QSSEQ": 2,
    "QSTESTCD": "ACTOT",
    "QSTEST": "ADAS-Cog (11) Total Score",
    "QSCAT": "ADAS-COG",
    "VISITNUM": 3,
    "VISIT": "WEEK 4",
    "QSDTC": "2013-06-27",
    "QSBLFL": "",
    "QSORRES": "26",
    "QSSTRESC": "26",
    "QSSTRESN": 26
  },
  {
    "STUDYID": "CDISCPILOT01",
    "DOMAIN": "QS",
    "USUBJID": "01-704-021",
    "QSSEQ": 3,
    "QSTESTCD": "ACTOT",
    "QSTEST": "ADAS-Cog (11) Total Score",
    "QSCAT": "ADAS-COG",
    "VISITNUM": 4,
    "VISIT": "WEEK 8",
    "QSDTC": "2013-07-25",
    "QSBLFL": "",
    "QSORRES": "22",
    "QSSTRESC": "22",
    "QSSTRESN": 22
  },
  {
    "STUDYID": "CDISCPILOT01",
    "DOMAIN": "QS",
    "USUBJID": "01-704-021",
    "QSSEQ": 4,
    "QSTESTCD": "ACTOT",
    "QSTEST": "ADAS-Cog (11) Total Score",
    "QSCAT": "ADAS-COG",
    "VISITNUM": 5,
    "VISIT": "WEEK 12",
    "QSDTC": "2013-08-22",
    "QSBLFL": "",
    "QSORRES": "20",
    "QSSTRESC": "20",
    "QSSTRESN": 20
  },
  {
    "STUDYID": "CDISCPILOT01",
    "DOMAIN": "QS",
    "USUBJID": "01-704-021",
    "QSSEQ": 5,
    "QSTESTCD": "ACTOT",
    "QSTEST": "ADAS-Cog (11) Total Score",
    "QSCAT": "ADAS-COG",
    "VISITNUM": 7,
    "VISIT": "WEEK 24",
    "QSDTC": "2013-11-14",
    "QSBLFL": "",
    "QSORRES": "15",
    "QSSTRESC": "15",
    "QSSTRESN": 15
  },
  {
    "STUDYID": "CDISCPILOT01",
    "DOMAIN": "QS",
    "USUBJID": "01-704-021",
    "QSSEQ": 6,
    "QSTESTCD": "CIBIC",
    "QSTEST": "CIBIC+ Global Assessment",
    "QSCAT": "CIBIC+",
    "VISITNUM": 7,
    "VISIT": "WEEK 24",
    "QSDTC": "2013-11-14",
    "QSBLFL": "",
    "QSORRES": "NO CHANGE",
    "QSSTRESC": "4",
    "QSSTRESN": 4
  },
  {
    "STUDYID": "CDISCPILOT01",
    "DOMAIN": "QS",
    "USUBJID": "01-704-022",
    "QSSEQ": 1,
    "QSTESTCD": "ACTOT",
    "QSTEST": "ADAS-Cog (11) Total Score",
    "QSCAT": "ADAS-COG",
    "VISITNUM": 1,
    "VISIT": "BASELINE",
    "QSDTC": "2013-01-29",
    "QSBLFL": "Y",
    "QSORRES": "36",
    "QSSTRESC": "36",
    "QSSTRESN": 36
  },
  {
    "STUDYID": "CDISCPILOT01",
    "DOMAIN": "QS",
    "USUBJID": "01-704-022",
    "QSSEQ": 2,
    "QSTESTCD": "ACTOT",
    "QSTEST": "ADAS-Cog (11) Total Score",
    "QSCAT": "ADAS-COG",
    "VISITNUM": 3,
    "VISIT": "WEEK 4",
    "QSDTC": "2013-02-26",
    "QSBLFL": "",
    "QSORRES": "36",
    "QSSTRESC": "36",
    "QSSTRESN": 36
  },
  {
    "STUDYID": "CDISCPILOT01",
    "DOMAIN": "QS",
    "USUBJID": "01-704-022",
    "QSSEQ": 3,
    "QSTESTCD": "ACTOT",
    "QSTEST": "ADAS-Cog (11) Total Score",
    "QSCAT": "ADAS-COG",
    "VISITNUM": 4,
    "VISIT": "WEEK 8",
    "QSDTC": "2013-03-26",
    "QSBLFL": "",
    "QSORRES": "39",
    "QSSTRESC": "39",
    "QSSTRESN": 39
  },
  {
    "STUDYID": "CDISCPILOT01",
    "DOMAIN": "QS",
    "USUBJID": "01-704-022",
    "QSSEQ": 4,
    "QSTESTCD": "CIBIC",
    "QSTEST": "CIBIC+ Global Assessment",
    "QSCAT": "CIBIC+",
    "VISITNUM": 7,
    "VISIT": "WEEK 24",
    "QSDTC": "2013-07-16",
    "QSBLFL": "",
    "QSORRES": "NO CHANGE",
    "QSSTRESC": "4",
    "QSSTRESN": 4
  },
  {
    "STUDYID": "CDISCPILOT01",
    "DOMAIN": "QS",
    "USUBJID": "01-704-023",
    "QSSEQ": 1,
    "QSTESTCD": "ACTOT",
    "QSTEST": "ADAS-Cog (11) Total Score",
    "QSCAT": "ADAS-COG",
    "VISITNUM": 1,
    "VISIT": "BASELINE",
    "QSDTC": "2013-09-06",
    "QSBLFL": "Y",
    "QSORRES": "20",
    "QSSTRESC": "20",
    "QSSTRESN": 20
  },
  {
    "STUDYID": "CDISCPILOT01",
    "DOMAIN": "QS",
    "USUBJID": "01-704-023",
    "QSSEQ": 2,
    "QSTESTCD": "ACTOT",
    "QSTEST": "ADAS-Cog (11) Total Score",
    "QSCAT": "ADAS-COG",
    "VISITNUM": 3,
    "VISIT": "WEEK 4",
    "QSDTC": "2013-10-04",
    "QSBLFL": "",
    "QSORRES": "23",
    "QSSTRESC": "23",
    "QSSTRESN": 23
  },
  {
    "STUDYID": "CDISCPILOT01",
    "DOMAIN": "QS",
    "USUBJID": "01-704-023",
    "QSSEQ": 3,
    "QSTESTCD": "ACTOT",
    "QSTEST": "ADAS-Cog (11) Total Score",
    "QSCAT": "ADAS-COG",
    "VISITNUM": 4,
    "VISIT": "WEEK 8",
    "QSDTC": "2013-11-01",
    "QSBLFL": "",
    "QSORRES": "21",
    "QSSTRESC": "21",
    "QSSTRESN": 21
  },
  {
    "STUDYID": "CDISCPILOT01",
    "DOMAIN": "QS",
    "USUBJID": "01-704-023",
    "QSSEQ": 4,
    "QSTESTCD": "ACTOT",
    "QSTEST": "ADAS-Cog (11) Total Score",
    "QSCAT": "ADAS-COG",
    "VISITNUM": 5,
    "VISIT": "WEEK 12",
    "QSDTC": "2013-11-29",
    "QSBLFL": "",
    "QSORRES": "19",
    "QSSTRESC": "19",
    "QSSTRESN": 19
  },
  {
    "STUDYID": "CDISCPILOT01",
    "DOMAIN": "QS",
    "USUBJID": "01-704-023",
    "QSSEQ": 5,
    "QSTESTCD": "CIBIC",
    "QSTEST": "CIBIC+ Global Assessment",
    "QSCAT": "CIBIC+",
    "VISITNUM": 7,
    "VISIT": "WEEK 24",
    "QSDTC": "2014-02-21",
    "QSBLFL": "",
    "QSORRES": "MINIMAL WORSENING",
    "QSSTRESC": "5",
    "QSSTRESN": 5
  },
  {
    "STUDYID": "CDISCPILOT01",
    "DOMAIN": "QS",
    "USUBJID": "01-704-024",
    "QSSEQ": 1,
    "QSTESTCD": "ACTOT",
    "QSTEST": "ADAS-Cog (11) Total Score",
    "QSCAT": "ADAS-COG",
    "VISITNUM": 1,
    "VISIT": "BASELINE",
    "QSDTC": "2013-08-18",
    "QSBLFL": "Y",
    "QSORRES": "23",
    "QSSTRESC": "23",
    "QSSTRESN": 23
  },
  {
    "STUDYID": "CDISCPILOT01",
    "DOMAIN": "QS",
    "USUBJID": "01-704-024",
    "QSSEQ": 2,
    "QSTESTCD": "ACTOT",
    "QSTEST": "ADAS-Cog (11) Total Score",
    "QSCAT": "ADAS-COG",
    "VISITNUM": 3,
    "VISIT": "WEEK 4",
    "QSDTC": "2013-09-15",
    "QSBLFL": "",
    "QSORRES": "23",
    "QSSTRESC": "23",
    "QSSTRESN": 23
  },
  {
    "STUDYID": "CDISCPILOT01",
    "DOMAIN": "QS",
    "USUBJID": "01-704-024",
    "QSSEQ": 3,
    "QSTESTCD": "ACTOT",
    "QSTEST": "ADAS-Cog (11) Total Score",
    "QSCAT": "ADAS-COG",
    "VISITNUM": 4,
    "VISIT": "WEEK 8",
    "QSDTC": "2013-10-13",
    "QSBLFL": "",
    "QSORRES": "19",
    "QSSTRESC": "19",
    "QSSTRESN": 19
  },
  {
    "STUDYID": "CDISCPILOT01",
    "DOMAIN": "QS",
    "USUBJID": "01-704-024",
    "QSSEQ": 4,
    "QSTESTCD": "ACTOT",
    "QSTEST": "ADAS-Cog (11) Total Score",
    "QSCAT": "ADAS-COG",
    "VISITNUM": 5,
    "VISIT": "WEEK 12",
    "QSDTC": "2013-11-10",
    "QSBLFL": "",
    "QSORRES": "24",
    "QSSTRESC": "24",
    "QSSTRESN": 24
  },
  {
    "STUDYID": "CDISCPILOT01",
    "DOMAIN": "QS",
    "USUBJID": "01-704-024",
    "QSSEQ": 5,
    "QSTESTCD": "ACTOT",
    "QSTEST": "ADAS-Cog (11) Total Score",
    "QSCAT": "ADAS-COG",
    "VISITNUM": 7,
    "VISIT": "WEEK 24",
    "QSDTC": "2014-02-02",
    "QSBLFL": "",
    "QSORRES": "28",
    "QSSTRESC": "28",
    "QSSTRESN": 28
  },
  {
    "STUDYID": "CDISCPILOT01",
    "DOMAIN": "QS",
    "USUBJID": "01-704-024",
    "QSSEQ": 6,
    "QSTESTCD": "CIBIC",
    "QSTEST": "CIBIC+ Global Assessment",
    "QSCAT": "CIBIC+",
    "VISITNUM": 7,
    "VISIT": "WEEK 24",
    "QSDTC": "2014-02-02",
    "QSBLFL": "",
    "QSORRES": "NO CHANGE",
    "QSSTRESC": "4",
    "QSSTRESN": 4
  },
  {
    "STUDYID": "CDISCPILOT01",
    "DOMAIN": "QS",
    "USUBJID": "01-704-025",
    "QSSEQ": 1,
    "QSTESTCD": "ACTOT",
    "QSTEST": "ADAS-Cog (11) Total Score",
    "QSCAT": "ADAS-COG",
    "VISITNUM": 1,
    "VISIT": "BASELINE",
    "QSDTC": "2013-04-05",
    "QSBLFL": "Y",
    "QSORRES": "40",
    "QSSTRESC": "40",
    "QSSTRESN": 40
  },
  {
    "STUDYID": "CDISCPILOT01",
    "DOMAIN": "QS",
    "USUBJID": "01-704-025",
    "QSSEQ": 2,
    "QSTESTCD": "ACTOT",
    "QSTEST": "ADAS-Cog (11) Total Score",
    "QSCAT": "ADAS-COG",
    "VISITNUM": 3,
    "VISIT": "WEEK 4",
    "QSDTC": "2013-05-03",
    "QSBLFL": "",
    "QSORRES": "44",
    "QSSTRESC": "44",
    "QSSTRESN": 44
  },
  {
    "STUDYID": "CDISCPILOT01",
    "DOMAIN": "QS",
    "USUBJID": "01-704-025",
    "QSSEQ": 3,
    "QSTESTCD": "ACTOT",
    "QSTEST": "ADAS-Cog (11) Total Score",
    "QSCAT": "ADAS-COG",
    "VISITNUM": 4,
    "VISIT": "WEEK 8",
    "QSDTC": "2013-05-31",
    "QSBLFL": "",
    "QSORRES": "36",
    "QSSTRESC": "36",
    "QSSTRESN": 36
  },
  {
    "STUDYID": "CDISCPILOT01",
    "DOMAIN": "QS",
    "USUBJID": "01-704-025",
    "QSSEQ": 4,
    "QSTESTCD": "ACTOT",
    "QSTEST": "ADAS-Cog (11) Total Score",
    "QSCAT": "ADAS-COG",
    "VISITNUM": 5,
    "VISIT": "WEEK 12",
    "QSDTC": "2013-06-28",
    "QSBLFL": "",
    "QSORRES": "40",
    "QSSTRESC": "40",
    "QSSTRESN": 40
  },
  {
    "STUDYID": "CDISCPILOT01",
    "DOMAIN": "QS",
    "USUBJID": "01-704-025",
    "QSSEQ": 5,
    "QSTESTCD": "ACTOT",
    "QSTEST": "ADAS-Cog (11) Total Score",
    "QSCAT": "ADAS-COG",
    "VISITNUM": 7,
    "VISIT": "WEEK 24",
    "QSDTC": "2013-09-20",
    "QSBLFL": "",
    "QSORRES": "38",
    "QSSTRESC": "38",
    "QSSTRESN": 38
  },
  {
    "STUDYID": "CDISCPILOT01",
    "DOMAIN": "QS",
    "USUBJID": "01-704-025",
    "QSSEQ": 6,
    "QSTESTCD": "CIBIC",
    "QSTEST": "CIBIC+ Global Assessment",
    "QSCAT": "CIBIC+",
    "VISITNUM": 7,
    "VISIT": "WEEK 24",
    "QSDTC": "2013-09-20",
    "QSBLFL": "",
    "QSORRES": "MINIMAL IMPROVEMENT",
    "QSSTRESC": "3",
    "QSSTRESN": 3
  },
  {
    "STUDYID": "CDISCPILOT01",
    "DOMAIN": "QS",
    "USUBJID": "01-705-001",
    "QSSEQ": 1,
    "QSTESTCD": "ACTOT",
    "QSTEST": "ADAS-Cog (11) Total Score",
    "QSCAT": "ADAS-COG",
    "VISITNUM": 1,
    "VISIT": "BASELINE",
    "QSDTC": "2013-08-02",
    "QSBLFL": "Y",
    "QSORRES": "14",
    "QSSTRESC": "14",
    "QSSTRESN": 14
  },
  {
    "STUDYID": "CDISCPILOT01",
    "DOMAIN": "QS",
    "USUBJID": "01-705-001",
    "QSSEQ": 2,
    "QSTESTCD": "ACTOT",
    "QSTEST": "ADAS-Cog (11) Total Score",
    "QSCAT": "ADAS-COG",
    "VISITNUM": 3,
    "VISIT": "WEEK 4",
    "QSDTC": "2013-08-30",
    "QSBLFL": "",
    "QSORRES": "14",
    "QSSTRESC": "14",
    "QSSTRESN": 14
  },
  {
    "STUDYID": "CDISCPILOT01",
    "DOMAIN": "QS",
    "USUBJID": "01-705-001",
    "QSSEQ": 3,
    "QSTESTCD": "ACTOT",
    "QSTEST": "ADAS-Cog (11) Total Score",
    "QSCAT": "ADAS-COG",
    "VISITNUM": 4,
    "VISIT": "WEEK 8",
    "QSDTC": "2013-09-27",
    "QSBLFL": "",
    "QSORRES": "15",
    "QSSTRESC": "15",
    "QSSTRESN": 15
  },
  {
    "STUDYID": "CDISCPILOT01",
    "DOMAIN": "QS",
    "USUBJID": "01-705-001",
    "QSSEQ": 4,
    "QSTESTCD": "ACTOT",
    "QSTEST": "ADAS-Cog (11) Total Score",
    "QSCAT": "ADAS-COG",
    "VISITNUM": 5,
    "VISIT": "WEEK 12",
    "QSDTC": "2013-10-25",
    "QSBLFL": "",
    "QSORRES": "12",
    "QSSTRESC": "12",
    "QSSTRESN": 12
  },
  {
    "STUDYID": "CDISCPILOT01",
    "DOMAIN": "QS",
    "USUBJID": "01-705-001",
    "QSSEQ": 5,
    "QSTESTCD": "CIBIC",
    "QSTEST": "CIBIC+ Global Assessment",
    "QSCAT": "CIBIC+",
    "VISITNUM": 7,
    "VISIT": "WEEK 24",
    "QSDTC": "2014-01-17",
    "QSBLFL": "",
    "QSORRES": "NO CHANGE",
    "QSSTRESC": "4",
    "QSSTRESN": 4
  },
  {
    "STUDYID": "CDISCPILOT01",
    "DOMAIN": "QS",
    "USUBJID": "01-705-002",
    "QSSEQ": 1,
    "QSTESTCD": "ACTOT",
    "QSTEST": "ADAS-Cog (11) Total Score",
    "QSCAT": "ADAS-COG",
    "VISITNUM": 1,
    "VISIT": "BASELINE",
    "QSDTC": "2013-08-15",
    "QSBLFL": "Y",
    "QSORRES": "28",
    "QSSTRESC": "28",
    "QSSTRESN": 28
  },
  {
    "STUDYID": "CDISCPILOT01",
    "DOMAIN": "QS",
    "USUBJID": "01-705-002",
    "QSSEQ": 2,
    "QSTESTCD": "ACTOT",
    "QSTEST": "ADAS-Cog (11) Total Score",
    "QSCAT": "ADAS-COG",
    "VISITNUM": 3,
    "VISIT": "WEEK 4",
    "QSDTC": "2013-09-12",
    "QSBLFL": "",
    "QSORRES": "25",
    "QSSTRESC": "25",
    "QSSTRESN": 25
  },
  {
    "STUDYID": "CDISCPILOT01",
    "DOMAIN": "QS",
    "USUBJID": "01-705-002",
    "QSSEQ": 3,
    "QSTESTCD": "CIBIC",
    "QSTEST": "CIBIC+ Global Assessment",
    "QSCAT": "CIBIC+",
    "VISITNUM": 7,
    "VISIT": "WEEK 24",
    "QSDTC": "2014-01-30",
    "QSBLFL": "",
    "QSORRES": "MINIMAL IMPROVEMENT",
    "QSSTRESC": "3",
    "QSSTRESN": 3
  },
  {
    "STUDYID": "CDISCPILOT01",
    "DOMAIN": "QS",
    "USUBJID": "01-705-003",
    "QSSEQ": 1,
    "QSTESTCD": "ACTOT",
    "QSTEST": "ADAS-Cog (11) Total Score",
    "QSCAT": "ADAS-COG",
    "VISITNUM": 1,
    "VISIT": "BASELINE",
    "QSDTC": "2013-12-28",
    "QSBLFL": "Y",
    "QSORRES": "19",
    "QSSTRESC": "19",
    "QSSTRESN": 19
  },
  {
    "STUDYID": "CDISCPILOT01",
    "DOMAIN": "QS",
    "USUBJID": "01-705-003",
    "QSSEQ": 2,
    "QSTESTCD": "ACTOT",
    "QSTEST": "ADAS-Cog (11) Total Score",
    "QSCAT": "ADAS-COG",
    "VISITNUM": 3,
    "VISIT": "WEEK 4",
    "QSDTC": "2014-01-25",
    "QSBLFL": "",
    "QSORRES": "18",
    "QSSTRESC": "18",
    "QSSTRESN": 18
  },
  {
    "STUDYID": "CDISCPILOT01",
    "DOMAIN": "QS",
    "USUBJID": "01-705-003",
    "QSSEQ": 3,
    "QSTESTCD": "ACTOT",
    "QSTEST": "ADAS-Cog (11) Total Score",
    "QSCAT": "ADAS-COG",
    "VISITNUM": 4,
    "VISIT": "WEEK 8",
    "QSDTC": "2014-02-22",
    "QSBLFL": "",
    "QSORRES": "23",
    "QSSTRESC": "23",
    "QSSTRESN": 23
  },
  {
    "STUDYID": "CDISCPILOT01",
    "DOMAIN": "QS",
    "USUBJID": "01-705-003",
    "QSSEQ": 4,
    "QSTESTCD": "ACTOT",
    "QSTEST": "ADAS-Cog (11) Total Score",
    "QSCAT": "ADAS-COG",
    "VISITNUM": 5,
    "VISIT": "WEEK 12",
    "QSDTC": "2014-03-22",
    "QSBLFL": "",
    "QSORRES": "23",
    "QSSTRESC": "23",
    "QSSTRESN": 23
  },
  {
    "STUDYID": "CDISCPILOT01",
    "DOMAIN": "QS",
    "USUBJID": "01-705-003",
    "QSSEQ": 5,
    "QSTESTCD": "ACTOT",
    "QSTEST": "ADAS-Cog (11) Total Score",
    "QSCAT": "ADAS-COG",
    "VISITNUM": 7,
    "VISIT": "WEEK 24",
    "QSDTC": "2014-06-14",
    "QSBLFL": "",
    "QSORRES": "22",
    "QSSTRESC": "22",
    "QSSTRESN": 22
  },
  {
    "STUDYID": "CDISCPILOT01",
    "DOMAIN": "QS",
    "USUBJID": "01-705-003",
    "QSSEQ": 6,
    "QSTESTCD": "CIBIC",
    "QSTEST": "CIBIC+ Global Assessment",
    "QSCAT": "CIBIC+",
    "VISITNUM": 7,
    "VISIT": "WEEK 24",
    "QSDTC": "2014-06-14",
    "QSBLFL": "",
    "QSORRES": "NO CHANGE",
    "QSSTRESC": "4",
    "QSSTRESN": 4
  },
  {
    "STUDYID": "CDISCPILOT01",
    "DOMAIN": "QS",
    "USUBJID": "01-705-004",
    "QSSEQ": 1,
    "QSTESTCD": "ACTOT",
    "QSTEST": "ADAS-Cog (11) Total Score",
    "QSCAT": "ADAS-COG",
    "VISITNUM": 1,
    "VISIT": "BASELINE",
    "QSDTC": "2013-09-08",
    "QSBLFL": "Y",
    "QSORRES": "7",
    "QSSTRESC": "7",
    "QSSTRESN": 7
  },
  {
    "STUDYID": "CDISCPILOT01",
    "DOMAIN": "QS",
    "USUBJID": "01-705-004",
    "QSSEQ": 2,
    "QSTESTCD": "ACTOT",
    "QSTEST": "ADAS-Cog (11) Total Score",
    "QSCAT": "ADAS-COG",
    "VISITNUM": 3,
    "VISIT": "WEEK 4",
    "QSDTC": "2013-10-06",
    "QSBLFL": "",
    "QSORRES": "6",
    "QSSTRESC": "6",
    "QSSTRESN": 6
  },
  {
    "STUDYID": "CDISCPILOT01",
    "DOMAIN": "QS",
    "USUBJID": "01-705-004",
    "QSSEQ": 3,
    "QSTESTCD": "ACTOT",
    "QSTEST": "ADAS-Cog (11) Total Score",
    "QSCAT": "ADAS-COG",
    "VISITNUM": 4,
    "VISIT": "WEEK 8",
    "QSDTC": "2013-11-03",
    "QSBLFL": "",
    "QSORRES": "6",
    "QSSTRESC": "6",
    "QSSTRESN": 6
  },
  {
    "STUDYID": "CDISCPILOT01",
    "DOMAIN": "QS",
    "USUBJID": "01-705-004",
    "QSSEQ": 4,
    "QSTESTCD": "ACTOT",
    "QSTEST": "ADAS-Cog (11) Total Score",
    "QSCAT": "ADAS-COG",
    "VISITNUM": 5,
    "VISIT": "WEEK 12",
    "QSDTC": "2013-12-01",
    "QSBLFL": "",
    "QSORRES": "8",
    "QSSTRESC": "8",
    "QSSTRESN": 8
  },
  {
    "STUDYID": "CDISCPILOT01",
    "DOMAIN": "QS",
    "USUBJID": "01-705-004",
    "QSSEQ": 5,
    "QSTESTCD": "ACTOT",
    "QSTEST": "ADAS-Cog (11) Total Score",
    "QSCAT": "ADAS-COG",
    "VISITNUM": 7,
    "VISIT": "WEEK 24",
    "QSDTC": "2014-02-23",
    "QSBLFL": "",
    "QSORRES": "14",
    "QSSTRESC": "14",
    "QSSTRESN": 14
  },
  {
    "STUDYID": "CDISCPILOT01",
    "DOMAIN": "QS",
    "USUBJID": "01-705-004",
    "QSSEQ": 6,
    "QSTESTCD": "CIBIC",
    "QSTEST": "CIBIC+ Global Assessment",
    "QSCAT": "CIBIC+",
    "VISITNUM": 7,
    "VISIT": "WEEK 24",
    "QSDTC": "2014-02-23",
    "QSBLFL": "",
    "QSORRES": "NO CHANGE",
    "QSSTRESC": "4",
    "QSSTRESN": 4
  },
  {
    "STUDYID": "CDISCPILOT01",
    "DOMAIN": "QS",
    "USUBJID": "01-705-005",
    "QSSEQ": 1,
    "QSTESTCD": "ACTOT",
    "QSTEST": "ADAS-Cog (11) Total Score",
    "QSCAT": "ADAS-COG",
    "VISITNUM": 1,
    "VISIT": "BASELINE",
    "QSDTC": "2013-05-27",
    "QSBLFL": "Y",
    "QSORRES": "12",
    "QSSTRESC": "12",
    "QSSTRESN": 12
  },
  {
    "STUDYID": "CDISCPILOT01",
    "DOMAIN": "QS",
    "USUBJID": "01-705-005",
    "QSSEQ": 2,
    "QSTESTCD": "CIBIC",
    "QSTEST": "CIBIC+ Global Assessment",
    "QSCAT": "CIBIC+",
    "VISITNUM": 7,
    "VISIT": "WEEK 24",
    "QSDTC": "2013-11-11",
    "QSBLFL": "",
    "QSORRES": "MINIMAL IMPROVEMENT",
    "QSSTRESC": "3",
    "QSSTRESN": 3
  },
  {
    "STUDYID": "CDISCPILOT01",
    "DOMAIN": "QS",
    "USUBJID": "01-705-006",
    "QSSEQ": 1,
    "QSTESTCD": "ACTOT",
    "QSTEST": "ADAS-Cog (11) Total Score",
    "QSCAT": "ADAS-COG",
    "VISITNUM": 1,
    "VISIT": "BASELINE",
    "QSDTC": "2013-12-13",
    "QSBLFL": "Y",
    "QSORRES": "5",
    "QSSTRESC": "5",
    "QSSTRESN": 5
  },
  {
    "STUDYID": "CDISCPILOT01",
    "DOMAIN": "QS",
    "USUBJID": "01-705-006",
    "QSSEQ": 2,
    "QSTESTCD": "ACTOT",
    "QSTEST": "ADAS-Cog (11) Total Score",
    "QSCAT": "ADAS-COG",
    "VISITNUM": 3,
    "VISIT": "WEEK 4",
    "QSDTC": "2014-01-10",
    "QSBLFL": "",
    "QSORRES": "6",
    "QSSTRESC": "6",
    "QSSTRESN": 6
  },
  {
    "STUDYID": "CDISCPILOT01",
    "DOMAIN": "QS",
    "USUBJID": "01-705-006",
    "QSSEQ": 3,
    "QSTESTCD": "ACTOT",
    "QSTEST": "ADAS-Cog (11) Total Score",
    "QSCAT": "ADAS-COG",
    "VISITNUM": 4,
    "VISIT": "WEEK 8",
    "QSDTC": "2014-02-07",
    "QSBLFL": "",
    "QSORRES": "3",
    "QSSTRESC": "3",
    "QSSTRESN": 3
  },
  {
    "STUDYID": "CDISCPILOT01",
    "DOMAIN": "QS",
    "USUBJID": "01-705-006",
    "QSSEQ": 4,
    "QSTESTCD": "CIBIC",
    "QSTEST": "CIBIC+ Global Assessment",
    "QSCAT": "CIBIC+",
    "VISITNUM": 7,
    "VISIT": "WEEK 24",
    "QSDTC": "2014-05-30",
    "QSBLFL": "",
    "QSORRES": "MINIMAL WORSENING",
    "QSSTRESC": "5",
    "QSSTRESN": 5
  },
  {
    "STUDYID": "CDISCPILOT01",
    "DOMAIN": "QS",
    "USUBJID": "01-705-007",
    "QSSEQ": 1,
    "QSTESTCD": "ACTOT",
    "QSTEST": "ADAS-Cog (11) Total Score",
    "QSCAT": "ADAS-COG",
    "VISITNUM": 1,
    "VISIT": "BASELINE",
    "QSDTC": "2013-10-04",
    "QSBLFL": "Y",
    "QSORRES": "35",
    "QSSTRESC": "35",
    "QSSTRESN": 35
  },
  {
    "STUDYID": "CDISCPILOT01",
    "DOMAIN": "QS",
    "USUBJID": "01-705-007",
    "QSSEQ": 2,
    "QSTESTCD": "ACTOT",
    "QSTEST": "ADAS-Cog (11) Total Score",
    "QSCAT": "ADAS-COG",
    "VISITNUM": 3,
    "VISIT": "WEEK 4",
    "QSDTC": "2013-11-01",
    "QSBLFL": "",
    "QSORRES": "34",
    "QSSTRESC": "34",
    "QSSTRESN": 34
  },
  {
    "STUDYID": "CDISCPILOT01",
    "DOMAIN": "QS",
    "USUBJID": "01-705-007",
    "QSSEQ": 3,
    "QSTESTCD": "ACTOT",
    "QSTEST": "ADAS-Cog (11) Total Score",
    "QSCAT": "ADAS-COG",
    "VISITNUM": 4,
    "VISIT": "WEEK 8",
    "QSDTC": "2013-11-29",
    "QSBLFL": "",
    "QSORRES": "31",
    "QSSTRESC": "31",
    "QSSTRESN": 31
  },
  {
    "STUDYID": "CDISCPILOT01",
    "DOMAIN": "QS",
    "USUBJID": "01-705-007",
    "QSSEQ": 4,
    "QSTESTCD": "CIBIC",
    "QSTEST": "CIBIC+ Global Assessment",
    "QSCAT": "CIBIC+",
    "VISITNUM": 7,
    "VISIT": "WEEK 24",
    "QSDTC": "2014-03-21",
    "QSBLFL": "",
    "QSORRES": "NO CHANGE",
    "QSSTRESC": "4",
    "QSSTRESN": 4
  },
  {
    "STUDYID": "CDISCPILOT01",
    "DOMAIN": "QS",
    "USUBJID": "01-705-008",
    "QSSEQ": 1,
    "QSTESTCD": "ACTOT",
    "QSTEST": "ADAS-Cog (11) Total Score",
    "QSCAT": "ADAS-COG",
    "VISITNUM": 1,
    "VISIT": "BASELINE",
    "QSDTC": "2013-05-16",
    "QSBLFL": "Y",
    "QSORRES": "11",
    "QSSTRESC": "11",
    "QSSTRESN": 11
  },
  {
    "STUDYID": "CDISCPILOT01",
    "DOMAIN": "QS",
    "USUBJID": "01-705-008",
    "QSSEQ": 2,
    "QSTESTCD": "ACTOT",
    "QSTEST": "ADAS-Cog (11) Total Score",
    "QSCAT": "ADAS-COG",
    "VISITNUM": 3,
    "VISIT": "WEEK 4",
    "QSDTC": "2013-06-13",
    "QSBLFL": "",
    "QSORRES": "12",
    "QSSTRESC": "12",
    "QSSTRESN": 12
  },
  {
    "STUDYID": "CDISCPILOT01",
    "DOMAIN": "QS",
    "USUBJID": "01-705-008",
    "QSSEQ": 3,
    "QSTESTCD": "ACTOT",
    "QSTEST": "ADAS-Cog (11) Total Score",
    "QSCAT": "ADAS-COG",
    "VISITNUM": 4,
    "VISIT": "WEEK 8",
    "QSDTC": "2013-07-11",
    "QSBLFL": "",
    "QSORRES": "16",
    "QSSTRESC": "16",
    "QSSTRESN": 16
  },
  {
    "STUDYID": "CDISCPILOT01",
    "DOMAIN": "QS",
    "USUBJID": "01-705-008",
    "QSSEQ": 4,
    "QSTESTCD": "ACTOT",
    "QSTEST": "ADAS-Cog (11) Total Score",
    "QSCAT": "ADAS-COG",
    "VISITNUM": 5,
    "VISIT": "WEEK 12",
    "QSDTC": "2013-08-08",
    "QSBLFL": "",
    "QSORRES": "9",
    "QSSTRESC": "9",
    "QSSTRESN": 9
  },
  {
    "STUDYID": "CDISCPILOT01",
    "DOMAIN": "QS",
    "USUBJID": "01-705-008",
    "QSSEQ": 5,
    "QSTESTCD": "ACTOT",
    "QSTEST": "ADAS-Cog (11) Total Score",
    "QSCAT": "ADAS-COG",
    "VISITNUM": 7,
    "VISIT": "WEEK 24",
    "QSDTC": "2013-10-31",
    "QSBLFL": "",
    "QSORRES": "12",
    "QSSTRESC": "12",
    "QSSTRESN": 12
  },
  {
    "STUDYID": "CDISCPILOT01",
    "DOMAIN": "QS",
    "USUBJID": "01-705-008",
    "QSSEQ": 6,
    "QSTESTCD": "CIBIC",
    "QSTEST": "CIBIC+ Global Assessment",
    "QSCAT": "CIBIC+",
    "VISITNUM": 7,
    "VISIT": "WEEK 24",
    "QSDTC": "2013-10-31",
    "QSBLFL": "",
    "QSORRES": "MINIMAL IMPROVEMENT",
    "QSSTRESC": "3",
    "QSSTRESN": 3
  },
  {
    "STUDYID": "CDISCPILOT01",
    "DOMAIN": "QS",
    "USUBJID": "01-705-009",
    "QSSEQ": 1,
    "QSTESTCD": "ACTOT",
    "QSTEST": "ADAS-Cog (11) Total Score",
    "QSCAT": "ADAS-COG",
    "VISITNUM": 1,
    "VISIT": "BASELINE",
    "QSDTC": "2013-09-07",
    "QSBLFL": "Y",
    "QSORRES": "21",
    "QSSTRESC": "21",
    "QSSTRESN": 21
  },
  {
    "STUDYID": "CDISCPILOT01",
    "DOMAIN": "QS",
    "USUBJID": "01-705-009",
    "QSSEQ": 2,
    "QSTESTCD": "ACTOT",
    "QSTEST": "ADAS-Cog (11) Total Score",
    "QSCAT": "ADAS-COG",
    "VISITNUM": 3,
    "VISIT": "WEEK 4",
    "QSDTC": "2013-10-05",
    "QSBLFL": "",
    "QSORRES": "18",
    "QSSTRESC": "18",
    "QSSTRESN": 18
  },
  {
    "STUDYID": "CDISCPILOT01",
    "DOMAIN": "QS",
    "USUBJID": "01-705-009",
    "QSSEQ": 3,
    "QSTESTCD": "ACTOT",
    "QSTEST": "ADAS-Cog (11) Total Score",
    "QSCAT": "ADAS-COG",
    "VISITNUM": 4,
    "VISIT": "WEEK 8",
    "QSDTC": "2013-11-02",
    "QSBLFL": "",
    "QSORRES": "24",
    "QSSTRESC": "24",
    "QSSTRESN": 24
  },
  {
    "STUDYID": "CDISCPILOT01",
    "DOMAIN": "QS",
    "USUBJID": "01-705-009",
    "QSSEQ": 4,
    "QSTESTCD": "ACTOT",
    "QSTEST": "ADAS-Cog (11) Total Score",
    "QSCAT": "ADAS-COG",
    "VISITNUM": 5,
    "VISIT": "WEEK 12",
    "QSDTC": "2013-11-30",
    "QSBLFL": "",
    "QSORRES": "19",
    "QSSTRESC": "19",
    "QSSTRESN": 19
  },
  {
    "STUDYID": "CDISCPILOT01",
    "DOMAIN": "QS",
    "USUBJID": "01-705-009",
    "QSSEQ": 5,
    "QSTESTCD": "ACTOT",
    "QSTEST": "ADAS-Cog (11) Total Score",
    "QSCAT": "ADAS-COG",
    "VISITNUM": 7,
    "VISIT": "WEEK 24",
    "QSDTC": "2014-02-22",
    "QSBLFL": "",
    "QSORRES": "19",
    "QSSTRESC": "19",
    "QSSTRESN": 19
  },
  {
    "STUDYID": "CDISCPILOT01",
    "DOMAIN": "QS",
    "USUBJID": "01-705-009",
    "QSSEQ": 6,
    "QSTESTCD": "CIBIC",
    "QSTEST": "CIBIC+ Global Assessment",
    "QSCAT": "CIBIC+",
    "VISITNUM": 7,
    "VISIT": "WEEK 24",
    "QSDTC": "2014-02-22",
    "QSBLFL": "",
    "QSORRES": "MODERATE IMPROVEMENT",
    "QSSTRESC": "2",
    "QSSTRESN": 2
  },
  {
    "STUDYID": "CDISCPILOT01",
    "DOMAIN": "QS",
    "USUBJID": "01-705-010",
    "QSSEQ": 1,
    "QSTESTCD": "ACTOT",
    "QSTEST": "ADAS-Cog (11) Total Score",
    "QSCAT": "ADAS-COG",
    "VISITNUM": 1,
    "VISIT": "BASELINE",
    "QSDTC": "2013-08-02",
    "QSBLFL": "Y",
    "QSORRES": "12",
    "QSSTRESC": "12",
    "QSSTRESN": 12
  },
  {
    "STUDYID": "CDISCPILOT01",
    "DOMAIN": "QS",
    "USUBJID": "01-705-010",
    "QSSEQ": 2,
    "QSTESTCD": "ACTOT",
    "QSTEST": "ADAS-Cog (11) Total Score",
    "QSCAT": "ADAS-COG",
    "VISITNUM": 3,
    "VISIT": "WEEK 4",
    "QSDTC": "2013-08-30",
    "QSBLFL": "",
    "QSORRES": "11",
    "QSSTRESC": "11",
    "QSSTRESN": 11
  },
  {
    "STUDYID": "CDISCPILOT01",
    "DOMAIN": "QS",
    "USUBJID": "01-705-010",
    "QSSEQ": 3,
    "QSTESTCD": "ACTOT",
    "QSTEST": "ADAS-Cog (11) Total Score",
    "QSCAT": "ADAS-COG",
    "VISITNUM": 4,
    "VISIT": "WEEK 8",
    "QSDTC": "2013-09-27",
    "QSBLFL": "",
    "QSORRES": "10",
    "QSSTRESC": "10",
    "QSSTRESN": 10
  },
  {
    "STUDYID": "CDISCPILOT01",
    "DOMAIN": "QS",
    "USUBJID": "01-705-010",
    "QSSEQ": 4,
    "QSTESTCD": "ACTOT",
    "QSTEST": "ADAS-Cog (11) Total Score",
    "QSCAT": "ADAS-COG",
    "VISITNUM": 5,
    "VISIT": "WEEK 12",
    "QSDTC": "2013-10-25",
    "QSBLFL": "",
    "QSORRES": "18",
    "QSSTRESC": "18",
    "QSSTRESN": 18
  },
  {
    "STUDYID": "CDISCPILOT01",
    "DOMAIN": "QS",
    "USUBJID": "01-705-010",
    "QSSEQ": 5,
    "QSTESTCD": "ACTOT",
    "QSTEST": "ADAS-Cog (11) Total Score",
    "QSCAT": "ADAS-COG",
    "VISITNUM": 7,
    "VISIT": "WEEK 24",
    "QSDTC": "2014-01-17",
    "QSBLFL": "",
    "QSORRES": "11",
    "QSSTRESC": "11",
    "QSSTRESN": 11
  },
  {
    "STUDYID": "CDISCPILOT01",
    "DOMAIN": "QS",
    "USUBJID": "01-705-010",
    "QSSEQ": 6,
    "QSTESTCD": "CIBIC",
    "QSTEST": "CIBIC+ Global Assessment",
    "QSCAT": "CIBIC+",
    "VISITNUM": 7,
    "VISIT": "WEEK 24",
    "QSDTC": "2014-01-17",
    "QSBLFL": "",
    "QSORRES": "MINIMAL WORSENING",
    "QSSTRESC": "5",
    "QSSTRESN": 5
  },
  {
    "STUDYID": "CDISCPILOT01",
    "DOMAIN": "QS",
    "USUBJID": "01-705-011",
    "QSSEQ": 1,
    "QSTESTCD": "ACTOT",
    "QSTEST": "ADAS-Cog (11) Total Score",
    "QSCAT": "ADAS-COG",
    "VISITNUM": 1,
    "VISIT": "BASELINE",
    "QSDTC": "2013-08-26",
    "QSBLFL": "Y",
    "QSORRES": "16",
    "QSSTRESC": "16",
    "QSSTRESN": 16
  },
  {
    "STUDYID": "CDISCPILOT01",
    "DOMAIN": "QS",
    "USUBJID": "01-705-011",
    "QSSEQ": 2,
    "QSTESTCD": "ACTOT",
    "QSTEST": "ADAS-Cog (11) Total Score",
    "QSCAT": "ADAS-COG",
    "VISITNUM": 3,
    "VISIT": "WEEK 4",
    "QSDTC": "2013-09-23",
    "QSBLFL": "",
    "QSORRES": "16",
    "QSSTRESC": "16",
    "QSSTRESN": 16
  },
  {
    "STUDYID": "CDISCPILOT01",
    "DOMAIN": "QS",
    "USUBJID": "01-705-011",
    "QSSEQ": 3,
    "QSTESTCD": "CIBIC",
    "QSTEST": "CIBIC+ Global Assessment",
    "QSCAT": "CIBIC+",
    "VISITNUM": 7,
    "VISIT": "WEEK 24",
    "QSDTC": "2014-02-10",
    "QSBLFL": "",
    "QSORRES": "MINIMAL WORSENING",
    "QSSTRESC": "5",
    "QSSTRESN": 5
  },
  {
    "STUDYID": "CDISCPILOT01",
    "DOMAIN": "QS",
    "USUBJID": "01-705-012",
    "QSSEQ": 1,
    "QSTESTCD": "ACTOT",
    "QSTEST": "ADAS-Cog (11) Total Score",
    "QSCAT": "ADAS-COG",
    "VISITNUM": 1,
    "VISIT": "BASELINE",
    "QSDTC": "2013-08-27",
    "QSBLFL": "Y",
    "QSORRES": "21",
    "QSSTRESC": "21",
    "QSSTRESN": 21
  },
  {
    "STUDYID": "CDISCPILOT01",
    "DOMAIN": "QS",
    "USUBJID": "01-705-012",
    "QSSEQ": 2,
    "QSTESTCD": "ACTOT",
    "QSTEST": "ADAS-Cog (11) Total Score",
    "QSCAT": "ADAS-COG",
    "VISITNUM": 3,
    "VISIT": "WEEK 4",
    "QSDTC": "2013-09-24",
    "QSBLFL": "",
    "QSORRES": "22",
    "QSSTRESC": "22",
    "QSSTRESN": 22
  },
  {
    "STUDYID": "CDISCPILOT01",
    "DOMAIN": "QS",
    "USUBJID": "01-705-012",
    "QSSEQ": 3,
    "QSTESTCD": "ACTOT",
    "QSTEST": "ADAS-Cog (11) Total Score",
    "QSCAT": "ADAS-COG",
    "VISITNUM": 4,
    "VISIT": "WEEK 8",
    "QSDTC": "2013-10-22",
    "QSBLFL": "",
    "QSORRES": "22",
    "QSSTRESC": "22",
    "QSSTRESN": 22
  },
  {
    "STUDYID": "CDISCPILOT01",
    "DOMAIN": "QS",
    "USUBJID": "01-705-012",
    "QSSEQ": 4,
    "QSTESTCD": "ACTOT",
    "QSTEST": "ADAS-Cog (11) Total Score",
    "QSCAT": "ADAS-COG",
    "VISITNUM": 5,
    "VISIT": "WEEK 12",
    "QSDTC": "2013-11-19",
    "QSBLFL": "",
    "QSORRES": "13",
    "QSSTRESC": "13",
    "QSSTRESN": 13
  },
  {
    "STUDYID": "CDISCPILOT01",
    "DOMAIN": "QS",
    "USUBJID": "01-705-012",
    "QSSEQ": 5,
    "QSTESTCD": "ACTOT",
    "QSTEST": "ADAS-Cog (11) Total Score",
    "QSCAT": "ADAS-COG",
    "VISITNUM": 7,
    "VISIT": "WEEK 24",
    "QSDTC": "2014-02-11",
    "QSBLFL": "",
    "QSORRES": "20",
    "QSSTRESC": "20",
    "QSSTRESN": 20
  },
  {
    "STUDYID": "CDISCPILOT01",
    "DOMAIN": "QS",
    "USUBJID": "01-705-012",
    "QSSEQ": 6,
    "QSTESTCD": "CIBIC",
    "QSTEST": "CIBIC+ Global Assessment",
    "QSCAT": "CIBIC+",
    "VISITNUM": 7,
    "VISIT": "WEEK 24",
    "QSDTC": "2014-02-11",
    "QSBLFL": "",
    "QSORRES": "MINIMAL WORSENING",
    "QSSTRESC": "5",
    "QSSTRESN": 5
  },
  {
    "STUDYID": "CDISCPILOT01",
    "DOMAIN": "QS",
    "USUBJID": "01-705-013",
    "QSSEQ": 1,
    "QSTESTCD": "ACTOT",
    "QSTEST": "ADAS-Cog (11) Total Score",
    "QSCAT": "ADAS-COG",
    "VISITNUM": 1,
    "VISIT": "BASELINE",
    "QSDTC": "2013-02-07",
    "QSBLFL": "Y",
    "QSORRES": "25",
    "QSSTRESC": "25",
    "QSSTRESN": 25
  },
  {
    "STUDYID": "CDISCPILOT01",
    "DOMAIN": "QS",
    "USUBJID": "01-705-013",
    "QSSEQ": 2,
    "QSTESTCD": "ACTOT",
    "QSTEST": "ADAS-Cog (11) Total Score",
    "QSCAT": "ADAS-COG",
    "VISITNUM": 3,
    "VISIT": "WEEK 4",
    "QSDTC": "2013-03-07",
    "QSBLFL": "",
    "QSORRES": "23",
    "QSSTRESC": "23",
    "QSSTRESN": 23
  },
  {
    "STUDYID": "CDISCPILOT01",
    "DOMAIN": "QS",
    "USUBJID": "01-705-013",
    "QSSEQ": 3,
    "QSTESTCD": "ACTOT",
    "QSTEST": "ADAS-Cog (11) Total Score",
    "QSCAT": "ADAS-COG",
    "VISITNUM": 4,
    "VISIT": "WEEK 8",
    "QSDTC": "2013-04-04",
    "QSBLFL": "",
    "QSORRES": "24",
    "QSSTRESC": "24",
    "QSSTRESN": 24
  },
  {
    "STUDYID": "CDISCPILOT01",
    "DOMAIN": "QS",
    "USUBJID": "01-705-013",
    "QSSEQ": 4,
    "QSTESTCD": "ACTOT",
    "QSTEST": "ADAS-Cog (11) Total Score",
    "QSCAT": "ADAS-COG",
    "VISITNUM": 5,
    "VISIT": "WEEK 12",
    "QSDTC": "2013-05-02",
    "QSBLFL": "",
    "QSORRES": "29",
    "QSSTRESC": "29",
    "QSSTRESN": 29
  },
  {
    "STUDYID": "CDISCPILOT01",
    "DOMAIN": "QS",
    "USUBJID": "01-705-013",
    "QSSEQ": 5,
    "QSTESTCD": "ACTOT",
    "QSTEST": "ADAS-Cog (11) Total Score",
    "QSCAT": "ADAS-COG",
    "VISITNUM": 7,
    "VISIT": "WEEK 24",
    "QSDTC": "2013-07-25",
    "QSBLFL": "",
    "QSORRES": "45",
    "QSSTRESC": "45",
    "QSSTRESN": 45
  },
  {
    "STUDYID": "CDISCPILOT01",
    "DOMAIN": "QS",
    "USUBJID": "01-705-013",
    "QSSEQ": 6,
    "QSTESTCD": "CIBIC",
    "QSTEST": "CIBIC+ Global Assessment",
    "QSCAT": "CIBIC+",
    "VISITNUM": 7,
    "VISIT": "WEEK 24",
    "QSDTC": "2013-07-25",
    "QSBLFL": "",
    "QSORRES": "NO CHANGE",
    "QSSTRESC": "4",
    "QSSTRESN": 4
  },
  {
    "STUDYID": "CDISCPILOT01",
    "DOMAIN": "QS",
    "USUBJID": "01-705-014",
    "QSSEQ": 1,
    "QSTESTCD": "ACTOT",
    "QSTEST": "ADAS-Cog (11) Total Score",
    "QSCAT": "ADAS-COG",
    "VISITNUM": 1,
    "VISIT": "BASELINE",
    "QSDTC": "2013-02-23",
    "QSBLFL": "Y",
    "QSORRES": "15",
    "QSSTRESC": "15",
    "QSSTRESN": 15
  },
  {
    "STUDYID": "CDISCPILOT01",
    "DOMAIN": "QS",
    "USUBJID": "01-705-014",
    "QSSEQ": 2,
    "QSTESTCD": "ACTOT",
    "QSTEST": "ADAS-Cog (11) Total Score",
    "QSCAT": "ADAS-COG",
    "VISITNUM": 3,
    "VISIT": "WEEK 4",
    "QSDTC": "2013-03-23",
    "QSBLFL": "",
    "QSORRES": "12",
    "QSSTRESC": "12",
    "QSSTRESN": 12
  },
  {
    "STUDYID": "CDISCPILOT01",
    "DOMAIN": "QS",
    "USUBJID": "01-705-014",
    "QSSEQ": 3,
    "QSTESTCD": "ACTOT",
    "QSTEST": "ADAS-Cog (11) Total Score",
    "QSCAT": "ADAS-COG",
    "VISITNUM": 4,
    "VISIT": "WEEK 8",
    "QSDTC": "2013-04-20",
    "QSBLFL": "",
    "QSORRES": "15",
    "QSSTRESC": "15",
    "QSSTRESN": 15
  },
  {
    "STUDYID": "CDISCPILOT01",
    "DOMAIN": "QS",
    "USUBJID": "01-705-014",
    "QSSEQ": 4,
    "QSTESTCD": "ACTOT",
    "QSTEST": "ADAS-Cog (11) Total Score",
    "QSCAT": "ADAS-COG",
    "VISITNUM": 5,
    "VISIT": "WEEK 12",
    "QSDTC": "2013-05-18",
    "QSBLFL": "",
    "QSORRES": "19",
    "QSSTRESC": "19",
    "QSSTRESN": 19
  },
  {
    "STUDYID": "CDISCPILOT01",
    "DOMAIN": "QS",
    "USUBJID": "01-705-014",
    "QSSEQ": 5,
    "QSTESTCD": "ACTOT",
    "QSTEST": "ADAS-Cog (11) Total Score",
    "QSCAT": "ADAS-COG",
    "VISITNUM": 7,
    "VISIT": "WEEK 24",
    "QSDTC": "2013-08-10",
    "QSBLFL": "",
    "QSORRES": "19",
    "QSSTRESC": "19",
    "QSSTRESN": 19
  },
  {
    "STUDYID": "CDISCPILOT01",
    "DOMAIN": "QS",
    "USUBJID": "01-705-014",
    "QSSEQ": 6,
    "QSTESTCD": "CIBIC",
    "QSTEST": "CIBIC+ Global Assessment",
    "QSCAT": "CIBIC+",
    "VISITNUM": 7,
    "VISIT": "WEEK 24",
    "QSDTC": "2013-08-10",
    "QSBLFL": "",
    "QSORRES": "NO CHANGE",
    "QSSTRESC": "4",
    "QSSTRESN": 4
  },
  {
    "STUDYID": "CDISCPILOT01",
    "DOMAIN": "QS",
    "USUBJID": "01-706-001",
    "QSSEQ": 1,
    "QSTESTCD": "ACTOT",
    "QSTEST": "ADAS-Cog (11) Total Score",
    "QSCAT": "ADAS-COG",
    "VISITNUM": 1,
    "VISIT": "BASELINE",
    "QSDTC": "2013-01-31",
    "QSBLFL": "Y",
    "QSORRES": "3",
    "QSSTRESC": "3",
    "QSSTRESN": 3
  },
  {
    "STUDYID": "CDISCPILOT01",
    "DOMAIN": "QS",
    "USUBJID": "01-706-001",
    "QSSEQ": 2,
    "QSTESTCD": "ACTOT",
    "QSTEST": "ADAS-Cog (11) Total Score",
    "QSCAT": "ADAS-COG",
    "VISITNUM": 3,
    "VISIT": "WEEK 4",
    "QSDTC": "2013-02-28",
    "QSBLFL": "",
    "QSORRES": "3",
    "QSSTRESC": "3",
    "QSSTRESN": 3
  },
  {
    "STUDYID": "CDISCPILOT01",
    "DOMAIN": "QS",
    "USUBJID": "01-706-001",
    "QSSEQ": 3,
    "QSTESTCD": "ACTOT",
    "QSTEST": "ADAS-Cog (11) Total Score",
    "QSCAT": "ADAS-COG",
    "VISITNUM": 4,
    "VISIT": "WEEK 8",
    "QSDTC": "2013-03-28",
    "QSBLFL": "",
    "QSORRES": "5",
    "QSSTRESC": "5",
    "QSSTRESN": 5
  },
  {
    "STUDYID": "CDISCPILOT01",
    "DOMAIN": "QS",
    "USUBJID": "01-706-001",
    "QSSEQ": 4,
    "QSTESTCD": "CIBIC",
    "QSTEST": "CIBIC+ Global Assessment",
    "QSCAT": "CIBIC+",
    "VISITNUM": 7,
    "VISIT": "WEEK 24",
    "QSDTC": "2013-07-18",
    "QSBLFL": "",
    "QSORRES": "NO CHANGE",
    "QSSTRESC": "4",
    "QSSTRESN": 4
  },
  {
    "STUDYID": "CDISCPILOT01",
    "DOMAIN": "QS",
    "USUBJID": "01-706-002",
    "QSSEQ": 1,
    "QSTESTCD": "ACTOT",
    "QSTEST": "ADAS-Cog (11) Total Score",
    "QSCAT": "ADAS-COG",
    "VISITNUM": 1,
    "VISIT": "BASELINE",
    "QSDTC": "2013-02-15",
    "QSBLFL": "Y",
    "QSORRES": "3",
    "QSSTRESC": "3",
    "QSSTRESN": 3
  },
  {
    "STUDYID": "CDISCPILOT01",
    "DOMAIN": "QS",
    "USUBJID": "01-706-002",
    "QSSEQ": 2,
    "QSTESTCD": "ACTOT",
    "QSTEST": "ADAS-Cog (11) Total Score",
    "QSCAT": "ADAS-COG",
    "VISITNUM": 3,
    "VISIT": "WEEK 4",
    "QSDTC": "2013-03-15",
    "QSBLFL": "",
    "QSORRES": "4",
    "QSSTRESC": "4",
    "QSSTRESN": 4
  },
  {
    "STUDYID": "CDISCPILOT01",
    "DOMAIN": "QS",
    "USUBJID": "01-706-002",
    "QSSEQ": 3,
    "QSTESTCD": "ACTOT",
    "QSTEST": "ADAS-Cog (11) Total Score",
    "QSCAT": "ADAS-COG",
    "VISITNUM": 4,
    "VISIT": "WEEK 8",
    "QSDTC": "2013-04-12",
    "QSBLFL": "",
    "QSORRES": "3",
    "QSSTRESC": "3",
    "QSSTRESN": 3
  },
  {
    "STUDYID": "CDISCPILOT01",
    "DOMAIN": "QS",
    "USUBJID": "01-706-002",
    "QSSEQ": 4,
    "QSTESTCD": "ACTOT",
    "QSTEST": "ADAS-Cog (11) Total Score",
    "QSCAT": "ADAS-COG",
    "VISITNUM": 5,
    "VISIT": "WEEK 12",
    "QSDTC": "2013-05-10",
    "QSBLFL": "",
    "QSORRES": "5",
    "QSSTRESC": "5",
    "QSSTRESN": 5
  },
  {
    "STUDYID": "CDISCPILOT01",
    "DOMAIN": "QS",
    "USUBJID": "01-706-002",
    "QSSEQ": 5,
    "QSTESTCD": "ACTOT",
    "QSTEST": "ADAS-Cog (11) Total Score",
    "QSCAT": "ADAS-COG",
    "VISITNUM": 7,
    "VISIT": "WEEK 24",
    "QSDTC": "2013-08-02",
    "QSBLFL": "",
    "QSORRES": "5",
    "QSSTRESC": "5",
    "QSSTRESN": 5
  },
  {
    "STUDYID": "CDISCPILOT01",
    "DOMAIN": "QS",
    "USUBJID": "01-706-002",
    "QSSEQ": 6,
    "QSTESTCD": "CIBIC",
    "QSTEST": "CIBIC+ Global Assessment",
    "QSCAT": "CIBIC+",
    "VISITNUM": 7,
    "VISIT": "WEEK 24",
    "QSDTC": "2013-08-02",
    "QSBLFL": "",
    "QSORRES": "NO CHANGE",
    "QSSTRESC": "4",
    "QSSTRESN": 4
  },
  {
    "STUDYID": "CDISCPILOT01",
    "DOMAIN": "QS",
    "USUBJID": "01-706-003",
    "QSSEQ": 1,
    "QSTESTCD": "ACTOT",
    "QSTEST": "ADAS-Cog (11) Total Score",
    "QSCAT": "ADAS-COG",
    "VISITNUM": 1,
    "VISIT": "BASELINE",
    "QSDTC": "2013-03-10",
    "QSBLFL": "Y",
    "QSORRES": "22",
    "QSSTRESC": "22",
    "QSSTRESN": 22
  },
  {
    "STUDYID": "CDISCPILOT01",
    "DOMAIN": "QS",
    "USUBJID": "01-706-003",
    "QSSEQ": 2,
    "QSTESTCD": "ACTOT",
    "QSTEST": "ADAS-Cog (11) Total Score",
    "QSCAT": "ADAS-COG",
    "VISITNUM": 3,
    "VISIT": "WEEK 4",
    "QSDTC": "2013-04-07",
    "QSBLFL": "",
    "QSORRES": "20",
    "QSSTRESC": "20",
    "QSSTRESN": 20
  },
  {
    "STUDYID": "CDISCPILOT01",
    "DOMAIN": "QS",
    "USUBJID": "01-706-003",
    "QSSEQ": 3,
    "QSTESTCD": "ACTOT",
    "QSTEST": "ADAS-Cog (11) Total Score",
    "QSCAT": "ADAS-COG",
    "VISITNUM": 4,
    "VISIT": "WEEK 8",
    "QSDTC": "2013-05-05",
    "QSBLFL": "",
    "QSORRES": "23",
    "QSSTRESC": "23",
    "QSSTRESN": 23
  },
  {
    "STUDYID": "CDISCPILOT01",
    "DOMAIN": "QS",
    "USUBJID": "01-706-003",
    "QSSEQ": 4,
    "QSTESTCD": "ACTOT",
    "QSTEST": "ADAS-Cog (11) Total Score",
    "QSCAT": "ADAS-COG",
    "VISITNUM": 5,
    "VISIT": "WEEK 12",
    "QSDTC": "2013-06-02",
    "QSBLFL": "",
    "QSORRES": "26",
    "QSSTRESC": "26",
    "QSSTRESN": 26
  },
  {
    "STUDYID": "CDISCPILOT01",
    "DOMAIN": "QS",
    "USUBJID": "01-706-003",
    "QSSEQ": 5,
    "QSTESTCD": "CIBIC",
    "QSTEST": "CIBIC+ Global Assessment",
    "QSCAT": "CIBIC+",
    "VISITNUM": 7,
    "VISIT": "WEEK 24",
    "QSDTC": "2013-08-25",
    "QSBLFL": "",
    "QSORRES": "MODERATE IMPROVEMENT",
    "QSSTRESC": "2",
    "QSSTRESN": 2
  },
  {
    "STUDYID": "CDISCPILOT01",
    "DOMAIN": "QS",
    "USUBJID": "01-707-001",
    "QSSEQ": 1,
    "QSTESTCD": "ACTOT",
    "QSTEST": "ADAS-Cog (11) Total Score",
    "QSCAT": "ADAS-COG",
    "VISITNUM": 1,
    "VISIT": "BASELINE",
    "QSDTC": "2013-02-11",
    "QSBLFL": "Y",
    "QSORRES": "13",
    "QSSTRESC": "13",
    "QSSTRESN": 13
  },
  {
    "STUDYID": "CDISCPILOT01",
    "DOMAIN": "QS",
    "USUBJID": "01-707-001",
    "QSSEQ": 2,
    "QSTESTCD": "ACTOT",
    "QSTEST": "ADAS-Cog (11) Total Score",
    "QSCAT": "ADAS-COG",
    "VISITNUM": 3,
    "VISIT": "WEEK 4",
    "QSDTC": "2013-03-11",
    "QSBLFL": "",
    "QSORRES": "16",
    "QSSTRESC": "16",
    "QSSTRESN": 16
  },
  {
    "STUDYID": "CDISCPILOT01",
    "DOMAIN": "QS",
    "USUBJID": "01-707-001",
    "QSSEQ": 3,
    "QSTESTCD": "ACTOT",
    "QSTEST": "ADAS-Cog (11) Total Score",
    "QSCAT": "ADAS-COG",
    "VISITNUM": 4,
    "VISIT": "WEEK 8",
    "QSDTC": "2013-04-08",
    "QSBLFL": "",
    "QSORRES": "12",
    "QSSTRESC": "12",
    "QSSTRESN": 12
  },
  {
    "STUDYID": "CDISCPILOT01",
    "DOMAIN": "QS",
    "USUBJID": "01-707-001",
    "QSSEQ": 4,
    "QSTESTCD": "CIBIC",
    "QSTEST": "CIBIC+ Global Assessment",
    "QSCAT": "CIBIC+",
    "VISITNUM": 7,
    "VISIT": "WEEK 24",
    "QSDTC": "2013-07-29",
    "QSBLFL": "",
    "QSORRES": "NO CHANGE",
    "QSSTRESC": "4",
    "QSSTRESN": 4
  },
  {
    "STUDYID": "CDISCPILOT01",
    "DOMAIN": "QS",
    "USUBJID": "01-707-002",
    "QSSEQ": 1,
    "QSTESTCD": "ACTOT",
    "QSTEST": "ADAS-Cog (11) Total Score",
    "QSCAT": "ADAS-COG",
    "VISITNUM": 1,
    "VISIT": "BASELINE",
    "QSDTC": "2013-08-22",
    "QSBLFL": "Y",
    "QSORRES": "50",
    "QSSTRESC": "50",
    "QSSTRESN": 50
  },
  {
    "STUDYID": "CDISCPILOT01",
    "DOMAIN": "QS",
    "USUBJID": "01-707-002",
    "QSSEQ": 2,
    "QSTESTCD": "ACTOT",
    "QSTEST": "ADAS-Cog (11) Total Score",
    "QSCAT": "ADAS-COG",
    "VISITNUM": 3,
    "VISIT": "WEEK 4",
    "QSDTC": "2013-09-19",
    "QSBLFL": "",
    "QSORRES": "46",
    "QSSTRESC": "46",
    "QSSTRESN": 46
  },
  {
    "STUDYID": "CDISCPILOT01",
    "DOMAIN": "QS",
    "USUBJID": "01-707-002",
    "QSSEQ": 3,
    "QSTESTCD": "ACTOT",
    "QSTEST": "ADAS-Cog (11) Total Score",
    "QSCAT": "ADAS-COG",
    "VISITNUM": 4,
    "VISIT": "WEEK 8",
    "QSDTC": "2013-10-17",
    "QSBLFL": "",
    "QSORRES": "56",
    "QSSTRESC": "56",
    "QSSTRESN": 56
  },
  {
    "STUDYID": "CDISCPILOT01",
    "DOMAIN": "QS",
    "USUBJID": "01-707-002",
    "QSSEQ": 4,
    "QSTESTCD": "ACTOT",
    "QSTEST": "ADAS-Cog (11) Total Score",
    "QSCAT": "ADAS-COG",
    "VISITNUM": 5,
    "VISIT": "WEEK 12",
    "QSDTC": "2013-11-14",
    "QSBLFL": "",
    "QSORRES": "51",
    "QSSTRESC": "51",
    "QSSTRESN": 51
  },
  {
    "STUDYID": "CDISCPILOT01",
    "DOMAIN": "QS",
    "USUBJID": "01-707-002",
    "QSSEQ": 5,
    "QSTESTCD": "ACTOT",
    "QSTEST": "ADAS-Cog (11) Total Score",
    "QSCAT": "ADAS-COG",
    "VISITNUM": 7,
    "VISIT": "WEEK 24",
    "QSDTC": "2014-02-06",
    "QSBLFL": "",
    "QSORRES": "51",
    "QSSTRESC": "51",
    "QSSTRESN": 51
  },
  {
    "STUDYID": "CDISCPILOT01",
    "DOMAIN": "QS",
    "USUBJID": "01-707-002",
    "QSSEQ": 6,
    "QSTESTCD": "CIBIC",
    "QSTEST": "CIBIC+ Global Assessment",
    "QSCAT": "CIBIC+",
    "VISITNUM": 7,
    "VISIT": "WEEK 24",
    "QSDTC": "2014-02-06",
    "QSBLFL": "",
    "QSORRES": "MINIMAL WORSENING",
    "QSSTRESC": "5",
    "QSSTRESN": 5
  },
  {
    "STUDYID": "CDISCPILOT01",
    "DOMAIN": "QS",
    "USUBJID": "01-707-003",
    "QSSEQ": 1,
    "QSTESTCD": "ACTOT",
    "QSTEST": "ADAS-Cog (11) Total Score",
    "QSCAT": "ADAS-COG",
    "VISITNUM": 1,
    "VISIT": "BASELINE",
    "QSDTC": "2013-12-10",
    "QSBLFL": "Y",
    "QSORRES": "22",
    "QSSTRESC": "22",
    "QSSTRESN": 22
  },
  {
    "STUDYID": "CDISCPILOT01",
    "DOMAIN": "QS",
    "USUBJID": "01-707-003",
    "QSSEQ": 2,
    "QSTESTCD": "ACTOT",
    "QSTEST": "ADAS-Cog (11) Total Score",
    "QSCAT": "ADAS-COG",
    "VISITNUM": 3,
    "VISIT": "WEEK 4",
    "QSDTC": "2014-01-07",
    "QSBLFL": "",
    "QSORRES": "24",
    "QSSTRESC": "24",
    "QSSTRESN": 24
  },
  {
    "STUDYID": "CDISCPILOT01",
    "DOMAIN": "QS",
    "USUBJID": "01-707-003",
    "QSSEQ": 3,
    "QSTESTCD": "ACTOT",
    "QSTEST": "ADAS-Cog (11) Total Score",
    "QSCAT": "ADAS-COG",
    "VISITNUM": 4,
    "VISIT": "WEEK 8",
    "QSDTC": "2014-02-04",
    "QSBLFL": "",
    "QSORRES": "21",
    "QSSTRESC": "21",
    "QSSTRESN": 21
  },
  {
    "STUDYID": "CDISCPILOT01",
    "DOMAIN": "QS",
    "USUBJID": "01-707-003",
    "QSSEQ": 4,
    "QSTESTCD": "ACTOT",
    "QSTEST": "ADAS-Cog (11) Total Score",
    "QSCAT": "ADAS-COG",
    "VISITNUM": 5,
    "VISIT": "WEEK 12",
    "QSDTC": "2014-03-04",
    "QSBLFL": "",
    "QSORRES": "21",
    "QSSTRESC": "21",
    "QSSTRESN": 21
  },
  {
    "STUDYID": "CDISCPILOT01",
    "DOMAIN": "QS",
    "USUBJID": "01-707-003",
    "QSSEQ": 5,
    "QSTESTCD": "ACTOT",
    "QSTEST": "ADAS-Cog (11) Total Score",
    "QSCAT": "ADAS-COG",
    "VISITNUM": 7,
    "VISIT": "WEEK 24",
    "QSDTC": "2014-05-27",
    "QSBLFL": "",
    "QSORRES": "36",
    "QSSTRESC": "36",
    "QSSTRESN": 36
  },
  {
    "STUDYID": "CDISCPILOT01",
    "DOMAIN": "QS",
    "USUBJID": "01-707-003",
    "QSSEQ": 6,
    "QSTESTCD": "CIBIC",
    "QSTEST": "CIBIC+ Global Assessment",
    "QSCAT": "CIBIC+",
    "VISITNUM": 7,
    "VISIT": "WEEK 24",
    "QSDTC": "2014-05-27",
    "QSBLFL": "",
    "QSORRES": "NO CHANGE",
    "QSSTRESC": "4",
    "QSSTRESN": 4
  },
  {
    "STUDYID": "CDISCPILOT01",
    "DOMAIN": "QS",
    "USUBJID": "01-708-001",
    "QSSEQ": 1,
    "QSTESTCD": "ACTOT",
    "QSTEST": "ADAS-Cog (11) Total Score",
    "QSCAT": "ADAS-COG",
    "VISITNUM": 1,
    "VISIT": "BASELINE",
    "QSDTC": "2013-11-10",
    "QSBLFL": "Y",
    "QSORRES": "24",
    "QSSTRESC": "24",
    "QSSTRESN": 24
  },
  {
    "STUDYID": "CDISCPILOT01",
    "DOMAIN": "QS",
    "USUBJID": "01-708-001",
    "QSSEQ": 2,
    "QSTESTCD": "ACTOT",
    "QSTEST": "ADAS-Cog (11) Total Score",
    "QSCAT": "ADAS-COG",
    "VISITNUM": 3,
    "VISIT": "WEEK 4",
    "QSDTC": "2013-12-08",
    "QSBLFL": "",
    "QSORRES": "25",
    "QSSTRESC": "25",
    "QSSTRESN": 25
  },
  {
    "STUDYID": "CDISCPILOT01",
    "DOMAIN": "QS",
    "USUBJID": "01-708-001",
    "QSSEQ": 3,
    "QSTESTCD": "ACTOT",
    "QSTEST": "ADAS-Cog (11) Total Score",
    "QSCAT": "ADAS-COG",
    "VISITNUM": 4,
    "VISIT": "WEEK 8",
    "QSDTC": "2014-01-05",
    "QSBLFL": "",
    "QSORRES": "26",
    "QSSTRESC": "26",
    "QSSTRESN": 26
  },
  {
    "STUDYID": "CDISCPILOT01",
    "DOMAIN": "QS",
    "USUBJID": "01-708-001",
    "QSSEQ": 4,
    "QSTESTCD": "ACTOT",
    "QSTEST": "ADAS-Cog (11) Total Score",
    "QSCAT": "ADAS-COG",
    "VISITNUM": 5,
    "VISIT": "WEEK 12",
    "QSDTC": "2014-02-02",
    "QSBLFL": "",
    "QSORRES": "17",
    "QSSTRESC": "17",
    "QSSTRESN": 17
  },
  {
    "STUDYID": "CDISCPILOT01",
    "DOMAIN": "QS",
    "USUBJID": "01-708-001",
    "QSSEQ": 5,
    "QSTESTCD": "CIBIC",
    "QSTEST": "CIBIC+ Global Assessment",
    "QSCAT": "CIBIC+",
    "VISITNUM": 7,
    "VISIT": "WEEK 24",
    "QSDTC": "2014-04-27",
    "QSBLFL": "",
    "QSORRES": "MINIMAL WORSENING",
    "QSSTRESC": "5",
    "QSSTRESN": 5
  },
  {
    "STUDYID": "CDISCPILOT01",
    "DOMAIN": "QS",
    "USUBJID": "01-708-002",
    "QSSEQ": 1,
    "QSTESTCD": "ACTOT",
    "QSTEST": "ADAS-Cog (11) Total Score",
    "QSCAT": "ADAS-COG",
    "VISITNUM": 1,
    "VISIT": "BASELINE",
    "QSDTC": "2013-08-27",
    "QSBLFL": "Y",
    "QSORRES": "33",
    "QSSTRESC": "33",
    "QSSTRESN": 33
  },
  {
    "STUDYID": "CDISCPILOT01",
    "DOMAIN": "QS",
    "USUBJID": "01-708-002",
    "QSSEQ": 2,
    "QSTESTCD": "CIBIC",
    "QSTEST": "CIBIC+ Global Assessment",
    "QSCAT": "CIBIC+",
    "VISITNUM": 7,
    "VISIT": "WEEK 24",
    "QSDTC": "2014-02-11",
    "QSBLFL": "",
    "QSORRES": "MINIMAL IMPROVEMENT",
    "QSSTRESC": "3",
    "QSSTRESN": 3
  },
  {
    "STUDYID": "CDISCPILOT01",
    "DOMAIN": "QS",
    "USUBJID": "01-708-003",
    "QSSEQ": 1,
    "QSTESTCD": "ACTOT",
    "QSTEST": "ADAS-Cog (11) Total Score",
    "QSCAT": "ADAS-COG",
    "VISITNUM": 1,
    "VISIT": "BASELINE",
    "QSDTC": "2013-10-28",
    "QSBLFL": "Y",
    "QSORRES": "24",
    "QSSTRESC": "24",
    "QSSTRESN": 24
  },
  {
    "STUDYID": "CDISCPILOT01",
    "DOMAIN": "QS",
    "USUBJID": "01-708-003",
    "QSSEQ": 2,
    "QSTESTCD": "ACTOT",
    "QSTEST": "ADAS-Cog (11) Total Score",
    "QSCAT": "ADAS-COG",
    "VISITNUM": 3,
    "VISIT": "WEEK 4",
    "QSDTC": "2013-11-25",
    "QSBLFL": "",
    "QSORRES": "28",
    "QSSTRESC": "28",
    "QSSTRESN": 28
  },
  {
    "STUDYID": "CDISCPILOT01",
    "DOMAIN": "QS",
    "USUBJID": "01-708-003",
    "QSSEQ": 3,
    "QSTESTCD": "ACTOT",
    "QSTEST": "ADAS-Cog (11) Total Score",
    "QSCAT": "ADAS-COG",
    "VISITNUM": 4,
    "VISIT": "WEEK 8",
    "QSDTC": "2013-12-23",
    "QSBLFL": "",
    "QSORRES": "24",
    "QSSTRESC": "24",
    "QSSTRESN": 24
  },
  {
    "STUDYID": "CDISCPILOT01",
    "DOMAIN": "QS",
    "USUBJID": "01-708-003",
    "QSSEQ": 4,
    "QSTESTCD": "ACTOT",
    "QSTEST": "ADAS-Cog (11) Total Score",
    "QSCAT": "ADAS-COG",
    "VISITNUM": 5,
    "VISIT": "WEEK 12",
    "QSDTC": "2014-01-20",
    "QSBLFL": "",
    "QSORRES": "18",
    "QSSTRESC": "18",
    "QSSTRESN": 18
  },
  {
    "STUDYID": "CDISCPILOT01",
    "DOMAIN": "QS",
    "USUBJID": "01-708-003",
    "QSSEQ": 5,
    "QSTESTCD": "ACTOT",
    "QSTEST": "ADAS-Cog (11) Total Score",
    "QSCAT": "ADAS-COG",
    "VISITNUM": 7,
    "VISIT": "WEEK 24",
    "QSDTC": "2014-04-14",
    "QSBLFL": "",
    "QSORRES": "25",
    "QSSTRESC": "25",
    "QSSTRESN": 25
  },
  {
    "STUDYID": "CDISCPILOT01",
    "DOMAIN": "QS",
    "USUBJID": "01-708-003",
    "QSSEQ": 6,
    "QSTESTCD": "CIBIC",
    "QSTEST": "CIBIC+ Global Assessment",
    "QSCAT": "CIBIC+",
    "VISITNUM": 7,
    "VISIT": "WEEK 24",
    "QSDTC": "2014-04-14",
    "QSBLFL": "",
    "QSORRES": "NO CHANGE",
    "QSSTRESC": "4",
    "QSSTRESN": 4
  },
  {
    "STUDYID": "CDISCPILOT01",
    "DOMAIN": "QS",
    "USUBJID": "01-708-004",
    "QSSEQ": 1,
    "QSTESTCD": "ACTOT",
    "QSTEST": "ADAS-Cog (11) Total Score",
    "QSCAT": "ADAS-COG",
    "VISITNUM": 1,
    "VISIT": "BASELINE",
    "QSDTC": "2013-01-04",
    "QSBLFL": "Y",
    "QSORRES": "10",
    "QSSTRESC": "10",
    "QSSTRESN": 10
  },
  {
    "STUDYID": "CDISCPILOT01",
    "DOMAIN": "QS",
    "USUBJID": "01-708-004",
    "QSSEQ": 2,
    "QSTESTCD": "CIBIC",
    "QSTEST": "CIBIC+ Global Assessment",
    "QSCAT": "CIBIC+",
    "VISITNUM": 7,
    "VISIT": "WEEK 24",
    "QSDTC": "2013-06-21",
    "QSBLFL": "",
    "QSORRES": "MINIMAL WORSENING",
    "QSSTRESC": "5",
    "QSSTRESN": 5
  },
  {
    "STUDYID": "CDISCPILOT01",
    "DOMAIN": "QS",
    "USUBJID": "01-708-005",
    "QSSEQ": 1,
    "QSTESTCD": "ACTOT",
    "QSTEST": "ADAS-Cog (11) Total Score",
    "QSCAT": "ADAS-COG",
    "VISITNUM": 1,
    "VISIT": "BASELINE",
    "QSDTC": "2013-02-03",
    "QSBLFL": "Y",
    "QSORRES": "33",
    "QSSTRESC": "33",
    "QSSTRESN": 33
  },
  {
    "STUDYID": "CDISCPILOT01",
    "DOMAIN": "QS",
    "USUBJID": "01-708-005",
    "QSSEQ": 2,
    "QSTESTCD": "CIBIC",
    "QSTEST": "CIBIC+ Global Assessment",
    "QSCAT": "CIBIC+",
    "VISITNUM": 7,
    "VISIT": "WEEK 24",
    "QSDTC": "2013-07-21",
    "QSBLFL": "",
    "QSORRES": "MINIMAL WORSENING",
    "QSSTRESC": "5",
    "QSSTRESN": 5
  },
  {
    "STUDYID": "CDISCPILOT01",
    "DOMAIN": "QS",
    "USUBJID": "01-708-006",
    "QSSEQ": 1,
    "QSTESTCD": "ACTOT",
    "QSTEST": "ADAS-Cog (11) Total Score",
    "QSCAT": "ADAS-COG",
    "VISITNUM": 1,
    "VISIT": "BASELINE",
    "QSDTC": "2013-10-06",
    "QSBLFL": "Y",
    "QSORRES": "32",
    "QSSTRESC": "32",
    "QSSTRESN": 32
  },
  {
    "STUDYID": "CDISCPILOT01",
    "DOMAIN": "QS",
    "USUBJID": "01-708-006",
    "QSSEQ": 2,
    "QSTESTCD": "ACTOT",
    "QSTEST": "ADAS-Cog (11) Total Score",
    "QSCAT": "ADAS-COG",
    "VISITNUM": 3,
    "VISIT": "WEEK 4",
    "QSDTC": "2013-11-03",
    "QSBLFL": "",
    "QSORRES": "31",
    "QSSTRESC": "31",
    "QSSTRESN": 31
  },
  {
    "STUDYID": "CDISCPILOT01",
    "DOMAIN": "QS",
    "USUBJID": "01-708-006",
    "QSSEQ": 3,
    "QSTESTCD": "ACTOT",
    "QSTEST": "ADAS-Cog (11) Total Score",
    "QSCAT": "ADAS-COG",
    "VISITNUM": 4,
    "VISIT": "WEEK 8",
    "QSDTC": "2013-12-01",
    "QSBLFL": "",
    "QSORRES": "32",
    "QSSTRESC": "32",
    "QSSTRESN": 32
  },
  {
    "STUDYID": "CDISCPILOT01",
    "DOMAIN": "QS",
    "USUBJID": "01-708-006",
    "QSSEQ": 4,
    "QSTESTCD": "ACTOT",
    "QSTEST": "ADAS-Cog (11) Total Score",
    "QSCAT": "ADAS-COG",
    "VISITNUM": 5,
    "VISIT": "WEEK 12",
    "QSDTC": "2013-12-29",
    "QSBLFL": "",
    "QSORRES": "33",
    "QSSTRESC": "33",
    "QSSTRESN": 33
  },
  {
    "STUDYID": "CDISCPILOT01",
    "DOMAIN": "QS",
    "USUBJID": "01-708-006",
    "QSSEQ": 5,
    "QSTESTCD": "ACTOT",
    "QSTEST": "ADAS-Cog (11) Total Score",
    "QSCAT": "ADAS-COG",
    "VISITNUM": 7,
    "VISIT": "WEEK 24",
    "QSDTC": "2014-03-23",
    "QSBLFL": "",
    "QSORRES": "31",
    "QSSTRESC": "31",
    "QSSTRESN": 31
  },
  {
    "STUDYID": "CDISCPILOT01",
    "DOMAIN": "QS",
    "USUBJID": "01-708-006",
    "QSSEQ": 6,
    "QSTESTCD": "CIBIC",
    "QSTEST": "CIBIC+ Global Assessment",
    "QSCAT": "CIBIC+",
    "VISITNUM": 7,
    "VISIT": "WEEK 24",
    "QSDTC": "2014-03-23",
    "QSBLFL": "",
    "QSORRES": "NO CHANGE",
    "QSSTRESC": "4",
    "QSSTRESN": 4
  },
  {
    "STUDYID": "CDISCPILOT01",
    "DOMAIN": "QS",
    "USUBJID": "01-708-007",
    "QSSEQ": 1,
    "QSTESTCD": "ACTOT",
    "QSTEST": "ADAS-Cog (11) Total Score",
    "QSCAT": "ADAS-COG",
    "VISITNUM": 1,
    "VISIT": "BASELINE",
    "QSDTC": "2013-05-19",
    "QSBLFL": "Y",
    "QSORRES": "13",
    "QSSTRESC": "13",
    "QSSTRESN": 13
  },
  {
    "STUDYID": "CDISCPILOT01",
    "DOMAIN": "QS",
    "USUBJID": "01-708-007",
    "QSSEQ": 2,
    "QSTESTCD": "ACTOT",
    "QSTEST": "ADAS-Cog (11) Total Score",
    "QSCAT": "ADAS-COG",
    "VISITNUM": 3,
    "VISIT": "WEEK 4",
    "QSDTC": "2013-06-16",
    "QSBLFL": "",
    "QSORRES": "16",
    "QSSTRESC": "16",
    "QSSTRESN": 16
  },
  {
    "STUDYID": "CDISCPILOT01",
    "DOMAIN": "QS",
    "USUBJID": "01-708-007",
    "QSSEQ": 3,
    "QSTESTCD": "ACTOT",
    "QSTEST": "ADAS-Cog (11) Total Score",
    "QSCAT": "ADAS-COG",
    "VISITNUM": 4,
    "VISIT": "WEEK 8",
    "QSDTC": "2013-07-14",
    "QSBLFL": "",
    "QSORRES": "14",
    "QSSTRESC": "14",
    "QSSTRESN": 14
  },
  {
    "STUDYID": "CDISCPILOT01",
    "DOMAIN": "QS",
    "USUBJID": "01-708-007",
    "QSSEQ": 4,
    "QSTESTCD": "ACTOT",
    "QSTEST": "ADAS-Cog (11) Total Score",
    "QSCAT": "ADAS-COG",
    "VISITNUM": 5,
    "VISIT": "WEEK 12",
    "QSDTC": "2013-08-11",
    "QSBLFL": "",
    "QSORRES": "12",
    "QSSTRESC": "12",
    "QSSTRESN": 12
  },
  {
    "STUDYID": "CDISCPILOT01",
    "DOMAIN": "QS",
    "USUBJID": "01-708-007",
    "QSSEQ": 5,
    "QSTESTCD": "ACTOT",
    "QSTEST": "ADAS-Cog (11) Total Score",
    "QSCAT": "ADAS-COG",
    "VISITNUM": 7,
    "VISIT": "WEEK 24",
    "QSDTC": "2013-11-03",
    "QSBLFL": "",
    "QSORRES": "6",
    "QSSTRESC": "6",
    "QSSTRESN": 6
  },
  {
    "STUDYID": "CDISCPILOT01",
    "DOMAIN": "QS",
    "USUBJID": "01-708-007",
    "QSSEQ": 6,
    "QSTESTCD": "CIBIC",
    "QSTEST": "CIBIC+ Global Assessment",
    "QSCAT": "CIBIC+",
    "VISITNUM": 7,
    "VISIT": "WEEK 24",
    "QSDTC": "2013-11-03",
    "QSBLFL": "",
    "QSORRES": "MINIMAL WORSENING",
    "QSSTRESC": "5",
    "QSSTRESN": 5
  },
  {
    "STUDYID": "CDISCPILOT01",
    "DOMAIN": "QS",
    "USUBJID": "01-708-008",
    "QSSEQ": 1,
    "QSTESTCD": "ACTOT",
    "QSTEST": "ADAS-Cog (11) Total Score",
    "QSCAT": "ADAS-COG",
    "VISITNUM": 1,
    "VISIT": "BASELINE",
    "QSDTC": "2013-07-03",
    "QSBLFL": "Y",
    "QSORRES": "16",
    "QSSTRESC": "16",
    "QSSTRESN": 16
  },
  {
    "STUDYID": "CDISCPILOT01",
    "DOMAIN": "QS",
    "USUBJID": "01-708-008",
    "QSSEQ": 2,
    "QSTESTCD": "ACTOT",
    "QSTEST": "ADAS-Cog (11) Total Score",
    "QSCAT": "ADAS-COG",
    "VISITNUM": 3,
    "VISIT": "WEEK 4",
    "QSDTC": "2013-07-31",
    "QSBLFL": "",
    "QSORRES": "15",
    "QSSTRESC": "15",
    "QSSTRESN": 15
  },
  {
    "STUDYID": "CDISCPILOT01",
    "DOMAIN": "QS",
    "USUBJID": "01-708-008",
    "QSSEQ": 3,
    "QSTESTCD": "ACTOT",
    "QSTEST": "ADAS-Cog (11) Total Score",
    "QSCAT": "ADAS-COG",
    "VISITNUM": 4,
    "VISIT": "WEEK 8",
    "QSDTC": "2013-08-28",
    "QSBLFL": "",
    "QSORRES": "16",
    "QSSTRESC": "16",
    "QSSTRESN": 16
  },
  {
    "STUDYID": "CDISCPILOT01",
    "DOMAIN": "QS",
    "USUBJID": "01-708-008",
    "QSSEQ": 4,
    "QSTESTCD": "ACTOT",
    "QSTEST": "ADAS-Cog (11) Total Score",
    "QSCAT": "ADAS-COG",
    "VISITNUM": 5,
    "VISIT": "WEEK 12",
    "QSDTC": "2013-09-25",
    "QSBLFL": "",
    "QSORRES": "16",
    "QSSTRESC": "16",
    "QSSTRESN": 16
  },
  {
    "STUDYID": "CDISCPILOT01",
    "DOMAIN": "QS",
    "USUBJID": "01-708-008",
    "QSSEQ": 5,
    "QSTESTCD": "CIBIC",
    "QSTEST": "CIBIC+ Global Assessment",
    "QSCAT": "CIBIC+",
    "VISITNUM": 7,
    "VISIT": "WEEK 24",
    "QSDTC": "2013-12-18",
    "QSBLFL": "",
    "QSORRES": "MINIMAL WORSENING",
    "QSSTRESC": "5",
    "QSSTRESN": 5
  },
  {
    "STUDYID": "CDISCPILOT01",
    "DOMAIN": "QS",
    "USUBJID": "01-708-009",
    "QSSEQ": 1,
    "QSTESTCD": "ACTOT",
    "QSTEST": "ADAS-Cog (11) Total Score",
    "QSCAT": "ADAS-COG",
    "VISITNUM": 1,
    "VISIT": "BASELINE",
    "QSDTC": "2013-04-16",
    "QSBLFL": "Y",
    "QSORRES": "27",
    "QSSTRESC": "27",
    "QSSTRESN": 27
  },
  {
    "STUDYID": "CDISCPILOT01",
    "DOMAIN": "QS",
    "USUBJID": "01-708-009",
    "QSSEQ": 2,
    "QSTESTCD": "ACTOT",
    "QSTEST": "ADAS-Cog (11) Total Score",
    "QSCAT": "ADAS-COG",
    "VISITNUM": 3,
    "VISIT": "WEEK 4",
    "QSDTC": "2013-05-14",
    "QSBLFL": "",
    "QSORRES": "26",
    "QSSTRESC": "26",
    "QSSTRESN": 26
  },
  {
    "STUDYID": "CDISCPILOT01",
    "DOMAIN": "QS",
    "USUBJID": "01-708-009",
    "QSSEQ": 3,
    "QSTESTCD": "ACTOT",
    "QSTEST": "ADAS-Cog (11) Total Score",
    "QSCAT": "ADAS-COG",
    "VISITNUM": 4,
    "VISIT": "WEEK 8",
    "QSDTC": "2013-06-11",
    "QSBLFL": "",
    "QSORRES": "29",
    "QSSTRESC": "29",
    "QSSTRESN": 29
  },
  {
    "STUDYID": "CDISCPILOT01",
    "DOMAIN": "QS",
    "USUBJID": "01-708-009",
    "QSSEQ": 4,
    "QSTESTCD": "CIBIC",
    "QSTEST": "CIBIC+ Global Assessment",
    "QSCAT": "CIBIC+",
    "VISITNUM": 7,
    "VISIT": "WEEK 24",
    "QSDTC": "2013-10-01",
    "QSBLFL": "",
    "QSORRES": "MINIMAL WORSENING",
    "QSSTRESC": "5",
    "QSSTRESN": 5
  },
  {
    "STUDYID": "CDISCPILOT01",
    "DOMAIN": "QS",
    "USUBJID": "01-708-010",
    "QSSEQ": 1,
    "QSTESTCD": "ACTOT",
    "QSTEST": "ADAS-Cog (11) Total Score",
    "QSCAT": "ADAS-COG",
    "VISITNUM": 1,
    "VISIT": "BASELINE",
    "QSDTC": "2013-07-05",
    "QSBLFL": "Y",
    "QSORRES": "27",
    "QSSTRESC": "27",
    "QSSTRESN": 27
  },
  {
    "STUDYID": "CDISCPILOT01",
    "DOMAIN": "QS",
    "USUBJID": "01-708-010",
    "QSSEQ": 2,
    "QSTESTCD": "ACTOT",
    "QSTEST": "ADAS-Cog (11) Total Score",
    "QSCAT": "ADAS-COG",
    "VISITNUM": 3,
    "VISIT": "WEEK 4",
    "QSDTC": "2013-08-02",
    "QSBLFL": "",
    "QSORRES": "21",
    "QSSTRESC": "21",
    "QSSTRESN": 21
  },
  {
    "STUDYID": "CDISCPILOT01",
    "DOMAIN": "QS",
    "USUBJID": "01-708-010",
    "QSSEQ": 3,
    "QSTESTCD": "CIBIC",
    "QSTEST": "CIBIC+ Global Assessment",
    "QSCAT": "CIBIC+",
    "VISITNUM": 7,
    "VISIT": "WEEK 24",
    "QSDTC": "2013-12-20",
    "QSBLFL": "",
    "QSORRES": "MINIMAL IMPROVEMENT",
    "QSSTRESC": "3",
    "QSSTRESN": 3
  },
  {
    "STUDYID": "CDISCPILOT01",
    "DOMAIN": "QS",
    "USUBJID": "01-708-011",
    "QSSEQ": 1,
    "QSTESTCD": "ACTOT",
    "QSTEST": "ADAS-Cog (11) Total Score",
    "QSCAT": "ADAS-COG",
    "VISITNUM": 1,
    "VISIT": "BASELINE",
    "QSDTC": "2013-12-03",
    "QSBLFL": "Y",
    "QSORRES": "3",
    "QSSTRESC": "3",
    "QSSTRESN": 3
  },
  {
    "STUDYID": "CDISCPILOT01",
    "DOMAIN": "QS",
    "USUBJID": "01-708-011",
    "QSSEQ": 2,
    "QSTESTCD": "ACTOT",
    "QSTEST": "ADAS-Cog (11) Total Score",
    "QSCAT": "ADAS-COG",
    "VISITNUM": 3,
    "VISIT": "WEEK 4",
    "QSDTC": "2013-12-31",
    "QSBLFL": "",
    "QSORRES": "3",
    "QSSTRESC": "3",
    "QSSTRESN": 3
  },
  {
    "STUDYID": "CDISCPILOT01",
    "DOMAIN": "QS",
    "USUBJID": "01-708-011",
    "QSSEQ": 3,
    "QSTESTCD": "CIBIC",
    "QSTEST": "CIBIC+ Global Assessment",
    "QSCAT": "CIBIC+",
    "VISITNUM": 7,
    "VISIT": "WEEK 24",
    "QSDTC": "2014-05-20",
    "QSBLFL": "",
    "QSORRES": "NO CHANGE",
    "QSSTRESC": "4",
    "QSSTRESN": 4
  },
  {
    "STUDYID": "CDISCPILOT01",
    "DOMAIN": "QS",
    "USUBJID": "01-708-012",
    "QSSEQ": 1,
    "QSTESTCD": "ACTOT",
    "QSTEST": "ADAS-Cog (11) Total Score",
    "QSCAT": "ADAS-COG",
    "VISITNUM": 1,
    "VISIT": "BASELINE",
    "QSDTC": "2013-06-08",
    "QSBLFL": "Y",
    "QSORRES": "17",
    "QSSTRESC": "17",
    "QSSTRESN": 17
  },
  {
    "STUDYID": "CDISCPILOT01",
    "DOMAIN": "QS",
    "USUBJID": "01-708-012",
    "QSSEQ": 2,
    "QSTESTCD": "ACTOT",
    "QSTEST": "ADAS-Cog (11) Total Score",
    "QSCAT": "ADAS-COG",
    "VISITNUM": 3,
    "VISIT": "WEEK 4",
    "QSDTC": "2013-07-06",
    "QSBLFL": "",
    "QSORRES": "15",
    "QSSTRESC": "15",
    "QSSTRESN": 15
  },
  {
    "STUDYID": "CDISCPILOT01",
    "DOMAIN": "QS",
    "USUBJID": "01-708-012",
    "QSSEQ": 3,
    "QSTESTCD": "ACTOT",
    "QSTEST": "ADAS-Cog (11) Total Score",
    "QSCAT": "ADAS-COG",
    "VISITNUM": 4,
    "VISIT": "WEEK 8",
    "QSDTC": "2013-08-03",
    "QSBLFL": "",
    "QSORRES": "16",
    "QSSTRESC": "16",
    "QSSTRESN": 16
  },
  {
    "STUDYID": "CDISCPILOT01",
    "DOMAIN": "QS",
    "USUBJID": "01-708-012",
    "QSSEQ": 4,
    "QSTESTCD": "ACTOT",
    "QSTEST": "ADAS-Cog (11) Total Score",
    "QSCAT": "ADAS-COG",
    "VISITNUM": 5,
    "VISIT": "WEEK 12",
    "QSDTC": "2013-08-31",
    "QSBLFL": "",
    "QSORRES": "18",
    "QSSTRESC": "18",
    "QSSTRESN": 18
  },
  {
    "STUDYID": "CDISCPILOT01",
    "DOMAIN": "QS",
    "USUBJID": "01-708-012",
    "QSSEQ": 5,
    "QSTESTCD": "ACTOT",
    "QSTEST": "ADAS-Cog (11) Total Score",
    "QSCAT": "ADAS-COG",
    "VISITNUM": 7,
    "VISIT": "WEEK 24",
    "QSDTC": "2013-11-23",
    "QSBLFL": "",
    "QSORRES": "23",
    "QSSTRESC": "23",
    "QSSTRESN": 23
  },
  {
