[
  {
    "STUDYID": "KN868",
    "DOMAIN": "RS",
    "USUBJID": "KN868-0001-0001",
    "RSSEQ": 1,
    "RSTESTCD": "OVRLRESP",
    "RSTEST": "Overall Response",
    "RSCAT": "RECIST 1.1",
    "RSORRES": "SD",
    "RSSTRESC": "SD",
    "RSEVAL": "INVESTIGATOR",
    "VISITNUM": 1,
    "VISIT": "WEEK 9",
    "RSDTC": "2020-06-16",
    "RSDY": 63
  },
  {
    "STUDYID": "KN868",
    "DOMAIN": "RS",
    "USUBJID": "KN868-0001-0001",
    "RSSEQ": 2,
    "RSTESTCD": "OVRLRESP",
    "RSTEST": "Overall Response",
    "RSCAT": "RECIST 1.1",
    "RSORRES": "PR",
    "RSSTRESC": "PR",
    "RSEVAL": "INVESTIGATOR",
    "VISITNUM": 2,
    "VISIT": "WEEK 18",
    "RSDTC": "2020-08-15",
    "RSDY": 126
  },
  {
    "STUDYID": "KN868",
    "DOMAIN": "RS",
    "USUBJID": "KN868-0001-0001",
    "RSSEQ": 3,
    "RSTESTCD": "OVRLRESP",
    "RSTEST": "Overall Response",
    "RSCAT": "RECIST 1.1",
    "RSORRES": "CR",
    "RSSTRESC": "CR",
    "RSEVAL": "INVESTIGATOR",
    "VISITNUM": 3,
    "VISIT": "WEEK 27",
    "RSDTC": "2020-10-21",
    "RSDY": 189
  },
  {
    "STUDYID": "KN868",
    "DOMAIN": "RS",
    "USUBJID": "KN868-0001-0001",
    "RSSEQ": 4,
    "RSTESTCD": "OVRLRESP",
    "RSTEST": "Overall Response",
    "RSCAT": "RECIST 1.1",
    "RSORRES": "PR",
    "RSSTRESC": "PR",
    "RSEVAL": "INVESTIGATOR",
    "VISITNUM": 4,
    "VISIT": "WEEK 36",
    "RSDTC": "2020-12-18",
    "RSDY": 252
  },
  {
    "STUDYID": "KN868",
    "DOMAIN": "RS",
    "USUBJID": "KN868-0001-0001",
    "RSSEQ": 5,
    "RSTESTCD": "OVRLRESP",
    "RSTEST": "Overall Response",
    "RSCAT": "RECIST 1.1",
    "RSORRES": "CR",
    "RSSTRESC": "CR",
    "RSEVAL": "INVESTIGATOR",
    "VISITNUM": 5,
    "VISIT": "WEEK 45",
    "RSDTC": "2021-02-21",
    "RSDY": 315
  },
  {
    "STUDYID": "KN868",
    "DOMAIN": "RS",
    "USUBJID": "KN868-0001-0001",
    "RSSEQ": 6,
    "RSTESTCD": "OVRLRESP",
    "RSTEST": "Overall Response",
    "RSCAT": "RECIST 1.1",
    "RSORRES": "CR",
    "RSSTRESC": "CR",
    "RSEVAL": "INVESTIGATOR",
    "VISITNUM": 6,
    "VISIT": "WEEK 54",
    "RSDTC": "2021-04-28",
    "RSDY": 378
  },
  {
    "STUDYID": "KN868",
    "DOMAIN": "RS",
    "USUBJID": "KN868-0001-0001",
    "RSSEQ": 7,
    "RSTESTCD": "OVRLRESP",
    "RSTEST": "Overall Response",
    "RSCAT": "RECIST 1.1",
    "RSORRES": "PR",
    "RSSTRESC": "PR",
    "RSEVAL": "INVESTIGATOR",
    "VISITNUM": 7,
    "VISIT": "WEEK 63",
    "RSDTC": "2021-06-26",
    "RSDY": 441
  },
  {
    "STUDYID": "KN868",
    "DOMAIN": "RS",
    "USUBJID": "KN868-0001-0001",
    "RSSEQ": 8,
    "RSTESTCD": "OVRLRESP",
    "RSTEST": "Overall Response",
    "RSCAT": "RECIST 1.1",
    "RSORRES": "CR",
    "RSSTRESC": "CR",
    "RSEVAL": "INVESTIGATOR",
    "VISITNUM": 8,
    "VISIT": "WEEK 72",
    "RSDTC": "2021-08-30",
    "RSDY": 504
  },
  {
    "STUDYID": "KN868",
    "DOMAIN": "RS",
    "USUBJID": "KN868-0001-0001",
    "RSSEQ": 9,
    "RSTESTCD": "BESTRESP",
    "RSTEST": "Best Overall Response",
    "RSCAT": "RECIST 1.1",
    "RSORRES": "PR",
    "RSSTRESC": "PR",
    "RSEVAL": "INVESTIGATOR",
    "VISITNUM": 999,
    "VISIT": "BEST RESPONSE",
    "RSDTC": "2023-09-30"
  },
  {
    "STUDYID": "KN868",
    "DOMAIN": "RS",
    "USUBJID": "KN868-0001-0002",
    "RSSEQ": 1,
    "RSTESTCD": "OVRLRESP",
    "RSTEST": "Overall Response",
    "RSCAT": "RECIST 1.1",
    "RSORRES": "PD",
    "RSSTRESC": "PD",
    "RSEVAL": "INVESTIGATOR",
    "VISITNUM": 1,
    "VISIT": "WEEK 9",
    "RSDTC": "2020-08-09",
    "RSDY": 63
  },
  {
    "STUDYID": "KN868",
    "DOMAIN": "RS",
    "USUBJID": "KN868-0001-0002",
    "RSSEQ": 2,
    "RSTESTCD": "OVRLRESP",
    "RSTEST": "Overall Response",
    "RSCAT": "RECIST 1.1",
    "RSORRES": "PD",
    "RSSTRESC": "PD",
    "RSEVAL": "INVESTIGATOR",
    "VISITNUM": 2,
    "VISIT": "WEEK 18",
    "RSDTC": "2020-10-10",
    "RSDY": 126
  },
  {
    "STUDYID": "KN868",
    "DOMAIN": "RS",
    "USUBJID": "KN868-0001-0002",
    "RSSEQ": 3,
    "RSTESTCD": "OVRLRESP",
    "RSTEST": "Overall Response",
    "RSCAT": "RECIST 1.1",
    "RSORRES": "PD",
    "RSSTRESC": "PD",
    "RSEVAL": "INVESTIGATOR",
    "VISITNUM": 3,
    "VISIT": "WEEK 27",
    "RSDTC": "2020-12-10",
    "RSDY": 189
  },
  {
    "STUDYID": "KN868",
    "DOMAIN": "RS",
    "USUBJID": "KN868-0001-0002",
    "RSSEQ": 4,
    "RSTESTCD": "OVRLRESP",
    "RSTEST": "Overall Response",
    "RSCAT": "RECIST 1.1",
    "RSORRES": "PD",
    "RSSTRESC": "PD",
    "RSEVAL": "INVESTIGATOR",
    "VISITNUM": 4,
    "VISIT": "WEEK 36",
    "RSDTC": "2021-02-11",
    "RSDY": 252
  },
  {
    "STUDYID": "KN868",
    "DOMAIN": "RS",
    "USUBJID": "KN868-0001-0002",
    "RSSEQ": 5,
    "RSTESTCD": "OVRLRESP",
    "RSTEST": "Overall Response",
    "RSCAT": "RECIST 1.1",
    "RSORRES": "PD",
    "RSSTRESC": "PD",
    "RSEVAL": "INVESTIGATOR",
    "VISITNUM": 5,
    "VISIT": "WEEK 45",
    "RSDTC": "2021-04-18",
    "RSDY": 315
  },
  {
    "STUDYID": "KN868",
    "DOMAIN": "RS",
    "USUBJID": "KN868-0001-0002",
    "RSSEQ": 6,
    "RSTESTCD": "OVRLRESP",
    "RSTEST": "Overall Response",
    "RSCAT": "RECIST 1.1",
    "RSORRES": "PD",
    "RSSTRESC": "PD",
    "RSEVAL": "INVESTIGATOR",
    "VISITNUM": 6,
    "VISIT": "WEEK 54",
    "RSDTC": "2021-06-22",
    "RSDY": 378
  },
  {
    "STUDYID": "KN868",
    "DOMAIN": "RS",
    "USUBJID": "KN868-0001-0002",
    "RSSEQ": 7,
    "RSTESTCD": "OVRLRESP",
    "RSTEST": "Overall Response",
    "RSCAT": "RECIST 1.1",
    "RSORRES": "PD",
    "RSSTRESC": "PD",
    "RSEVAL": "INVESTIGATOR",
    "VISITNUM": 7,
    "VISIT": "WEEK 63",
    "RSDTC": "2021-08-24",
    "RSDY": 441
  },
  {
    "STUDYID": "KN868",
    "DOMAIN": "RS",
    "USUBJID": "KN868-0001-0002",
    "RSSEQ": 8,
    "RSTESTCD": "OVRLRESP",
    "RSTEST": "Overall Response",
    "RSCAT": "RECIST 1.1",
    "RSORRES": "PD",
    "RSSTRESC": "PD",
    "RSEVAL": "INVESTIGATOR",
    "VISITNUM": 8,
    "VISIT": "WEEK 72",
    "RSDTC": "2021-10-22",
    "RSDY": 504
  },
  {
    "STUDYID": "KN868",
    "DOMAIN": "RS",
    "USUBJID": "KN868-0001-0002",
    "RSSEQ": 9,
    "RSTESTCD": "BESTRESP",
    "RSTEST": "Best Overall Response",
    "RSCAT": "RECIST 1.1",
    "RSORRES": "PD",
    "RSSTRESC": "PD",
    "RSEVAL": "INVESTIGATOR",
    "VISITNUM": 999,
    "VISIT": "BEST RESPONSE",
    "RSDTC": "2023-09-30"
  },
  {
    "STUDYID": "KN868",
    "DOMAIN": "RS",
    "USUBJID": "KN868-0001-0003",
    "RSSEQ": 1,
    "RSTESTCD": "OVRLRESP",
    "RSTEST": "Overall Response",
    "RSCAT": "RECIST 1.1",
    "RSORRES": "PR",
    "RSSTRESC": "PR",
    "RSEVAL": "INVESTIGATOR",
    "VISITNUM": 1,
    "VISIT": "WEEK 9",
    "RSDTC": "2022-03-21",
    "RSDY": 63
  },
  {
    "STUDYID": "KN868",
    "DOMAIN": "RS",
    "USUBJID": "KN868-0001-0003",
    "RSSEQ": 2,
    "RSTESTCD": "OVRLRESP",
    "RSTEST": "Overall Response",
    "RSCAT": "RECIST 1.1",
    "RSORRES": "PR",
    "RSSTRESC": "PR",
    "RSEVAL": "INVESTIGATOR",
    "VISITNUM": 2,
    "VISIT": "WEEK 18",
    "RSDTC": "2022-05-28",
    "RSDY": 126
  },
  {
    "STUDYID": "KN868",
    "DOMAIN": "RS",
    "USUBJID": "KN868-0001-0003",
    "RSSEQ": 3,
    "RSTESTCD": "OVRLRESP",
    "RSTEST": "Overall Response",
    "RSCAT": "RECIST 1.1",
    "RSORRES": "CR",
    "RSSTRESC": "CR",
    "RSEVAL": "INVESTIGATOR",
    "VISITNUM": 3,
    "VISIT": "WEEK 27",
    "RSDTC": "2022-07-27",
    "RSDY": 189
  },
  {
    "STUDYID": "KN868",
    "DOMAIN": "RS",
    "USUBJID": "KN868-0001-0003",
    "RSSEQ": 4,
    "RSTESTCD": "OVRLRESP",
    "RSTEST": "Overall Response",
    "RSCAT": "RECIST 1.1",
    "RSORRES": "CR",
    "RSSTRESC": "CR",
    "RSEVAL": "INVESTIGATOR",
    "VISITNUM": 4,
    "VISIT": "WEEK 36",
    "RSDTC": "2022-09-27",
    "RSDY": 252
  },
  {
    "STUDYID": "KN868",
    "DOMAIN": "RS",
    "USUBJID": "KN868-0001-0003",
    "RSSEQ": 5,
    "RSTESTCD": "OVRLRESP",
    "RSTEST": "Overall Response",
    "RSCAT": "RECIST 1.1",
    "RSORRES": "CR",
    "RSSTRESC": "CR",
    "RSEVAL": "INVESTIGATOR",
    "VISITNUM": 5,
    "VISIT": "WEEK 45",
    "RSDTC": "2022-12-02",
    "RSDY": 315
  },
  {
    "STUDYID": "KN868",
    "DOMAIN": "RS",
    "USUBJID": "KN868-0001-0003",
    "RSSEQ": 6,
    "RSTESTCD": "OVRLRESP",
    "RSTEST": "Overall Response",
    "RSCAT": "RECIST 1.1",
    "RSORRES": "CR",
    "RSSTRESC": "CR",
    "RSEVAL": "INVESTIGATOR",
    "VISITNUM": 6,
    "VISIT": "WEEK 54",
    "RSDTC": "2023-02-03",
    "RSDY": 378
  },
  {
    "STUDYID": "KN868",
    "DOMAIN": "RS",
    "USUBJID": "KN868-0001-0003",
    "RSSEQ": 7,
    "RSTESTCD": "OVRLRESP",
    "RSTEST": "Overall Response",
    "RSCAT": "RECIST 1.1",
    "RSORRES": "CR",
    "RSSTRESC": "CR",
    "RSEVAL": "INVESTIGATOR",
    "VISITNUM": 7,
    "VISIT": "WEEK 63",
    "RSDTC": "2023-04-05",
    "RSDY": 441
  },
  {
    "STUDYID": "KN868",
    "DOMAIN": "RS",
    "USUBJID": "KN868-0001-0003",
    "RSSEQ": 8,
    "RSTESTCD": "OVRLRESP",
    "RSTEST": "Overall Response",
    "RSCAT": "RECIST 1.1",
    "RSORRES": "CR",
    "RSSTRESC": "CR",
    "RSEVAL": "INVESTIGATOR",
    "VISITNUM": 8,
    "VISIT": "WEEK 72",
    "RSDTC": "2023-06-10",
    "RSDY": 504
  },
  {
    "STUDYID": "KN868",
    "DOMAIN": "RS",
    "USUBJID": "KN868-0001-0003",
    "RSSEQ": 9,
    "RSTESTCD": "BESTRESP",
    "RSTEST": "Best Overall Response",
    "RSCAT": "RECIST 1.1",
    "RSORRES": "CR",
    "RSSTRESC": "CR",
    "RSEVAL": "INVESTIGATOR",
    "VISITNUM": 999,
    "VISIT": "BEST RESPONSE",
    "RSDTC": "2023-09-30"
  },
  {
    "STUDYID": "KN868",
    "DOMAIN": "RS",
    "USUBJID": "KN868-0001-0004",
    "RSSEQ": 1,
    "RSTESTCD": "OVRLRESP",
    "RSTEST": "Overall Response",
    "RSCAT": "RECIST 1.1",
    "RSORRES": "SD",
    "RSSTRESC": "SD",
    "RSEVAL": "INVESTIGATOR",
    "VISITNUM": 1,
    "VISIT": "WEEK 9",
    "RSDTC": "2021-11-14",
    "RSDY": 63
  },
  {
    "STUDYID": "KN868",
    "DOMAIN": "RS",
    "USUBJID": "KN868-0001-0004",
    "RSSEQ": 2,
    "RSTESTCD": "OVRLRESP",
    "RSTEST": "Overall Response",
    "RSCAT": "RECIST 1.1",
    "RSORRES": "SD",
    "RSSTRESC": "SD",
    "RSEVAL": "INVESTIGATOR",
    "VISITNUM": 2,
    "VISIT": "WEEK 18",
    "RSDTC": "2022-01-21",
    "RSDY": 126
  },
  {
    "STUDYID": "KN868",
    "DOMAIN": "RS",
    "USUBJID": "KN868-0001-0004",
    "RSSEQ": 3,
    "RSTESTCD": "OVRLRESP",
    "RSTEST": "Overall Response",
    "RSCAT": "RECIST 1.1",
    "RSORRES": "SD",
    "RSSTRESC": "SD",
    "RSEVAL": "INVESTIGATOR",
    "VISITNUM": 3,
    "VISIT": "WEEK 27",
    "RSDTC": "2022-03-25",
    "RSDY": 189
  },
  {
    "STUDYID": "KN868",
    "DOMAIN": "RS",
    "USUBJID": "KN868-0001-0004",
    "RSSEQ": 4,
    "RSTESTCD": "OVRLRESP",
    "RSTEST": "Overall Response",
    "RSCAT": "RECIST 1.1",
    "RSORRES": "SD",
    "RSSTRESC": "SD",
    "RSEVAL": "INVESTIGATOR",
    "VISITNUM": 4,
    "VISIT": "WEEK 36",
    "RSDTC": "2022-05-27",
    "RSDY": 252
  },
  {
    "STUDYID": "KN868",
    "DOMAIN": "RS",
    "USUBJID": "KN868-0001-0004",
    "RSSEQ": 5,
    "RSTESTCD": "OVRLRESP",
    "RSTEST": "Overall Response",
    "RSCAT": "RECIST 1.1",
    "RSORRES": "SD",
    "RSSTRESC": "SD",
    "RSEVAL": "INVESTIGATOR",
    "VISITNUM": 5,
    "VISIT": "WEEK 45",
    "RSDTC": "2022-07-29",
    "RSDY": 315
  },
  {
    "STUDYID": "KN868",
    "DOMAIN": "RS",
    "USUBJID": "KN868-0001-0004",
    "RSSEQ": 6,
    "RSTESTCD": "OVRLRESP",
    "RSTEST": "Overall Response",
    "RSCAT": "RECIST 1.1",
    "RSORRES": "SD",
    "RSSTRESC": "SD",
    "RSEVAL": "INVESTIGATOR",
    "VISITNUM": 6,
    "VISIT": "WEEK 54",
    "RSDTC": "2022-09-30",
    "RSDY": 378
  },
  {
    "STUDYID": "KN868",
    "DOMAIN": "RS",
    "USUBJID": "KN868-0001-0004",
    "RSSEQ": 7,
    "RSTESTCD": "OVRLRESP",
    "RSTEST": "Overall Response",
    "RSCAT": "RECIST 1.1",
    "RSORRES": "SD",
    "RSSTRESC": "SD",
    "RSEVAL": "INVESTIGATOR",
    "VISITNUM": 7,
    "VISIT": "WEEK 63",
    "RSDTC": "2022-11-29",
    "RSDY": 441
  },
  {
    "STUDYID": "KN868",
    "DOMAIN": "RS",
    "USUBJID": "KN868-0001-0004",
    "RSSEQ": 8,
    "RSTESTCD": "OVRLRESP",
    "RSTEST": "Overall Response",
    "RSCAT": "RECIST 1.1",
    "RSORRES": "SD",
    "RSSTRESC": "SD",
    "RSEVAL": "INVESTIGATOR",
    "VISITNUM": 8,
    "VISIT": "WEEK 72",
    "RSDTC": "2023-01-29",
    "RSDY": 504
  },
  {
    "STUDYID": "KN868",
    "DOMAIN": "RS",
    "USUBJID": "KN868-0001-0004",
    "RSSEQ": 9,
    "RSTESTCD": "BESTRESP",
    "RSTEST": "Best Overall Response",
    "RSCAT": "RECIST 1.1",
    "RSORRES": "SD",
    "RSSTRESC": "SD",
    "RSEVAL": "INVESTIGATOR",
    "VISITNUM": 999,
    "VISIT": "BEST RESPONSE",
    "RSDTC": "2023-09-30"
  },
  {
    "STUDYID": "KN868",
    "DOMAIN": "RS",
    "USUBJID": "KN868-0001-0005",
    "RSSEQ": 1,
    "RSTESTCD": "OVRLRESP",
    "RSTEST": "Overall Response",
    "RSCAT": "RECIST 1.1",
    "RSORRES": "SD",
    "RSSTRESC": "SD",
    "RSEVAL": "INVESTIGATOR",
    "VISITNUM": 1,
    "VISIT": "WEEK 9",
    "RSDTC": "2021-02-23",
    "RSDY": 63
  },
  {
    "STUDYID": "KN868",
    "DOMAIN": "RS",
    "USUBJID": "KN868-0001-0005",
    "RSSEQ": 2,
    "RSTESTCD": "OVRLRESP",
    "RSTEST": "Overall Response",
    "RSCAT": "RECIST 1.1",
    "RSORRES": "PR",
    "RSSTRESC": "PR",
    "RSEVAL": "INVESTIGATOR",
    "VISITNUM": 2,
    "VISIT": "WEEK 18",
    "RSDTC": "2021-04-25",
    "RSDY": 126
  },
  {
    "STUDYID": "KN868",
    "DOMAIN": "RS",
    "USUBJID": "KN868-0001-0005",
    "RSSEQ": 3,
    "RSTESTCD": "OVRLRESP",
    "RSTEST": "Overall Response",
    "RSCAT": "RECIST 1.1",
    "RSORRES": "PR",
    "RSSTRESC": "PR",
    "RSEVAL": "INVESTIGATOR",
    "VISITNUM": 3,
    "VISIT": "WEEK 27",
    "RSDTC": "2021-06-29",
    "RSDY": 189
  },
  {
    "STUDYID": "KN868",
    "DOMAIN": "RS",
    "USUBJID": "KN868-0001-0005",
    "RSSEQ": 4,
    "RSTESTCD": "OVRLRESP",
    "RSTEST": "Overall Response",
    "RSCAT": "RECIST 1.1",
    "RSORRES": "PR",
    "RSSTRESC": "PR",
    "RSEVAL": "INVESTIGATOR",
    "VISITNUM": 4,
    "VISIT": "WEEK 36",
    "RSDTC": "2021-08-31",
    "RSDY": 252
  },
  {
    "STUDYID": "KN868",
    "DOMAIN": "RS",
    "USUBJID": "KN868-0001-0005",
    "RSSEQ": 5,
    "RSTESTCD": "OVRLRESP",
    "RSTEST": "Overall Response",
    "RSCAT": "RECIST 1.1",
    "RSORRES": "CR",
    "RSSTRESC": "CR",
    "RSEVAL": "INVESTIGATOR",
    "VISITNUM": 5,
    "VISIT": "WEEK 45",
    "RSDTC": "2021-10-29",
    "RSDY": 315
  },
  {
    "STUDYID": "KN868",
    "DOMAIN": "RS",
    "USUBJID": "KN868-0001-0005",
    "RSSEQ": 6,
    "RSTESTCD": "OVRLRESP",
    "RSTEST": "Overall Response",
    "RSCAT": "RECIST 1.1",
    "RSORRES": "PR",
    "RSSTRESC": "PR",
    "RSEVAL": "INVESTIGATOR",
    "VISITNUM": 6,
    "VISIT": "WEEK 54",
    "RSDTC": "2022-01-05",
    "RSDY": 378
  },
  {
    "STUDYID": "KN868",
    "DOMAIN": "RS",
    "USUBJID": "KN868-0001-0005",
    "RSSEQ": 7,
    "RSTESTCD": "OVRLRESP",
    "RSTEST": "Overall Response",
    "RSCAT": "RECIST 1.1",
    "RSORRES": "PR",
    "RSSTRESC": "PR",
    "RSEVAL": "INVESTIGATOR",
    "VISITNUM": 7,
    "VISIT": "WEEK 63",
    "RSDTC": "2022-03-04",
    "RSDY": 441
  },
  {
    "STUDYID": "KN868",
    "DOMAIN": "RS",
    "USUBJID": "KN868-0001-0005",
    "RSSEQ": 8,
    "RSTESTCD": "OVRLRESP",
    "RSTEST": "Overall Response",
    "RSCAT": "RECIST 1.1",
    "RSORRES": "PR",
    "RSSTRESC": "PR",
    "RSEVAL": "INVESTIGATOR",
    "VISITNUM": 8,
    "VISIT": "WEEK 72",
    "RSDTC": "2022-05-08",
    "RSDY": 504
  },
  {
    "STUDYID": "KN868",
    "DOMAIN": "RS",
    "USUBJID": "KN868-0001-0005",
    "RSSEQ": 9,
    "RSTESTCD": "BESTRESP",
    "RSTEST": "Best Overall Response",
    "RSCAT": "RECIST 1.1",
    "RSORRES": "PR",
    "RSSTRESC": "PR",
    "RSEVAL": "INVESTIGATOR",
    "VISITNUM": 999,
    "VISIT": "BEST RESPONSE",
    "RSDTC": "2023-09-30"
  },
  {
    "STUDYID": "KN868",
    "DOMAIN": "RS",
    "USUBJID": "KN868-0001-0006",
    "RSSEQ": 1,
    "RSTESTCD": "OVRLRESP",
    "RSTEST": "Overall Response",
    "RSCAT": "RECIST 1.1",
    "RSORRES": "PR",
    "RSSTRESC": "PR",
    "RSEVAL": "INVESTIGATOR",
    "VISITNUM": 1,
    "VISIT": "WEEK 9",
    "RSDTC": "2022-04-11",
    "RSDY": 63
  },
  {
    "STUDYID": "KN868",
    "DOMAIN": "RS",
    "USUBJID": "KN868-0001-0006",
    "RSSEQ": 2,
    "RSTESTCD": "OVRLRESP",
    "RSTEST": "Overall Response",
    "RSCAT": "RECIST 1.1",
    "RSORRES": "PR",
    "RSSTRESC": "PR",
    "RSEVAL": "INVESTIGATOR",
    "VISITNUM": 2,
    "VISIT": "WEEK 18",
    "RSDTC": "2022-06-14",
    "RSDY": 126
  },
  {
    "STUDYID": "KN868",
    "DOMAIN": "RS",
    "USUBJID": "KN868-0001-0006",
    "RSSEQ": 3,
    "RSTESTCD": "OVRLRESP",
    "RSTEST": "Overall Response",
    "RSCAT": "RECIST 1.1",
    "RSORRES": "CR",
    "RSSTRESC": "CR",
    "RSEVAL": "INVESTIGATOR",
    "VISITNUM": 3,
    "VISIT": "WEEK 27",
    "RSDTC": "2022-08-13",
    "RSDY": 189
  },
  {
    "STUDYID": "KN868",
    "DOMAIN": "RS",
    "USUBJID": "KN868-0001-0006",
    "RSSEQ": 4,
    "RSTESTCD": "OVRLRESP",
    "RSTEST": "Overall Response",
    "RSCAT": "RECIST 1.1",
    "RSORRES": "PR",
    "RSSTRESC": "PR",
    "RSEVAL": "INVESTIGATOR",
    "VISITNUM": 4,
    "VISIT": "WEEK 36",
    "RSDTC": "2022-10-20",
    "RSDY": 252
  },
  {
    "STUDYID": "KN868",
    "DOMAIN": "RS",
    "USUBJID": "KN868-0001-0006",
    "RSSEQ": 5,
    "RSTESTCD": "OVRLRESP",
    "RSTEST": "Overall Response",
    "RSCAT": "RECIST 1.1",
    "RSORRES": "PR",
    "RSSTRESC": "PR",
    "RSEVAL": "INVESTIGATOR",
    "VISITNUM": 5,
    "VISIT": "WEEK 45",
    "RSDTC": "2022-12-21",
    "RSDY": 315
  },
  {
    "STUDYID": "KN868",
    "DOMAIN": "RS",
    "USUBJID": "KN868-0001-0006",
    "RSSEQ": 6,
    "RSTESTCD": "OVRLRESP",
    "RSTEST": "Overall Response",
    "RSCAT": "RECIST 1.1",
    "RSORRES": "PR",
    "RSSTRESC": "PR",
    "RSEVAL": "INVESTIGATOR",
    "VISITNUM": 6,
    "VISIT": "WEEK 54",
    "RSDTC": "2023-02-18",
    "RSDY": 378
  },
  {
    "STUDYID": "KN868",
    "DOMAIN": "RS",
    "USUBJID": "KN868-0001-0006",
    "RSSEQ": 7,
    "RSTESTCD": "OVRLRESP",
    "RSTEST": "Overall Response",
    "RSCAT": "RECIST 1.1",
    "RSORRES": "PR",
    "RSSTRESC": "PR",
    "RSEVAL": "INVESTIGATOR",
    "VISITNUM": 7,
    "VISIT": "WEEK 63",
    "RSDTC": "2023-04-27",
    "RSDY": 441
  },
  {
    "STUDYID": "KN868",
    "DOMAIN": "RS",
    "USUBJID": "KN868-0001-0006",
    "RSSEQ": 8,
    "RSTESTCD": "OVRLRESP",
    "RSTEST": "Overall Response",
    "RSCAT": "RECIST 1.1",
    "RSORRES": "PR",
    "RSSTRESC": "PR",
    "RSEVAL": "INVESTIGATOR",
    "VISITNUM": 8,
    "VISIT": "WEEK 72",
    "RSDTC": "2023-06-28",
    "RSDY": 504
  },
  {
    "STUDYID": "KN868",
    "DOMAIN": "RS",
    "USUBJID": "KN868-0001-0006",
    "RSSEQ": 9,
    "RSTESTCD": "BESTRESP",
    "RSTEST": "Best Overall Response",
    "RSCAT": "RECIST 1.1",
    "RSORRES": "PR",
    "RSSTRESC": "PR",
    "RSEVAL": "INVESTIGATOR",
    "VISITNUM": 999,
    "VISIT": "BEST RESPONSE",
    "RSDTC": "2023-09-30"
  },
  {
    "STUDYID": "KN868",
    "DOMAIN": "RS",
    "USUBJID": "KN868-0001-0007",
    "RSSEQ": 1,
    "RSTESTCD": "OVRLRESP",
    "RSTEST": "Overall Response",
    "RSCAT": "RECIST 1.1",
    "RSORRES": "PR",
    "RSSTRESC": "PR",
    "RSEVAL": "INVESTIGATOR",
    "VISITNUM": 1,
    "VISIT": "WEEK 9",
    "RSDTC": "2020-09-17",
    "RSDY": 63
  },
  {
    "STUDYID": "KN868",
    "DOMAIN": "RS",
    "USUBJID": "KN868-0001-0007",
    "RSSEQ": 2,
    "RSTESTCD": "OVRLRESP",
    "RSTEST": "Overall Response",
    "RSCAT": "RECIST 1.1",
    "RSORRES": "PR",
    "RSSTRESC": "PR",
    "RSEVAL": "INVESTIGATOR",
    "VISITNUM": 2,
    "VISIT": "WEEK 18",
    "RSDTC": "2020-11-21",
    "RSDY": 126
  },
  {
    "STUDYID": "KN868",
    "DOMAIN": "RS",
    "USUBJID": "KN868-0001-0007",
    "RSSEQ": 3,
    "RSTESTCD": "OVRLRESP",
    "RSTEST": "Overall Response",
    "RSCAT": "RECIST 1.1",
    "RSORRES": "CR",
    "RSSTRESC": "CR",
    "RSEVAL": "INVESTIGATOR",
    "VISITNUM": 3,
    "VISIT": "WEEK 27",
    "RSDTC": "2021-01-26",
    "RSDY": 189
  },
  {
    "STUDYID": "KN868",
    "DOMAIN": "RS",
    "USUBJID": "KN868-0001-0007",
    "RSSEQ": 4,
    "RSTESTCD": "OVRLRESP",
    "RSTEST": "Overall Response",
    "RSCAT": "RECIST 1.1",
    "RSORRES": "CR",
    "RSSTRESC": "CR",
    "RSEVAL": "INVESTIGATOR",
    "VISITNUM": 4,
    "VISIT": "WEEK 36",
    "RSDTC": "2021-03-27",
    "RSDY": 252
  },
  {
    "STUDYID": "KN868",
    "DOMAIN": "RS",
    "USUBJID": "KN868-0001-0007",
    "RSSEQ": 5,
    "RSTESTCD": "OVRLRESP",
    "RSTEST": "Overall Response",
    "RSCAT": "RECIST 1.1",
    "RSORRES": "CR",
    "RSSTRESC": "CR",
    "RSEVAL": "INVESTIGATOR",
    "VISITNUM": 5,
    "VISIT": "WEEK 45",
    "RSDTC": "2021-05-29",
    "RSDY": 315
  },
  {
    "STUDYID": "KN868",
    "DOMAIN": "RS",
    "USUBJID": "KN868-0001-0007",
    "RSSEQ": 6,
    "RSTESTCD": "OVRLRESP",
    "RSTEST": "Overall Response",
    "RSCAT": "RECIST 1.1",
    "RSORRES": "CR",
    "RSSTRESC": "CR",
    "RSEVAL": "INVESTIGATOR",
    "VISITNUM": 6,
    "VISIT": "WEEK 54",
    "RSDTC": "2021-08-01",
    "RSDY": 378
  },
  {
    "STUDYID": "KN868",
    "DOMAIN": "RS",
    "USUBJID": "KN868-0001-0007",
    "RSSEQ": 7,
    "RSTESTCD": "OVRLRESP",
    "RSTEST": "Overall Response",
    "RSCAT": "RECIST 1.1",
    "RSORRES": "CR",
    "RSSTRESC": "CR",
    "RSEVAL": "INVESTIGATOR",
    "VISITNUM": 7,
    "VISIT": "WEEK 63",
    "RSDTC": "2021-09-29",
    "RSDY": 441
  },
  {
    "STUDYID": "KN868",
    "DOMAIN": "RS",
    "USUBJID": "KN868-0001-0007",
    "RSSEQ": 8,
    "RSTESTCD": "OVRLRESP",
    "RSTEST": "Overall Response",
    "RSCAT": "RECIST 1.1",
    "RSORRES": "CR",
    "RSSTRESC": "CR",
    "RSEVAL": "INVESTIGATOR",
    "VISITNUM": 8,
    "VISIT": "WEEK 72",
    "RSDTC": "2021-12-02",
    "RSDY": 504
  },
  {
    "STUDYID": "KN868",
    "DOMAIN": "RS",
    "USUBJID": "KN868-0001-0007",
    "RSSEQ": 9,
    "RSTESTCD": "BESTRESP",
    "RSTEST": "Best Overall Response",
    "RSCAT": "RECIST 1.1",
    "RSORRES": "CR",
    "RSSTRESC": "CR",
    "RSEVAL": "INVESTIGATOR",
    "VISITNUM": 999,
    "VISIT": "BEST RESPONSE",
    "RSDTC": "2023-09-30"
  },
  {
    "STUDYID": "KN868",
    "DOMAIN": "RS",
    "USUBJID": "KN868-0001-0008",
    "RSSEQ": 1,
    "RSTESTCD": "OVRLRESP",
    "RSTEST": "Overall Response",
    "RSCAT": "RECIST 1.1",
    "RSORRES": "PR",
    "RSSTRESC": "PR",
    "RSEVAL": "INVESTIGATOR",
    "VISITNUM": 1,
    "VISIT": "WEEK 9",
    "RSDTC": "2022-03-09",
    "RSDY": 63
  },
  {
    "STUDYID": "KN868",
    "DOMAIN": "RS",
    "USUBJID": "KN868-0001-0008",
    "RSSEQ": 2,
    "RSTESTCD": "OVRLRESP",
    "RSTEST": "Overall Response",
    "RSCAT": "RECIST 1.1",
    "RSORRES": "CR",
    "RSSTRESC": "CR",
    "RSEVAL": "INVESTIGATOR",
    "VISITNUM": 2,
    "VISIT": "WEEK 18",
    "RSDTC": "2022-05-15",
    "RSDY": 126
  },
  {
    "STUDYID": "KN868",
    "DOMAIN": "RS",
    "USUBJID": "KN868-0001-0008",
    "RSSEQ": 3,
    "RSTESTCD": "OVRLRESP",
    "RSTEST": "Overall Response",
    "RSCAT": "RECIST 1.1",
    "RSORRES": "CR",
    "RSSTRESC": "CR",
    "RSEVAL": "INVESTIGATOR",
    "VISITNUM": 3,
    "VISIT": "WEEK 27",
    "RSDTC": "2022-07-14",
    "RSDY": 189
  },
  {
    "STUDYID": "KN868",
    "DOMAIN": "RS",
    "USUBJID": "KN868-0001-0008",
    "RSSEQ": 4,
    "RSTESTCD": "OVRLRESP",
    "RSTEST": "Overall Response",
    "RSCAT": "RECIST 1.1",
    "RSORRES": "CR",
    "RSSTRESC": "CR",
    "RSEVAL": "INVESTIGATOR",
    "VISITNUM": 4,
    "VISIT": "WEEK 36",
    "RSDTC": "2022-09-14",
    "RSDY": 252
  },
  {
    "STUDYID": "KN868",
    "DOMAIN": "RS",
    "USUBJID": "KN868-0001-0008",
    "RSSEQ": 5,
    "RSTESTCD": "OVRLRESP",
    "RSTEST": "Overall Response",
    "RSCAT": "RECIST 1.1",
    "RSORRES": "CR",
    "RSSTRESC": "CR",
    "RSEVAL": "INVESTIGATOR",
    "VISITNUM": 5,
    "VISIT": "WEEK 45",
    "RSDTC": "2022-11-17",
    "RSDY": 315
  },
  {
    "STUDYID": "KN868",
    "DOMAIN": "RS",
    "USUBJID": "KN868-0001-0008",
    "RSSEQ": 6,
    "RSTESTCD": "OVRLRESP",
    "RSTEST": "Overall Response",
    "RSCAT": "RECIST 1.1",
    "RSORRES": "CR",
    "RSSTRESC": "CR",
    "RSEVAL": "INVESTIGATOR",
    "VISITNUM": 6,
    "VISIT": "WEEK 54",
    "RSDTC": "2023-01-24",
    "RSDY": 378
  },
  {
    "STUDYID": "KN868",
    "DOMAIN": "RS",
    "USUBJID": "KN868-0001-0008",
    "RSSEQ": 7,
    "RSTESTCD": "OVRLRESP",
    "RSTEST": "Overall Response",
    "RSCAT": "RECIST 1.1",
    "RSORRES": "CR",
    "RSSTRESC": "CR",
    "RSEVAL": "INVESTIGATOR",
    "VISITNUM": 7,
    "VISIT": "WEEK 63",
    "RSDTC": "2023-03-27",
    "RSDY": 441
  },
  {
    "STUDYID": "KN868",
    "DOMAIN": "RS",
    "USUBJID": "KN868-0001-0008",
    "RSSEQ": 8,
    "RSTESTCD": "OVRLRESP",
    "RSTEST": "Overall Response",
    "RSCAT": "RECIST 1.1",
    "RSORRES": "CR",
    "RSSTRESC": "CR",
    "RSEVAL": "INVESTIGATOR",
    "VISITNUM": 8,
    "VISIT": "WEEK 72",
    "RSDTC": "2023-05-24",
    "RSDY": 504
  },
  {
    "STUDYID": "KN868",
    "DOMAIN": "RS",
    "USUBJID": "KN868-0001-0008",
    "RSSEQ": 9,
    "RSTESTCD": "BESTRESP",
    "RSTEST": "Best Overall Response",
    "RSCAT": "RECIST 1.1",
    "RSORRES": "CR",
    "RSSTRESC": "CR",
    "RSEVAL": "INVESTIGATOR",
    "VISITNUM": 999,
    "VISIT": "BEST RESPONSE",
    "RSDTC": "2023-09-30"
  },
  {
    "STUDYID": "KN868",
    "DOMAIN": "RS",
    "USUBJID": "KN868-0001-0009",
    "RSSEQ": 1,
    "RSTESTCD": "OVRLRESP",
    "RSTEST": "Overall Response",
    "RSCAT": "RECIST 1.1",
    "RSORRES": "SD",
    "RSSTRESC": "SD",
    "RSEVAL": "INVESTIGATOR",
    "VISITNUM": 1,
    "VISIT": "WEEK 9",
    "RSDTC": "2021-09-02",
    "RSDY": 63
  },
  {
    "STUDYID": "KN868",
    "DOMAIN": "RS",
    "USUBJID": "KN868-0001-0009",
    "RSSEQ": 2,
    "RSTESTCD": "OVRLRESP",
    "RSTEST": "Overall Response",
    "RSCAT": "RECIST 1.1",
    "RSORRES": "PR",
    "RSSTRESC": "PR",
    "RSEVAL": "INVESTIGATOR",
    "VISITNUM": 2,
    "VISIT": "WEEK 18",
    "RSDTC": "2021-11-04",
    "RSDY": 126
  },
  {
    "STUDYID": "KN868",
    "DOMAIN": "RS",
    "USUBJID": "KN868-0001-0009",
    "RSSEQ": 3,
    "RSTESTCD": "OVRLRESP",
    "RSTEST": "Overall Response",
    "RSCAT": "RECIST 1.1",
    "RSORRES": "CR",
    "RSSTRESC": "CR",
    "RSEVAL": "INVESTIGATOR",
    "VISITNUM": 3,
    "VISIT": "WEEK 27",
    "RSDTC": "2022-01-09",
    "RSDY": 189
  },
  {
    "STUDYID": "KN868",
    "DOMAIN": "RS",
    "USUBJID": "KN868-0001-0009",
    "RSSEQ": 4,
    "RSTESTCD": "OVRLRESP",
    "RSTEST": "Overall Response",
    "RSCAT": "RECIST 1.1",
    "RSORRES": "CR",
    "RSSTRESC": "CR",
    "RSEVAL": "INVESTIGATOR",
    "VISITNUM": 4,
    "VISIT": "WEEK 36",
    "RSDTC": "2022-03-10",
    "RSDY": 252
  },
  {
    "STUDYID": "KN868",
    "DOMAIN": "RS",
    "USUBJID": "KN868-0001-0009",
    "RSSEQ": 5,
    "RSTESTCD": "OVRLRESP",
    "RSTEST": "Overall Response",
    "RSCAT": "RECIST 1.1",
    "RSORRES": "CR",
    "RSSTRESC": "CR",
    "RSEVAL": "INVESTIGATOR",
    "VISITNUM": 5,
    "VISIT": "WEEK 45",
    "RSDTC": "2022-05-15",
    "RSDY": 315
  },
  {
    "STUDYID": "KN868",
    "DOMAIN": "RS",
    "USUBJID": "KN868-0001-0009",
    "RSSEQ": 6,
    "RSTESTCD": "OVRLRESP",
    "RSTEST": "Overall Response",
    "RSCAT": "RECIST 1.1",
    "RSORRES": "CR",
    "RSSTRESC": "CR",
    "RSEVAL": "INVESTIGATOR",
    "VISITNUM": 6,
    "VISIT": "WEEK 54",
    "RSDTC": "2022-07-17",
    "RSDY": 378
  },
  {
    "STUDYID": "KN868",
    "DOMAIN": "RS",
    "USUBJID": "KN868-0001-0009",
    "RSSEQ": 7,
    "RSTESTCD": "OVRLRESP",
    "RSTEST": "Overall Response",
    "RSCAT": "RECIST 1.1",
    "RSORRES": "CR",
    "RSSTRESC": "CR",
    "RSEVAL": "INVESTIGATOR",
    "VISITNUM": 7,
    "VISIT": "WEEK 63",
    "RSDTC": "2022-09-17",
    "RSDY": 441
  },
  {
    "STUDYID": "KN868",
    "DOMAIN": "RS",
    "USUBJID": "KN868-0001-0009",
    "RSSEQ": 8,
    "RSTESTCD": "OVRLRESP",
    "RSTEST": "Overall Response",
    "RSCAT": "RECIST 1.1",
    "RSORRES": "CR",
    "RSSTRESC": "CR",
    "RSEVAL": "INVESTIGATOR",
    "VISITNUM": 8,
    "VISIT": "WEEK 72",
    "RSDTC": "2022-11-17",
    "RSDY": 504
  },
  {
    "STUDYID": "KN868",
    "DOMAIN": "RS",
    "USUBJID": "KN868-0001-0009",
    "RSSEQ": 9,
    "RSTESTCD": "BESTRESP",
    "RSTEST": "Best Overall Response",
    "RSCAT": "RECIST 1.1",
    "RSORRES": "CR",
    "RSSTRESC": "CR",
    "RSEVAL": "INVESTIGATOR",
    "VISITNUM": 999,
    "VISIT": "BEST RESPONSE",
    "RSDTC": "2023-09-30"
  },
  {
    "STUDYID": "KN868",
    "DOMAIN": "RS",
    "USUBJID": "KN868-0001-0010",
    "RSSEQ": 1,
    "RSTESTCD": "OVRLRESP",
    "RSTEST": "Overall Response",
    "RSCAT": "RECIST 1.1",
    "RSORRES": "SD",
    "RSSTRESC": "SD",
    "RSEVAL": "INVESTIGATOR",
    "VISITNUM": 1,
    "VISIT": "WEEK 9",
    "RSDTC": "2021-07-11",
    "RSDY": 63
  },
  {
    "STUDYID": "KN868",
    "DOMAIN": "RS",
    "USUBJID": "KN868-0001-0010",
    "RSSEQ": 2,
    "RSTESTCD": "OVRLRESP",
    "RSTEST": "Overall Response",
    "RSCAT": "RECIST 1.1",
    "RSORRES": "SD",
    "RSSTRESC": "SD",
    "RSEVAL": "INVESTIGATOR",
    "VISITNUM": 2,
    "VISIT": "WEEK 18",
    "RSDTC": "2021-09-09",
    "RSDY": 126
  },
  {
    "STUDYID": "KN868",
    "DOMAIN": "RS",
    "USUBJID": "KN868-0001-0010",
    "RSSEQ": 3,
    "RSTESTCD": "OVRLRESP",
    "RSTEST": "Overall Response",
    "RSCAT": "RECIST 1.1",
    "RSORRES": "SD",
    "RSSTRESC": "SD",
    "RSEVAL": "INVESTIGATOR",
    "VISITNUM": 3,
    "VISIT": "WEEK 27",
    "RSDTC": "2021-11-13",
    "RSDY": 189
  },
  {
    "STUDYID": "KN868",
    "DOMAIN": "RS",
    "USUBJID": "KN868-0001-0010",
    "RSSEQ": 4,
    "RSTESTCD": "OVRLRESP",
    "RSTEST": "Overall Response",
    "RSCAT": "RECIST 1.1",
    "RSORRES": "SD",
    "RSSTRESC": "SD",
    "RSEVAL": "INVESTIGATOR",
    "VISITNUM": 4,
    "VISIT": "WEEK 36",
    "RSDTC": "2022-01-12",
    "RSDY": 252
  },
  {
    "STUDYID": "KN868",
    "DOMAIN": "RS",
    "USUBJID": "KN868-0001-0010",
    "RSSEQ": 5,
    "RSTESTCD": "OVRLRESP",
    "RSTEST": "Overall Response",
    "RSCAT": "RECIST 1.1",
    "RSORRES": "SD",
    "RSSTRESC": "SD",
    "RSEVAL": "INVESTIGATOR",
    "VISITNUM": 5,
    "VISIT": "WEEK 45",
    "RSDTC": "2022-03-20",
    "RSDY": 315
  },
  {
    "STUDYID": "KN868",
    "DOMAIN": "RS",
    "USUBJID": "KN868-0001-0010",
    "RSSEQ": 6,
    "RSTESTCD": "OVRLRESP",
    "RSTEST": "Overall Response",
    "RSCAT": "RECIST 1.1",
    "RSORRES": "SD",
    "RSSTRESC": "SD",
    "RSEVAL": "INVESTIGATOR",
    "VISITNUM": 6,
    "VISIT": "WEEK 54",
    "RSDTC": "2022-05-21",
    "RSDY": 378
  },
  {
    "STUDYID": "KN868",
    "DOMAIN": "RS",
    "USUBJID": "KN868-0001-0010",
    "RSSEQ": 7,
    "RSTESTCD": "OVRLRESP",
    "RSTEST": "Overall Response",
    "RSCAT": "RECIST 1.1",
    "RSORRES": "SD",
    "RSSTRESC": "SD",
    "RSEVAL": "INVESTIGATOR",
    "VISITNUM": 7,
    "VISIT": "WEEK 63",
    "RSDTC": "2022-07-20",
    "RSDY": 441
  },
  {
    "STUDYID": "KN868",
    "DOMAIN": "RS",
    "USUBJID": "KN868-0001-0010",
    "RSSEQ": 8,
    "RSTESTCD": "OVRLRESP",
    "RSTEST": "Overall Response",
    "RSCAT": "RECIST 1.1",
    "RSORRES": "SD",
    "RSSTRESC": "SD",
    "RSEVAL": "INVESTIGATOR",
    "VISITNUM": 8,
    "VISIT": "WEEK 72",
    "RSDTC": "2022-09-24",
    "RSDY": 504
  },
  {
    "STUDYID": "KN868",
    "DOMAIN": "RS",
    "USUBJID": "KN868-0001-0010",
    "RSSEQ": 9,
    "RSTESTCD": "BESTRESP",
    "RSTEST": "Best Overall Response",
    "RSCAT": "RECIST 1.1",
    "RSORRES": "SD",
    "RSSTRESC": "SD",
    "RSEVAL": "INVESTIGATOR",
    "VISITNUM": 999,
    "VISIT": "BEST RESPONSE",
    "RSDTC": "2023-09-30"
  },
  {
    "STUDYID": "KN868",
    "DOMAIN": "RS",
    "USUBJID": "KN868-0001-0011",
    "RSSEQ": 1,
    "RSTESTCD": "OVRLRESP",
    "RSTEST": "Overall Response",
    "RSCAT": "RECIST 1.1",
    "RSORRES": "PR",
    "RSSTRESC": "PR",
    "RSEVAL": "INVESTIGATOR",
    "VISITNUM": 1,
    "VISIT": "WEEK 9",
    "RSDTC": "2021-07-10",
    "RSDY": 63
  },
  {
    "STUDYID": "KN868",
    "DOMAIN": "RS",
    "USUBJID": "KN868-0001-0011",
    "RSSEQ": 2,
    "RSTESTCD": "OVRLRESP",
    "RSTEST": "Overall Response",
    "RSCAT": "RECIST 1.1",
    "RSORRES": "PR",
    "RSSTRESC": "PR",
    "RSEVAL": "INVESTIGATOR",
    "VISITNUM": 2,
    "VISIT": "WEEK 18",
    "RSDTC": "2021-09-09",
    "RSDY": 126
  },
  {
    "STUDYID": "KN868",
    "DOMAIN": "RS",
    "USUBJID": "KN868-0001-0011",
    "RSSEQ": 3,
    "RSTESTCD": "OVRLRESP",
    "RSTEST": "Overall Response",
    "RSCAT": "RECIST 1.1",
    "RSORRES": "PR",
    "RSSTRESC": "PR",
    "RSEVAL": "INVESTIGATOR",
    "VISITNUM": 3,
    "VISIT": "WEEK 27",
    "RSDTC": "2021-11-13",
    "RSDY": 189
  },
  {
    "STUDYID": "KN868",
    "DOMAIN": "RS",
    "USUBJID": "KN868-0001-0011",
    "RSSEQ": 4,
    "RSTESTCD": "OVRLRESP",
    "RSTEST": "Overall Response",
    "RSCAT": "RECIST 1.1",
    "RSORRES": "CR",
    "RSSTRESC": "CR",
    "RSEVAL": "INVESTIGATOR",
    "VISITNUM": 4,
    "VISIT": "WEEK 36",
    "RSDTC": "2022-01-12",
    "RSDY": 252
  },
  {
    "STUDYID": "KN868",
    "DOMAIN": "RS",
    "USUBJID": "KN868-0001-0011",
    "RSSEQ": 5,
    "RSTESTCD": "OVRLRESP",
    "RSTEST": "Overall Response",
    "RSCAT": "RECIST 1.1",
    "RSORRES": "PR",
    "RSSTRESC": "PR",
    "RSEVAL": "INVESTIGATOR",
    "VISITNUM": 5,
    "VISIT": "WEEK 45",
    "RSDTC": "2022-03-18",
    "RSDY": 315
  },
  {
    "STUDYID": "KN868",
    "DOMAIN": "RS",
    "USUBJID": "KN868-0001-0011",
    "RSSEQ": 6,
    "RSTESTCD": "OVRLRESP",
    "RSTEST": "Overall Response",
    "RSCAT": "RECIST 1.1",
    "RSORRES": "PR",
    "RSSTRESC": "PR",
    "RSEVAL": "INVESTIGATOR",
    "VISITNUM": 6,
    "VISIT": "WEEK 54",
    "RSDTC": "2022-05-22",
    "RSDY": 378
  },
  {
    "STUDYID": "KN868",
    "DOMAIN": "RS",
    "USUBJID": "KN868-0001-0011",
    "RSSEQ": 7,
    "RSTESTCD": "OVRLRESP",
    "RSTEST": "Overall Response",
    "RSCAT": "RECIST 1.1",
    "RSORRES": "PR",
    "RSSTRESC": "PR",
    "RSEVAL": "INVESTIGATOR",
    "VISITNUM": 7,
    "VISIT": "WEEK 63",
    "RSDTC": "2022-07-25",
    "RSDY": 441
  },
  {
    "STUDYID": "KN868",
    "DOMAIN": "RS",
    "USUBJID": "KN868-0001-0011",
    "RSSEQ": 8,
    "RSTESTCD": "OVRLRESP",
    "RSTEST": "Overall Response",
    "RSCAT": "RECIST 1.1",
    "RSORRES": "PR",
    "RSSTRESC": "PR",
    "RSEVAL": "INVESTIGATOR",
    "VISITNUM": 8,
    "VISIT": "WEEK 72",
    "RSDTC": "2022-09-27",
    "RSDY": 504
  },
  {
    "STUDYID": "KN868",
    "DOMAIN": "RS",
    "USUBJID": "KN868-0001-0011",
    "RSSEQ": 9,
    "RSTESTCD": "BESTRESP",
    "RSTEST": "Best Overall Response",
    "RSCAT": "RECIST 1.1",
    "RSORRES": "PR",
    "RSSTRESC": "PR",
    "RSEVAL": "INVESTIGATOR",
    "VISITNUM": 999,
    "VISIT": "BEST RESPONSE",
    "RSDTC": "2023-09-30"
  },
  {
    "STUDYID": "KN868",
    "DOMAIN": "RS",
    "USUBJID": "KN868-0001-0012",
    "RSSEQ": 1,
    "RSTESTCD": "OVRLRESP",
    "RSTEST": "Overall Response",
    "RSCAT": "RECIST 1.1",
    "RSORRES": "SD",
    "RSSTRESC": "SD",
    "RSEVAL": "INVESTIGATOR",
    "VISITNUM": 1,
    "VISIT": "WEEK 9",
    "RSDTC": "2022-01-27",
    "RSDY": 63
  },
  {
    "STUDYID": "KN868",
    "DOMAIN": "RS",
    "USUBJID": "KN868-0001-0012",
    "RSSEQ": 2,
    "RSTESTCD": "OVRLRESP",
    "RSTEST": "Overall Response",
    "RSCAT": "RECIST 1.1",
    "RSORRES": "PR",
    "RSSTRESC": "PR",
    "RSEVAL": "INVESTIGATOR",
    "VISITNUM": 2,
    "VISIT": "WEEK 18",
    "RSDTC": "2022-03-30",
    "RSDY": 126
  },
  {
    "STUDYID": "KN868",
    "DOMAIN": "RS",
    "USUBJID": "KN868-0001-0012",
    "RSSEQ": 3,
    "RSTESTCD": "OVRLRESP",
    "RSTEST": "Overall Response",
    "RSCAT": "RECIST 1.1",
    "RSORRES": "PR",
    "RSSTRESC": "PR",
    "RSEVAL": "INVESTIGATOR",
    "VISITNUM": 3,
    "VISIT": "WEEK 27",
    "RSDTC": "2022-06-03",
    "RSDY": 189
  },
  {
    "STUDYID": "KN868",
    "DOMAIN": "RS",
    "USUBJID": "KN868-0001-0012",
    "RSSEQ": 4,
    "RSTESTCD": "OVRLRESP",
    "RSTEST": "Overall Response",
    "RSCAT": "RECIST 1.1",
    "RSORRES": "PR",
    "RSSTRESC": "PR",
    "RSEVAL": "INVESTIGATOR",
    "VISITNUM": 4,
    "VISIT": "WEEK 36",
    "RSDTC": "2022-08-06",
    "RSDY": 252
  },
  {
    "STUDYID": "KN868",
    "DOMAIN": "RS",
    "USUBJID": "KN868-0001-0012",
    "RSSEQ": 5,
    "RSTESTCD": "OVRLRESP",
    "RSTEST": "Overall Response",
    "RSCAT": "RECIST 1.1",
    "RSORRES": "PR",
    "RSSTRESC": "PR",
    "RSEVAL": "INVESTIGATOR",
    "VISITNUM": 5,
    "VISIT": "WEEK 45",
    "RSDTC": "2022-10-06",
    "RSDY": 315
  },
  {
    "STUDYID": "KN868",
    "DOMAIN": "RS",
    "USUBJID": "KN868-0001-0012",
    "RSSEQ": 6,
    "RSTESTCD": "OVRLRESP",
    "RSTEST": "Overall Response",
    "RSCAT": "RECIST 1.1",
    "RSORRES": "PR",
    "RSSTRESC": "PR",
    "RSEVAL": "INVESTIGATOR",
    "VISITNUM": 6,
    "VISIT": "WEEK 54",
    "RSDTC": "2022-12-11",
    "RSDY": 378
  },
  {
    "STUDYID": "KN868",
    "DOMAIN": "RS",
    "USUBJID": "KN868-0001-0012",
    "RSSEQ": 7,
    "RSTESTCD": "OVRLRESP",
    "RSTEST": "Overall Response",
    "RSCAT": "RECIST 1.1",
    "RSORRES": "CR",
    "RSSTRESC": "CR",
    "RSEVAL": "INVESTIGATOR",
    "VISITNUM": 7,
    "VISIT": "WEEK 63",
    "RSDTC": "2023-02-12",
    "RSDY": 441
  },
  {
    "STUDYID": "KN868",
    "DOMAIN": "RS",
    "USUBJID": "KN868-0001-0012",
    "RSSEQ": 8,
    "RSTESTCD": "OVRLRESP",
    "RSTEST": "Overall Response",
    "RSCAT": "RECIST 1.1",
    "RSORRES": "PR",
    "RSSTRESC": "PR",
    "RSEVAL": "INVESTIGATOR",
    "VISITNUM": 8,
    "VISIT": "WEEK 72",
    "RSDTC": "2023-04-18",
    "RSDY": 504
  },
  {
    "STUDYID": "KN868",
    "DOMAIN": "RS",
    "USUBJID": "KN868-0001-0012",
    "RSSEQ": 9,
    "RSTESTCD": "BESTRESP",
    "RSTEST": "Best Overall Response",
    "RSCAT": "RECIST 1.1",
    "RSORRES": "PR",
    "RSSTRESC": "PR",
    "RSEVAL": "INVESTIGATOR",
    "VISITNUM": 999,
    "VISIT": "BEST RESPONSE",
    "RSDTC": "2023-09-30"
  },
  {
    "STUDYID": "KN868",
    "DOMAIN": "RS",
    "USUBJID": "KN868-0001-0013",
    "RSSEQ": 1,
    "RSTESTCD": "OVRLRESP",
    "RSTEST": "Overall Response",
    "RSCAT": "RECIST 1.1",
    "RSORRES": "PR",
    "RSSTRESC": "PR",
    "RSEVAL": "INVESTIGATOR",
    "VISITNUM": 1,
    "VISIT": "WEEK 9",
    "RSDTC": "2021-03-16",
    "RSDY": 63
  },
  {
    "STUDYID": "KN868",
    "DOMAIN": "RS",
    "USUBJID": "KN868-0001-0013",
    "RSSEQ": 2,
    "RSTESTCD": "OVRLRESP",
    "RSTEST": "Overall Response",
    "RSCAT": "RECIST 1.1",
    "RSORRES": "PR",
    "RSSTRESC": "PR",
    "RSEVAL": "INVESTIGATOR",
    "VISITNUM": 2,
    "VISIT": "WEEK 18",
    "RSDTC": "2021-05-19",
    "RSDY": 126
  },
  {
    "STUDYID": "KN868",
    "DOMAIN": "RS",
    "USUBJID": "KN868-0001-0013",
    "RSSEQ": 3,
    "RSTESTCD": "OVRLRESP",
    "RSTEST": "Overall Response",
    "RSCAT": "RECIST 1.1",
    "RSORRES": "PR",
    "RSSTRESC": "PR",
    "RSEVAL": "INVESTIGATOR",
    "VISITNUM": 3,
    "VISIT": "WEEK 27",
    "RSDTC": "2021-07-25",
    "RSDY": 189
  },
  {
    "STUDYID": "KN868",
    "DOMAIN": "RS",
    "USUBJID": "KN868-0001-0013",
    "RSSEQ": 4,
    "RSTESTCD": "OVRLRESP",
    "RSTEST": "Overall Response",
    "RSCAT": "RECIST 1.1",
    "RSORRES": "PR",
    "RSSTRESC": "PR",
    "RSEVAL": "INVESTIGATOR",
    "VISITNUM": 4,
    "VISIT": "WEEK 36",
    "RSDTC": "2021-09-26",
    "RSDY": 252
  },
  {
    "STUDYID": "KN868",
    "DOMAIN": "RS",
    "USUBJID": "KN868-0001-0013",
    "RSSEQ": 5,
    "RSTESTCD": "OVRLRESP",
    "RSTEST": "Overall Response",
    "RSCAT": "RECIST 1.1",
    "RSORRES": "PR",
    "RSSTRESC": "PR",
    "RSEVAL": "INVESTIGATOR",
    "VISITNUM": 5,
    "VISIT": "WEEK 45",
    "RSDTC": "2021-11-27",
    "RSDY": 315
  },
  {
    "STUDYID": "KN868",
    "DOMAIN": "RS",
    "USUBJID": "KN868-0001-0013",
    "RSSEQ": 6,
    "RSTESTCD": "OVRLRESP",
    "RSTEST": "Overall Response",
    "RSCAT": "RECIST 1.1",
    "RSORRES": "CR",
    "RSSTRESC": "CR",
    "RSEVAL": "INVESTIGATOR",
    "VISITNUM": 6,
    "VISIT": "WEEK 54",
    "RSDTC": "2022-01-28",
    "RSDY": 378
  },
  {
    "STUDYID": "KN868",
    "DOMAIN": "RS",
    "USUBJID": "KN868-0001-0013",
    "RSSEQ": 7,
    "RSTESTCD": "OVRLRESP",
    "RSTEST": "Overall Response",
    "RSCAT": "RECIST 1.1",
    "RSORRES": "PR",
    "RSSTRESC": "PR",
    "RSEVAL": "INVESTIGATOR",
    "VISITNUM": 7,
    "VISIT": "WEEK 63",
    "RSDTC": "2022-03-29",
    "RSDY": 441
  },
  {
    "STUDYID": "KN868",
    "DOMAIN": "RS",
    "USUBJID": "KN868-0001-0013",
    "RSSEQ": 8,
    "RSTESTCD": "OVRLRESP",
    "RSTEST": "Overall Response",
    "RSCAT": "RECIST 1.1",
    "RSORRES": "PR",
    "RSSTRESC": "PR",
    "RSEVAL": "INVESTIGATOR",
    "VISITNUM": 8,
    "VISIT": "WEEK 72",
    "RSDTC": "2022-06-06",
    "RSDY": 504
  },
  {
    "STUDYID": "KN868",
    "DOMAIN": "RS",
    "USUBJID": "KN868-0001-0013",
    "RSSEQ": 9,
    "RSTESTCD": "BESTRESP",
    "RSTEST": "Best Overall Response",
    "RSCAT": "RECIST 1.1",
    "RSORRES": "PR",
    "RSSTRESC": "PR",
    "RSEVAL": "INVESTIGATOR",
    "VISITNUM": 999,
    "VISIT": "BEST RESPONSE",
    "RSDTC": "2023-09-30"
  },
  {
    "STUDYID": "KN868",
    "DOMAIN": "RS",
    "USUBJID": "KN868-0001-0014",
    "RSSEQ": 1,
    "RSTESTCD": "OVRLRESP",
    "RSTEST": "Overall Response",
    "RSCAT": "RECIST 1.1",
    "RSORRES": "SD",
    "RSSTRESC": "SD",
    "RSEVAL": "INVESTIGATOR",
    "VISITNUM": 1,
    "VISIT": "WEEK 9",
    "RSDTC": "2020-05-20",
    "RSDY": 63
  },
  {
    "STUDYID": "KN868",
    "DOMAIN": "RS",
    "USUBJID": "KN868-0001-0014",
    "RSSEQ": 2,
    "RSTESTCD": "OVRLRESP",
    "RSTEST": "Overall Response",
    "RSCAT": "RECIST 1.1",
    "RSORRES": "SD",
    "RSSTRESC": "SD",
    "RSEVAL": "INVESTIGATOR",
    "VISITNUM": 2,
    "VISIT": "WEEK 18",
    "RSDTC": "2020-07-23",
    "RSDY": 126
  },
  {
    "STUDYID": "KN868",
    "DOMAIN": "RS",
    "USUBJID": "KN868-0001-0014",
    "RSSEQ": 3,
    "RSTESTCD": "OVRLRESP",
    "RSTEST": "Overall Response",
    "RSCAT": "RECIST 1.1",
    "RSORRES": "SD",
    "RSSTRESC": "SD",
    "RSEVAL": "INVESTIGATOR",
    "VISITNUM": 3,
    "VISIT": "WEEK 27",
    "RSDTC": "2020-09-27",
    "RSDY": 189
  },
  {
    "STUDYID": "KN868",
    "DOMAIN": "RS",
    "USUBJID": "KN868-0001-0014",
    "RSSEQ": 4,
    "RSTESTCD": "OVRLRESP",
    "RSTEST": "Overall Response",
    "RSCAT": "RECIST 1.1",
    "RSORRES": "SD",
    "RSSTRESC": "SD",
    "RSEVAL": "INVESTIGATOR",
    "VISITNUM": 4,
    "VISIT": "WEEK 36",
    "RSDTC": "2020-11-28",
    "RSDY": 252
  },
  {
    "STUDYID": "KN868",
    "DOMAIN": "RS",
    "USUBJID": "KN868-0001-0014",
    "RSSEQ": 5,
    "RSTESTCD": "OVRLRESP",
    "RSTEST": "Overall Response",
    "RSCAT": "RECIST 1.1",
    "RSORRES": "SD",
    "RSSTRESC": "SD",
    "RSEVAL": "INVESTIGATOR",
    "VISITNUM": 5,
    "VISIT": "WEEK 45",
    "RSDTC": "2021-01-29",
    "RSDY": 315
  },
  {
    "STUDYID": "KN868",
    "DOMAIN": "RS",
    "USUBJID": "KN868-0001-0014",
    "RSSEQ": 6,
    "RSTESTCD": "OVRLRESP",
    "RSTEST": "Overall Response",
    "RSCAT": "RECIST 1.1",
    "RSORRES": "SD",
    "RSSTRESC": "SD",
    "RSEVAL": "INVESTIGATOR",
    "VISITNUM": 6,
    "VISIT": "WEEK 54",
    "RSDTC": "2021-04-04",
    "RSDY": 378
  },
  {
    "STUDYID": "KN868",
    "DOMAIN": "RS",
    "USUBJID": "KN868-0001-0014",
    "RSSEQ": 7,
    "RSTESTCD": "OVRLRESP",
    "RSTEST": "Overall Response",
    "RSCAT": "RECIST 1.1",
    "RSORRES": "SD",
    "RSSTRESC": "SD",
    "RSEVAL": "INVESTIGATOR",
    "VISITNUM": 7,
    "VISIT": "WEEK 63",
    "RSDTC": "2021-06-03",
    "RSDY": 441
  },
  {
    "STUDYID": "KN868",
    "DOMAIN": "RS",
    "USUBJID": "KN868-0001-0014",
    "RSSEQ": 8,
    "RSTESTCD": "OVRLRESP",
    "RSTEST": "Overall Response",
    "RSCAT": "RECIST 1.1",
    "RSORRES": "SD",
    "RSSTRESC": "SD",
    "RSEVAL": "INVESTIGATOR",
    "VISITNUM": 8,
    "VISIT": "WEEK 72",
    "RSDTC": "2021-08-08",
    "RSDY": 504
  },
  {
    "STUDYID": "KN868",
    "DOMAIN": "RS",
    "USUBJID": "KN868-0001-0014",
    "RSSEQ": 9,
    "RSTESTCD": "BESTRESP",
    "RSTEST": "Best Overall Response",
    "RSCAT": "RECIST 1.1",
    "RSORRES": "SD",
    "RSSTRESC": "SD",
    "RSEVAL": "INVESTIGATOR",
    "VISITNUM": 999,
    "VISIT": "BEST RESPONSE",
    "RSDTC": "2023-09-30"
  },
  {
    "STUDYID": "KN868",
    "DOMAIN": "RS",
    "USUBJID": "KN868-0001-0015",
    "RSSEQ": 1,
    "RSTESTCD": "OVRLRESP",
    "RSTEST": "Overall Response",
    "RSCAT": "RECIST 1.1",
    "RSORRES": "PD",
    "RSSTRESC": "PD",
    "RSEVAL": "INVESTIGATOR",
    "VISITNUM": 1,
    "VISIT": "WEEK 9",
    "RSDTC": "2021-06-09",
    "RSDY": 63
  },
  {
    "STUDYID": "KN868",
    "DOMAIN": "RS",
    "USUBJID": "KN868-0001-0015",
    "RSSEQ": 2,
    "RSTESTCD": "OVRLRESP",
    "RSTEST": "Overall Response",
    "RSCAT": "RECIST 1.1",
    "RSORRES": "PD",
    "RSSTRESC": "PD",
    "RSEVAL": "INVESTIGATOR",
    "VISITNUM": 2,
    "VISIT": "WEEK 18",
    "RSDTC": "2021-08-10",
    "RSDY": 126
  },
  {
    "STUDYID": "KN868",
    "DOMAIN": "RS",
    "USUBJID": "KN868-0001-0015",
    "RSSEQ": 3,
    "RSTESTCD": "OVRLRESP",
    "RSTEST": "Overall Response",
    "RSCAT": "RECIST 1.1",
    "RSORRES": "PD",
    "RSSTRESC": "PD",
    "RSEVAL": "INVESTIGATOR",
    "VISITNUM": 3,
    "VISIT": "WEEK 27",
    "RSDTC": "2021-10-12",
    "RSDY": 189
  },
  {
    "STUDYID": "KN868",
    "DOMAIN": "RS",
    "USUBJID": "KN868-0001-0015",
    "RSSEQ": 4,
    "RSTESTCD": "OVRLRESP",
    "RSTEST": "Overall Response",
    "RSCAT": "RECIST 1.1",
    "RSORRES": "PD",
    "RSSTRESC": "PD",
    "RSEVAL": "INVESTIGATOR",
    "VISITNUM": 4,
    "VISIT": "WEEK 36",
    "RSDTC": "2021-12-15",
    "RSDY": 252
  },
  {
    "STUDYID": "KN868",
    "DOMAIN": "RS",
    "USUBJID": "KN868-0001-0015",
    "RSSEQ": 5,
    "RSTESTCD": "OVRLRESP",
    "RSTEST": "Overall Response",
    "RSCAT": "RECIST 1.1",
    "RSORRES": "PD",
    "RSSTRESC": "PD",
    "RSEVAL": "INVESTIGATOR",
    "VISITNUM": 5,
    "VISIT": "WEEK 45",
    "RSDTC": "2022-02-18",
    "RSDY": 315
  },
  {
    "STUDYID": "KN868",
    "DOMAIN": "RS",
    "USUBJID": "KN868-0001-0015",
    "RSSEQ": 6,
    "RSTESTCD": "OVRLRESP",
    "RSTEST": "Overall Response",
    "RSCAT": "RECIST 1.1",
    "RSORRES": "PD",
    "RSSTRESC": "PD",
    "RSEVAL": "INVESTIGATOR",
    "VISITNUM": 6,
    "VISIT": "WEEK 54",
    "RSDTC": "2022-04-17",
    "RSDY": 378
  },
  {
    "STUDYID": "KN868",
    "DOMAIN": "RS",
    "USUBJID": "KN868-0001-0015",
    "RSSEQ": 7,
    "RSTESTCD": "OVRLRESP",
    "RSTEST": "Overall Response",
    "RSCAT": "RECIST 1.1",
    "RSORRES": "PD",
    "RSSTRESC": "PD",
    "RSEVAL": "INVESTIGATOR",
    "VISITNUM": 7,
    "VISIT": "WEEK 63",
    "RSDTC": "2022-06-19",
    "RSDY": 441
  },
  {
    "STUDYID": "KN868",
    "DOMAIN": "RS",
    "USUBJID": "KN868-0001-0015",
    "RSSEQ": 8,
    "RSTESTCD": "OVRLRESP",
    "RSTEST": "Overall Response",
    "RSCAT": "RECIST 1.1",
    "RSORRES": "PD",
    "RSSTRESC": "PD",
    "RSEVAL": "INVESTIGATOR",
    "VISITNUM": 8,
    "VISIT": "WEEK 72",
    "RSDTC": "2022-08-27",
    "RSDY": 504
  },
  {
    "STUDYID": "KN868",
    "DOMAIN": "RS",
    "USUBJID": "KN868-0001-0015",
    "RSSEQ": 9,
    "RSTESTCD": "BESTRESP",
    "RSTEST": "Best Overall Response",
    "RSCAT": "RECIST 1.1",
    "RSORRES": "PD",
    "RSSTRESC": "PD",
    "RSEVAL": "INVESTIGATOR",
    "VISITNUM": 999,
    "VISIT": "BEST RESPONSE",
    "RSDTC": "2023-09-30"
  },
  {
    "STUDYID": "KN868",
    "DOMAIN": "RS",
    "USUBJID": "KN868-0001-0016",
    "RSSEQ": 1,
    "RSTESTCD": "OVRLRESP",
    "RSTEST": "Overall Response",
    "RSCAT": "RECIST 1.1",
    "RSORRES": "SD",
    "RSSTRESC": "SD",
    "RSEVAL": "INVESTIGATOR",
    "VISITNUM": 1,
    "VISIT": "WEEK 9",
    "RSDTC": "2021-12-01",
    "RSDY": 63
  },
  {
    "STUDYID": "KN868",
    "DOMAIN": "RS",
    "USUBJID": "KN868-0001-0016",
    "RSSEQ": 2,
    "RSTESTCD": "OVRLRESP",
    "RSTEST": "Overall Response",
    "RSCAT": "RECIST 1.1",
    "RSORRES": "SD",
    "RSSTRESC": "SD",
    "RSEVAL": "INVESTIGATOR",
    "VISITNUM": 2,
    "VISIT": "WEEK 18",
    "RSDTC": "2022-01-31",
    "RSDY": 126
  },
  {
    "STUDYID": "KN868",
    "DOMAIN": "RS",
    "USUBJID": "KN868-0001-0016",
    "RSSEQ": 3,
    "RSTESTCD": "OVRLRESP",
    "RSTEST": "Overall Response",
    "RSCAT": "RECIST 1.1",
    "RSORRES": "SD",
    "RSSTRESC": "SD",
    "RSEVAL": "INVESTIGATOR",
    "VISITNUM": 3,
    "VISIT": "WEEK 27",
    "RSDTC": "2022-04-03",
    "RSDY": 189
  },
  {
    "STUDYID": "KN868",
    "DOMAIN": "RS",
    "USUBJID": "KN868-0001-0016",
    "RSSEQ": 4,
    "RSTESTCD": "OVRLRESP",
    "RSTEST": "Overall Response",
    "RSCAT": "RECIST 1.1",
    "RSORRES": "SD",
    "RSSTRESC": "SD",
    "RSEVAL": "INVESTIGATOR",
    "VISITNUM": 4,
    "VISIT": "WEEK 36",
    "RSDTC": "2022-06-05",
    "RSDY": 252
  },
  {
    "STUDYID": "KN868",
    "DOMAIN": "RS",
    "USUBJID": "KN868-0001-0016",
    "RSSEQ": 5,
    "RSTESTCD": "OVRLRESP",
    "RSTEST": "Overall Response",
    "RSCAT": "RECIST 1.1",
    "RSORRES": "SD",
    "RSSTRESC": "SD",
    "RSEVAL": "INVESTIGATOR",
    "VISITNUM": 5,
    "VISIT": "WEEK 45",
    "RSDTC": "2022-08-12",
    "RSDY": 315
  },
  {
    "STUDYID": "KN868",
    "DOMAIN": "RS",
    "USUBJID": "KN868-0001-0016",
    "RSSEQ": 6,
    "RSTESTCD": "OVRLRESP",
    "RSTEST": "Overall Response",
    "RSCAT": "RECIST 1.1",
    "RSORRES": "SD",
    "RSSTRESC": "SD",
    "RSEVAL": "INVESTIGATOR",
    "VISITNUM": 6,
    "VISIT": "WEEK 54",
    "RSDTC": "2022-10-15",
    "RSDY": 378
  },
  {
    "STUDYID": "KN868",
    "DOMAIN": "RS",
    "USUBJID": "KN868-0001-0016",
    "RSSEQ": 7,
    "RSTESTCD": "OVRLRESP",
    "RSTEST": "Overall Response",
    "RSCAT": "RECIST 1.1",
    "RSORRES": "SD",
    "RSSTRESC": "SD",
    "RSEVAL": "INVESTIGATOR",
    "VISITNUM": 7,
    "VISIT": "WEEK 63",
    "RSDTC": "2022-12-11",
    "RSDY": 441
  },
  {
    "STUDYID": "KN868",
    "DOMAIN": "RS",
    "USUBJID": "KN868-0001-0016",
    "RSSEQ": 8,
    "RSTESTCD": "OVRLRESP",
    "RSTEST": "Overall Response",
    "RSCAT": "RECIST 1.1",
    "RSORRES": "SD",
    "RSSTRESC": "SD",
    "RSEVAL": "INVESTIGATOR",
    "VISITNUM": 8,
    "VISIT": "WEEK 72",
    "RSDTC": "2023-02-18",
    "RSDY": 504
  },
  {
    "STUDYID": "KN868",
    "DOMAIN": "RS",
    "USUBJID": "KN868-0001-0016",
    "RSSEQ": 9,
    "RSTESTCD": "BESTRESP",
    "RSTEST": "Best Overall Response",
    "RSCAT": "RECIST 1.1",
    "RSORRES": "SD",
    "RSSTRESC": "SD",
    "RSEVAL": "INVESTIGATOR",
    "VISITNUM": 999,
    "VISIT": "BEST RESPONSE",
    "RSDTC": "2023-09-30"
  },
  {
    "STUDYID": "KN868",
    "DOMAIN": "RS",
    "USUBJID": "KN868-0001-0017",
    "RSSEQ": 1,
    "RSTESTCD": "OVRLRESP",
    "RSTEST": "Overall Response",
    "RSCAT": "RECIST 1.1",
    "RSORRES": "SD",
    "RSSTRESC": "SD",
    "RSEVAL": "INVESTIGATOR",
    "VISITNUM": 1,
    "VISIT": "WEEK 9",
    "RSDTC": "2020-05-08",
    "RSDY": 63
  },
  {
    "STUDYID": "KN868",
    "DOMAIN": "RS",
    "USUBJID": "KN868-0001-0017",
    "RSSEQ": 2,
    "RSTESTCD": "OVRLRESP",
    "RSTEST": "Overall Response",
    "RSCAT": "RECIST 1.1",
    "RSORRES": "PR",
    "RSSTRESC": "PR",
    "RSEVAL": "INVESTIGATOR",
    "VISITNUM": 2,
    "VISIT": "WEEK 18",
    "RSDTC": "2020-07-08",
    "RSDY": 126
  },
  {
    "STUDYID": "KN868",
    "DOMAIN": "RS",
    "USUBJID": "KN868-0001-0017",
    "RSSEQ": 3,
    "RSTESTCD": "OVRLRESP",
    "RSTEST": "Overall Response",
    "RSCAT": "RECIST 1.1",
    "RSORRES": "PR",
    "RSSTRESC": "PR",
    "RSEVAL": "INVESTIGATOR",
    "VISITNUM": 3,
    "VISIT": "WEEK 27",
    "RSDTC": "2020-09-10",
    "RSDY": 189
  },
  {
    "STUDYID": "KN868",
    "DOMAIN": "RS",
    "USUBJID": "KN868-0001-0017",
    "RSSEQ": 4,
    "RSTESTCD": "OVRLRESP",
    "RSTEST": "Overall Response",
    "RSCAT": "RECIST 1.1",
    "RSORRES": "PR",
    "RSSTRESC": "PR",
    "RSEVAL": "INVESTIGATOR",
    "VISITNUM": 4,
    "VISIT": "WEEK 36",
    "RSDTC": "2020-11-16",
    "RSDY": 252
  },
  {
    "STUDYID": "KN868",
    "DOMAIN": "RS",
    "USUBJID": "KN868-0001-0017",
    "RSSEQ": 5,
    "RSTESTCD": "OVRLRESP",
    "RSTEST": "Overall Response",
    "RSCAT": "RECIST 1.1",
    "RSORRES": "PR",
    "RSSTRESC": "PR",
    "RSEVAL": "INVESTIGATOR",
    "VISITNUM": 5,
    "VISIT": "WEEK 45",
    "RSDTC": "2021-01-18",
    "RSDY": 315
  },
  {
    "STUDYID": "KN868",
    "DOMAIN": "RS",
    "USUBJID": "KN868-0001-0017",
    "RSSEQ": 6,
    "RSTESTCD": "OVRLRESP",
    "RSTEST": "Overall Response",
    "RSCAT": "RECIST 1.1",
    "RSORRES": "PR",
    "RSSTRESC": "PR",
    "RSEVAL": "INVESTIGATOR",
    "VISITNUM": 6,
    "VISIT": "WEEK 54",
    "RSDTC": "2021-03-19",
    "RSDY": 378
  },
  {
    "STUDYID": "KN868",
    "DOMAIN": "RS",
    "USUBJID": "KN868-0001-0017",
    "RSSEQ": 7,
    "RSTESTCD": "OVRLRESP",
    "RSTEST": "Overall Response",
    "RSCAT": "RECIST 1.1",
    "RSORRES": "PR",
    "RSSTRESC": "PR",
    "RSEVAL": "INVESTIGATOR",
    "VISITNUM": 7,
    "VISIT": "WEEK 63",
    "RSDTC": "2021-05-20",
    "RSDY": 441
  },
  {
    "STUDYID": "KN868",
    "DOMAIN": "RS",
    "USUBJID": "KN868-0001-0017",
    "RSSEQ": 8,
    "RSTESTCD": "OVRLRESP",
    "RSTEST": "Overall Response",
    "RSCAT": "RECIST 1.1",
    "RSORRES": "PR",
    "RSSTRESC": "PR",
    "RSEVAL": "INVESTIGATOR",
    "VISITNUM": 8,
    "VISIT": "WEEK 72",
    "RSDTC": "2021-07-23",
    "RSDY": 504
  },
  {
    "STUDYID": "KN868",
    "DOMAIN": "RS",
    "USUBJID": "KN868-0001-0017",
    "RSSEQ": 9,
    "RSTESTCD": "BESTRESP",
    "RSTEST": "Best Overall Response",
    "RSCAT": "RECIST 1.1",
    "RSORRES": "PR",
    "RSSTRESC": "PR",
    "RSEVAL": "INVESTIGATOR",
    "VISITNUM": 999,
    "VISIT": "BEST RESPONSE",
    "RSDTC": "2023-09-30"
  },
  {
    "STUDYID": "KN868",
    "DOMAIN": "RS",
    "USUBJID": "KN868-0001-0018",
    "RSSEQ": 1,
    "RSTESTCD": "OVRLRESP",
    "RSTEST": "Overall Response",
    "RSCAT": "RECIST 1.1",
    "RSORRES": "PR",
    "RSSTRESC": "PR",
    "RSEVAL": "INVESTIGATOR",
    "VISITNUM": 1,
    "VISIT": "WEEK 9",
    "RSDTC": "2022-02-24",
    "RSDY": 63
  },
  {
    "STUDYID": "KN868",
    "DOMAIN": "RS",
    "USUBJID": "KN868-0001-0018",
    "RSSEQ": 2,
    "RSTESTCD": "OVRLRESP",
    "RSTEST": "Overall Response",
    "RSCAT": "RECIST 1.1",
    "RSORRES": "PR",
    "RSSTRESC": "PR",
    "RSEVAL": "INVESTIGATOR",
    "VISITNUM": 2,
    "VISIT": "WEEK 18",
    "RSDTC": "2022-04-27",
    "RSDY": 126
  },
  {
    "STUDYID": "KN868",
    "DOMAIN": "RS",
    "USUBJID": "KN868-0001-0018",
    "RSSEQ": 3,
    "RSTESTCD": "OVRLRESP",
    "RSTEST": "Overall Response",
    "RSCAT": "RECIST 1.1",
    "RSORRES": "CR",
    "RSSTRESC": "CR",
    "RSEVAL": "INVESTIGATOR",
    "VISITNUM": 3,
    "VISIT": "WEEK 27",
    "RSDTC": "2022-06-28",
    "RSDY": 189
  },
  {
    "STUDYID": "KN868",
    "DOMAIN": "RS",
    "USUBJID": "KN868-0001-0018",
    "RSSEQ": 4,
    "RSTESTCD": "OVRLRESP",
    "RSTEST": "Overall Response",
    "RSCAT": "RECIST 1.1",
    "RSORRES": "PR",
    "RSSTRESC": "PR",
    "RSEVAL": "INVESTIGATOR",
    "VISITNUM": 4,
    "VISIT": "WEEK 36",
    "RSDTC": "2022-09-03",
    "RSDY": 252
  },
  {
    "STUDYID": "KN868",
    "DOMAIN": "RS",
    "USUBJID": "KN868-0001-0018",
    "RSSEQ": 5,
    "RSTESTCD": "OVRLRESP",
    "RSTEST": "Overall Response",
    "RSCAT": "RECIST 1.1",
    "RSORRES": "PR",
    "RSSTRESC": "PR",
    "RSEVAL": "INVESTIGATOR",
    "VISITNUM": 5,
    "VISIT": "WEEK 45",
    "RSDTC": "2022-11-06",
    "RSDY": 315
  },
  {
    "STUDYID": "KN868",
    "DOMAIN": "RS",
    "USUBJID": "KN868-0001-0018",
    "RSSEQ": 6,
    "RSTESTCD": "OVRLRESP",
    "RSTEST": "Overall Response",
    "RSCAT": "RECIST 1.1",
    "RSORRES": "PR",
    "RSSTRESC": "PR",
    "RSEVAL": "INVESTIGATOR",
    "VISITNUM": 6,
    "VISIT": "WEEK 54",
    "RSDTC": "2023-01-05",
    "RSDY": 378
  },
  {
    "STUDYID": "KN868",
    "DOMAIN": "RS",
    "USUBJID": "KN868-0001-0018",
    "RSSEQ": 7,
    "RSTESTCD": "OVRLRESP",
    "RSTEST": "Overall Response",
    "RSCAT": "RECIST 1.1",
    "RSORRES": "CR",
    "RSSTRESC": "CR",
    "RSEVAL": "INVESTIGATOR",
    "VISITNUM": 7,
    "VISIT": "WEEK 63",
    "RSDTC": "2023-03-09",
    "RSDY": 441
  },
  {
    "STUDYID": "KN868",
    "DOMAIN": "RS",
    "USUBJID": "KN868-0001-0018",
    "RSSEQ": 8,
    "RSTESTCD": "OVRLRESP",
    "RSTEST": "Overall Response",
    "RSCAT": "RECIST 1.1",
    "RSORRES": "PR",
    "RSSTRESC": "PR",
    "RSEVAL": "INVESTIGATOR",
    "VISITNUM": 8,
    "VISIT": "WEEK 72",
    "RSDTC": "2023-05-12",
    "RSDY": 504
  },
  {
    "STUDYID": "KN868",
    "DOMAIN": "RS",
    "USUBJID": "KN868-0001-0018",
    "RSSEQ": 9,
    "RSTESTCD": "BESTRESP",
    "RSTEST": "Best Overall Response",
    "RSCAT": "RECIST 1.1",
    "RSORRES": "PR",
    "RSSTRESC": "PR",
    "RSEVAL": "INVESTIGATOR",
    "VISITNUM": 999,
    "VISIT": "BEST RESPONSE",
    "RSDTC": "2023-09-30"
  },
  {
    "STUDYID": "KN868",
    "DOMAIN": "RS",
    "USUBJID": "KN868-0001-0019",
    "RSSEQ": 1,
    "RSTESTCD": "OVRLRESP",
    "RSTEST": "Overall Response",
    "RSCAT": "RECIST 1.1",
    "RSORRES": "SD",
    "RSSTRESC": "SD",
    "RSEVAL": "INVESTIGATOR",
    "VISITNUM": 1,
    "VISIT": "WEEK 9",
    "RSDTC": "2020-06-17",
    "RSDY": 63
  },
  {
    "STUDYID": "KN868",
    "DOMAIN": "RS",
    "USUBJID": "KN868-0001-0019",
    "RSSEQ": 2,
    "RSTESTCD": "OVRLRESP",
    "RSTEST": "Overall Response",
    "RSCAT": "RECIST 1.1",
    "RSORRES": "SD",
    "RSSTRESC": "SD",
    "RSEVAL": "INVESTIGATOR",
    "VISITNUM": 2,
    "VISIT": "WEEK 18",
    "RSDTC": "2020-08-19",
    "RSDY": 126
  },
  {
    "STUDYID": "KN868",
    "DOMAIN": "RS",
    "USUBJID": "KN868-0001-0019",
    "RSSEQ": 3,
    "RSTESTCD": "OVRLRESP",
    "RSTEST": "Overall Response",
    "RSCAT": "RECIST 1.1",
    "RSORRES": "SD",
    "RSSTRESC": "SD",
    "RSEVAL": "INVESTIGATOR",
    "VISITNUM": 3,
    "VISIT": "WEEK 27",
    "RSDTC": "2020-10-22",
    "RSDY": 189
  },
  {
    "STUDYID": "KN868",
    "DOMAIN": "RS",
    "USUBJID": "KN868-0001-0019",
    "RSSEQ": 4,
    "RSTESTCD": "OVRLRESP",
    "RSTEST": "Overall Response",
    "RSCAT": "RECIST 1.1",
    "RSORRES": "SD",
    "RSSTRESC": "SD",
    "RSEVAL": "INVESTIGATOR",
    "VISITNUM": 4,
    "VISIT": "WEEK 36",
    "RSDTC": "2020-12-22",
    "RSDY": 252
  },
  {
    "STUDYID": "KN868",
    "DOMAIN": "RS",
    "USUBJID": "KN868-0001-0019",
    "RSSEQ": 5,
    "RSTESTCD": "OVRLRESP",
    "RSTEST": "Overall Response",
    "RSCAT": "RECIST 1.1",
    "RSORRES": "SD",
    "RSSTRESC": "SD",
    "RSEVAL": "INVESTIGATOR",
    "VISITNUM": 5,
    "VISIT": "WEEK 45",
    "RSDTC": "2021-02-24",
    "RSDY": 315
  },
  {
    "STUDYID": "KN868",
    "DOMAIN": "RS",
    "USUBJID": "KN868-0001-0019",
    "RSSEQ": 6,
    "RSTESTCD": "OVRLRESP",
    "RSTEST": "Overall Response",
    "RSCAT": "RECIST 1.1",
    "RSORRES": "SD",
    "RSSTRESC": "SD",
    "RSEVAL": "INVESTIGATOR",
    "VISITNUM": 6,
    "VISIT": "WEEK 54",
    "RSDTC": "2021-04-24",
    "RSDY": 378
  },
  {
    "STUDYID": "KN868",
    "DOMAIN": "RS",
    "USUBJID": "KN868-0001-0019",
    "RSSEQ": 7,
    "RSTESTCD": "OVRLRESP",
    "RSTEST": "Overall Response",
    "RSCAT": "RECIST 1.1",
    "RSORRES": "SD",
    "RSSTRESC": "SD",
    "RSEVAL": "INVESTIGATOR",
    "VISITNUM": 7,
    "VISIT": "WEEK 63",
    "RSDTC": "2021-06-29",
    "RSDY": 441
  },
  {
    "STUDYID": "KN868",
    "DOMAIN": "RS",
    "USUBJID": "KN868-0001-0019",
    "RSSEQ": 8,
    "RSTESTCD": "OVRLRESP",
    "RSTEST": "Overall Response",
    "RSCAT": "RECIST 1.1",
    "RSORRES": "SD",
    "RSSTRESC": "SD",
    "RSEVAL": "INVESTIGATOR",
    "VISITNUM": 8,
    "VISIT": "WEEK 72",
    "RSDTC": "2021-09-01",
    "RSDY": 504
  },
  {
    "STUDYID": "KN868",
    "DOMAIN": "RS",
    "USUBJID": "KN868-0001-0019",
    "RSSEQ": 9,
    "RSTESTCD": "BESTRESP",
    "RSTEST": "Best Overall Response",
    "RSCAT": "RECIST 1.1",
    "RSORRES": "SD",
    "RSSTRESC": "SD",
    "RSEVAL": "INVESTIGATOR",
    "VISITNUM": 999,
    "VISIT": "BEST RESPONSE",
    "RSDTC": "2023-09-30"
  },
  {
    "STUDYID": "KN868",
    "DOMAIN": "RS",
    "USUBJID": "KN868-0001-0020",
    "RSSEQ": 1,
    "RSTESTCD": "OVRLRESP",
    "RSTEST": "Overall Response",
    "RSCAT": "RECIST 1.1",
    "RSORRES": "SD",
    "RSSTRESC": "SD",
    "RSEVAL": "INVESTIGATOR",
    "VISITNUM": 1,
    "VISIT": "WEEK 9",
    "RSDTC": "2021-08-13",
    "RSDY": 63
  },
  {
    "STUDYID": "KN868",
    "DOMAIN": "RS",
    "USUBJID": "KN868-0001-0020",
    "RSSEQ": 2,
    "RSTESTCD": "OVRLRESP",
    "RSTEST": "Overall Response",
    "RSCAT": "RECIST 1.1",
    "RSORRES": "SD",
    "RSSTRESC": "SD",
    "RSEVAL": "INVESTIGATOR",
    "VISITNUM": 2,
    "VISIT": "WEEK 18",
    "RSDTC": "2021-10-19",
    "RSDY": 126
  },
  {
    "STUDYID": "KN868",
    "DOMAIN": "RS",
    "USUBJID": "KN868-0001-0020",
    "RSSEQ": 3,
    "RSTESTCD": "OVRLRESP",
    "RSTEST": "Overall Response",
    "RSCAT": "RECIST 1.1",
    "RSORRES": "SD",
    "RSSTRESC": "SD",
    "RSEVAL": "INVESTIGATOR",
    "VISITNUM": 3,
    "VISIT": "WEEK 27",
    "RSDTC": "2021-12-20",
    "RSDY": 189
  },
  {
    "STUDYID": "KN868",
    "DOMAIN": "RS",
    "USUBJID": "KN868-0001-0020",
    "RSSEQ": 4,
    "RSTESTCD": "OVRLRESP",
    "RSTEST": "Overall Response",
    "RSCAT": "RECIST 1.1",
    "RSORRES": "SD",
    "RSSTRESC": "SD",
    "RSEVAL": "INVESTIGATOR",
    "VISITNUM": 4,
    "VISIT": "WEEK 36",
    "RSDTC": "2022-02-20",
    "RSDY": 252
  },
  {
    "STUDYID": "KN868",
    "DOMAIN": "RS",
    "USUBJID": "KN868-0001-0020",
    "RSSEQ": 5,
    "RSTESTCD": "OVRLRESP",
    "RSTEST": "Overall Response",
    "RSCAT": "RECIST 1.1",
    "RSORRES": "SD",
    "RSSTRESC": "SD",
    "RSEVAL": "INVESTIGATOR",
    "VISITNUM": 5,
    "VISIT": "WEEK 45",
    "RSDTC": "2022-04-21",
    "RSDY": 315
  },
  {
    "STUDYID": "KN868",
    "DOMAIN": "RS",
    "USUBJID": "KN868-0001-0020",
    "RSSEQ": 6,
    "RSTESTCD": "OVRLRESP",
    "RSTEST": "Overall Response",
    "RSCAT": "RECIST 1.1",
    "RSORRES": "SD",
    "RSSTRESC": "SD",
    "RSEVAL": "INVESTIGATOR",
    "VISITNUM": 6,
    "VISIT": "WEEK 54",
    "RSDTC": "2022-06-28",
    "RSDY": 378
  },
  {
    "STUDYID": "KN868",
    "DOMAIN": "RS",
    "USUBJID": "KN868-0001-0020",
    "RSSEQ": 7,
    "RSTESTCD": "OVRLRESP",
    "RSTEST": "Overall Response",
    "RSCAT": "RECIST 1.1",
    "RSORRES": "SD",
    "RSSTRESC": "SD",
    "RSEVAL": "INVESTIGATOR",
    "VISITNUM": 7,
    "VISIT": "WEEK 63",
    "RSDTC": "2022-08-30",
    "RSDY": 441
  },
  {
    "STUDYID": "KN868",
    "DOMAIN": "RS",
    "USUBJID": "KN868-0001-0020",
    "RSSEQ": 8,
    "RSTESTCD": "OVRLRESP",
    "RSTEST": "Overall Response",
    "RSCAT": "RECIST 1.1",
    "RSORRES": "SD",
    "RSSTRESC": "SD",
    "RSEVAL": "INVESTIGATOR",
    "VISITNUM": 8,
    "VISIT": "WEEK 72",
    "RSDTC": "2022-11-01",
    "RSDY": 504
  },
  {
    "STUDYID": "KN868",
    "DOMAIN": "RS",
    "USUBJID": "KN868-0001-0020",
    "RSSEQ": 9,
    "RSTESTCD": "BESTRESP",
    "RSTEST": "Best Overall Response",
    "RSCAT": "RECIST 1.1",
    "RSORRES": "SD",
    "RSSTRESC": "SD",
    "RSEVAL": "INVESTIGATOR",
    "VISITNUM": 999,
    "VISIT": "BEST RESPONSE",
    "RSDTC": "2023-09-30"
  },
  {
    "STUDYID": "KN868",
    "DOMAIN": "RS",
    "USUBJID": "KN868-0001-0021",
    "RSSEQ": 1,
    "RSTESTCD": "OVRLRESP",
    "RSTEST": "Overall Response",
    "RSCAT": "RECIST 1.1",
    "RSORRES": "SD",
    "RSSTRESC": "SD",
    "RSEVAL": "INVESTIGATOR",
    "VISITNUM": 1,
    "VISIT": "WEEK 9",
    "RSDTC": "2021-06-18",
    "RSDY": 63
  },
  {
    "STUDYID": "KN868",
    "DOMAIN": "RS",
    "USUBJID": "KN868-0001-0021",
    "RSSEQ": 2,
    "RSTESTCD": "OVRLRESP",
    "RSTEST": "Overall Response",
    "RSCAT": "RECIST 1.1",
    "RSORRES": "PD",
    "RSSTRESC": "PD",
    "RSEVAL": "INVESTIGATOR",
    "VISITNUM": 2,
    "VISIT": "WEEK 18",
    "RSDTC": "2021-08-16",
    "RSDY": 126
  },
  {
    "STUDYID": "KN868",
    "DOMAIN": "RS",
    "USUBJID": "KN868-0001-0021",
    "RSSEQ": 3,
    "RSTESTCD": "OVRLRESP",
    "RSTEST": "Overall Response",
    "RSCAT": "RECIST 1.1",
    "RSORRES": "PD",
    "RSSTRESC": "PD",
    "RSEVAL": "INVESTIGATOR",
    "VISITNUM": 3,
    "VISIT": "WEEK 27",
    "RSDTC": "2021-10-20",
    "RSDY": 189
  },
  {
    "STUDYID": "KN868",
    "DOMAIN": "RS",
    "USUBJID": "KN868-0001-0021",
    "RSSEQ": 4,
    "RSTESTCD": "OVRLRESP",
    "RSTEST": "Overall Response",
    "RSCAT": "RECIST 1.1",
    "RSORRES": "PD",
    "RSSTRESC": "PD",
    "RSEVAL": "INVESTIGATOR",
    "VISITNUM": 4,
    "VISIT": "WEEK 36",
    "RSDTC": "2021-12-20",
    "RSDY": 252
  },
  {
    "STUDYID": "KN868",
    "DOMAIN": "RS",
    "USUBJID": "KN868-0001-0021",
    "RSSEQ": 5,
    "RSTESTCD": "OVRLRESP",
    "RSTEST": "Overall Response",
    "RSCAT": "RECIST 1.1",
    "RSORRES": "PD",
    "RSSTRESC": "PD",
    "RSEVAL": "INVESTIGATOR",
    "VISITNUM": 5,
    "VISIT": "WEEK 45",
    "RSDTC": "2022-02-23",
    "RSDY": 315
  },
  {
    "STUDYID": "KN868",
    "DOMAIN": "RS",
    "USUBJID": "KN868-0001-0021",
    "RSSEQ": 6,
    "RSTESTCD": "OVRLRESP",
    "RSTEST": "Overall Response",
    "RSCAT": "RECIST 1.1",
    "RSORRES": "PD",
    "RSSTRESC": "PD",
    "RSEVAL": "INVESTIGATOR",
    "VISITNUM": 6,
    "VISIT": "WEEK 54",
    "RSDTC": "2022-04-29",
    "RSDY": 378
  },
  {
    "STUDYID": "KN868",
    "DOMAIN": "RS",
    "USUBJID": "KN868-0001-0021",
    "RSSEQ": 7,
    "RSTESTCD": "OVRLRESP",
    "RSTEST": "Overall Response",
    "RSCAT": "RECIST 1.1",
    "RSORRES": "PD",
    "RSSTRESC": "PD",
    "RSEVAL": "INVESTIGATOR",
    "VISITNUM": 7,
    "VISIT": "WEEK 63",
    "RSDTC": "2022-07-01",
    "RSDY": 441
  },
  {
    "STUDYID": "KN868",
    "DOMAIN": "RS",
    "USUBJID": "KN868-0001-0021",
    "RSSEQ": 8,
    "RSTESTCD": "OVRLRESP",
    "RSTEST": "Overall Response",
    "RSCAT": "RECIST 1.1",
    "RSORRES": "PD",
    "RSSTRESC": "PD",
    "RSEVAL": "INVESTIGATOR",
    "VISITNUM": 8,
    "VISIT": "WEEK 72",
    "RSDTC": "2022-08-30",
    "RSDY": 504
  },
  {
    "STUDYID": "KN868",
    "DOMAIN": "RS",
    "USUBJID": "KN868-0001-0021",
    "RSSEQ": 9,
    "RSTESTCD": "BESTRESP",
    "RSTEST": "Best Overall Response",
    "RSCAT": "RECIST 1.1",
    "RSORRES": "PD",
    "RSSTRESC": "PD",
    "RSEVAL": "INVESTIGATOR",
    "VISITNUM": 999,
    "VISIT": "BEST RESPONSE",
    "RSDTC": "2023-09-30"
  },
  {
    "STUDYID": "KN868",
    "DOMAIN": "RS",
    "USUBJID": "KN868-0001-0022",
    "RSSEQ": 1,
    "RSTESTCD": "OVRLRESP",
    "RSTEST": "Overall Response",
    "RSCAT": "RECIST 1.1",
    "RSORRES": "SD",
    "RSSTRESC": "SD",
    "RSEVAL": "INVESTIGATOR",
    "VISITNUM": 1,
    "VISIT": "WEEK 9",
    "RSDTC": "2021-04-08",
    "RSDY": 63
  },
  {
    "STUDYID": "KN868",
    "DOMAIN": "RS",
    "USUBJID": "KN868-0001-0022",
    "RSSEQ": 2,
    "RSTESTCD": "OVRLRESP",
    "RSTEST": "Overall Response",
    "RSCAT": "RECIST 1.1",
    "RSORRES": "SD",
    "RSSTRESC": "SD",
    "RSEVAL": "INVESTIGATOR",
    "VISITNUM": 2,
    "VISIT": "WEEK 18",
    "RSDTC": "2021-06-05",
    "RSDY": 126
  },
  {
    "STUDYID": "KN868",
    "DOMAIN": "RS",
    "USUBJID": "KN868-0001-0022",
    "RSSEQ": 3,
    "RSTESTCD": "OVRLRESP",
    "RSTEST": "Overall Response",
    "RSCAT": "RECIST 1.1",
    "RSORRES": "SD",
    "RSSTRESC": "SD",
    "RSEVAL": "INVESTIGATOR",
    "VISITNUM": 3,
    "VISIT": "WEEK 27",
    "RSDTC": "2021-08-10",
    "RSDY": 189
  },
  {
    "STUDYID": "KN868",
    "DOMAIN": "RS",
    "USUBJID": "KN868-0001-0022",
    "RSSEQ": 4,
    "RSTESTCD": "OVRLRESP",
    "RSTEST": "Overall Response",
    "RSCAT": "RECIST 1.1",
    "RSORRES": "SD",
    "RSSTRESC": "SD",
    "RSEVAL": "INVESTIGATOR",
    "VISITNUM": 4,
    "VISIT": "WEEK 36",
    "RSDTC": "2021-10-10",
    "RSDY": 252
  },
  {
    "STUDYID": "KN868",
    "DOMAIN": "RS",
    "USUBJID": "KN868-0001-0022",
    "RSSEQ": 5,
    "RSTESTCD": "OVRLRESP",
    "RSTEST": "Overall Response",
    "RSCAT": "RECIST 1.1",
    "RSORRES": "SD",
    "RSSTRESC": "SD",
    "RSEVAL": "INVESTIGATOR",
    "VISITNUM": 5,
    "VISIT": "WEEK 45",
    "RSDTC": "2021-12-14",
    "RSDY": 315
  },
  {
    "STUDYID": "KN868",
    "DOMAIN": "RS",
    "USUBJID": "KN868-0001-0022",
    "RSSEQ": 6,
    "RSTESTCD": "OVRLRESP",
    "RSTEST": "Overall Response",
    "RSCAT": "RECIST 1.1",
    "RSORRES": "SD",
    "RSSTRESC": "SD",
    "RSEVAL": "INVESTIGATOR",
    "VISITNUM": 6,
    "VISIT": "WEEK 54",
    "RSDTC": "2022-02-12",
    "RSDY": 378
  },
  {
    "STUDYID": "KN868",
    "DOMAIN": "RS",
    "USUBJID": "KN868-0001-0022",
    "RSSEQ": 7,
    "RSTESTCD": "OVRLRESP",
    "RSTEST": "Overall Response",
    "RSCAT": "RECIST 1.1",
    "RSORRES": "SD",
    "RSSTRESC": "SD",
    "RSEVAL": "INVESTIGATOR",
    "VISITNUM": 7,
    "VISIT": "WEEK 63",
    "RSDTC": "2022-04-17",
    "RSDY": 441
  },
  {
    "STUDYID": "KN868",
    "DOMAIN": "RS",
    "USUBJID": "KN868-0001-0022",
    "RSSEQ": 8,
    "RSTESTCD": "OVRLRESP",
    "RSTEST": "Overall Response",
    "RSCAT": "RECIST 1.1",
    "RSORRES": "SD",
    "RSSTRESC": "SD",
    "RSEVAL": "INVESTIGATOR",
    "VISITNUM": 8,
    "VISIT": "WEEK 72",
    "RSDTC": "2022-06-18",
    "RSDY": 504
  },
  {
    "STUDYID": "KN868",
    "DOMAIN": "RS",
    "USUBJID": "KN868-0001-0022",
    "RSSEQ": 9,
    "RSTESTCD": "BESTRESP",
    "RSTEST": "Best Overall Response",
    "RSCAT": "RECIST 1.1",
    "RSORRES": "SD",
    "RSSTRESC": "SD",
    "RSEVAL": "INVESTIGATOR",
    "VISITNUM": 999,
    "VISIT": "BEST RESPONSE",
    "RSDTC": "2023-09-30"
  },
  {
    "STUDYID": "KN868",
    "DOMAIN": "RS",
    "USUBJID": "KN868-0001-0023",
    "RSSEQ": 1,
    "RSTESTCD": "OVRLRESP",
    "RSTEST": "Overall Response",
    "RSCAT": "RECIST 1.1",
    "RSORRES": "PR",
    "RSSTRESC": "PR",
    "RSEVAL": "INVESTIGATOR",
    "VISITNUM": 1,
    "VISIT": "WEEK 9",
    "RSDTC": "2022-04-29",
    "RSDY": 63
  },
  {
    "STUDYID": "KN868",
    "DOMAIN": "RS",
    "USUBJID": "KN868-0001-0023",
    "RSSEQ": 2,
    "RSTESTCD": "OVRLRESP",
    "RSTEST": "Overall Response",
    "RSCAT": "RECIST 1.1",
    "RSORRES": "CR",
    "RSSTRESC": "CR",
    "RSEVAL": "INVESTIGATOR",
    "VISITNUM": 2,
    "VISIT": "WEEK 18",
    "RSDTC": "2022-06-29",
    "RSDY": 126
  },
  {
    "STUDYID": "KN868",
    "DOMAIN": "RS",
    "USUBJID": "KN868-0001-0023",
    "RSSEQ": 3,
    "RSTESTCD": "OVRLRESP",
    "RSTEST": "Overall Response",
    "RSCAT": "RECIST 1.1",
    "RSORRES": "CR",
    "RSSTRESC": "CR",
    "RSEVAL": "INVESTIGATOR",
    "VISITNUM": 3,
    "VISIT": "WEEK 27",
    "RSDTC": "2022-09-06",
    "RSDY": 189
  },
  {
    "STUDYID": "KN868",
    "DOMAIN": "RS",
    "USUBJID": "KN868-0001-0023",
    "RSSEQ": 4,
    "RSTESTCD": "OVRLRESP",
    "RSTEST": "Overall Response",
    "RSCAT": "RECIST 1.1",
    "RSORRES": "CR",
    "RSSTRESC": "CR",
    "RSEVAL": "INVESTIGATOR",
    "VISITNUM": 4,
    "VISIT": "WEEK 36",
    "RSDTC": "2022-11-06",
    "RSDY": 252
  },
  {
    "STUDYID": "KN868",
    "DOMAIN": "RS",
    "USUBJID": "KN868-0001-0023",
    "RSSEQ": 5,
    "RSTESTCD": "OVRLRESP",
    "RSTEST": "Overall Response",
    "RSCAT": "RECIST 1.1",
    "RSORRES": "CR",
    "RSSTRESC": "CR",
    "RSEVAL": "INVESTIGATOR",
    "VISITNUM": 5,
    "VISIT": "WEEK 45",
    "RSDTC": "2023-01-04",
    "RSDY": 315
  },
  {
    "STUDYID": "KN868",
    "DOMAIN": "RS",
    "USUBJID": "KN868-0001-0023",
    "RSSEQ": 6,
    "RSTESTCD": "OVRLRESP",
    "RSTEST": "Overall Response",
    "RSCAT": "RECIST 1.1",
    "RSORRES": "CR",
    "RSSTRESC": "CR",
    "RSEVAL": "INVESTIGATOR",
    "VISITNUM": 6,
    "VISIT": "WEEK 54",
    "RSDTC": "2023-03-12",
    "RSDY": 378
  },
  {
    "STUDYID": "KN868",
    "DOMAIN": "RS",
    "USUBJID": "KN868-0001-0023",
    "RSSEQ": 7,
    "RSTESTCD": "OVRLRESP",
    "RSTEST": "Overall Response",
    "RSCAT": "RECIST 1.1",
    "RSORRES": "CR",
    "RSSTRESC": "CR",
    "RSEVAL": "INVESTIGATOR",
    "VISITNUM": 7,
    "VISIT": "WEEK 63",
    "RSDTC": "2023-05-14",
    "RSDY": 441
  },
  {
    "STUDYID": "KN868",
    "DOMAIN": "RS",
    "USUBJID": "KN868-0001-0023",
    "RSSEQ": 8,
    "RSTESTCD": "OVRLRESP",
    "RSTEST": "Overall Response",
    "RSCAT": "RECIST 1.1",
    "RSORRES": "CR",
    "RSSTRESC": "CR",
    "RSEVAL": "INVESTIGATOR",
    "VISITNUM": 8,
    "VISIT": "WEEK 72",
    "RSDTC": "2023-07-14",
    "RSDY": 504
  },
  {
    "STUDYID": "KN868",
    "DOMAIN": "RS",
    "USUBJID": "KN868-0001-0023",
    "RSSEQ": 9,
    "RSTESTCD": "BESTRESP",
    "RSTEST": "Best Overall Response",
    "RSCAT": "RECIST 1.1",
    "RSORRES": "CR",
    "RSSTRESC": "CR",
    "RSEVAL": "INVESTIGATOR",
    "VISITNUM": 999,
    "VISIT": "BEST RESPONSE",
    "RSDTC": "2023-09-30"
  },
  {
    "STUDYID": "KN868",
    "DOMAIN": "RS",
    "USUBJID": "KN868-0001-0024",
    "RSSEQ": 1,
    "RSTESTCD": "OVRLRESP",
    "RSTEST": "Overall Response",
    "RSCAT": "RECIST 1.1",
    "RSORRES": "SD",
    "RSSTRESC": "SD",
    "RSEVAL": "INVESTIGATOR",
    "VISITNUM": 1,
    "VISIT": "WEEK 9",
    "RSDTC": "2020-07-15",
    "RSDY": 63
  },
  {
    "STUDYID": "KN868",
    "DOMAIN": "RS",
    "USUBJID": "KN868-0001-0024",
    "RSSEQ": 2,
    "RSTESTCD": "OVRLRESP",
    "RSTEST": "Overall Response",
    "RSCAT": "RECIST 1.1",
    "RSORRES": "PR",
    "RSSTRESC": "PR",
    "RSEVAL": "INVESTIGATOR",
    "VISITNUM": 2,
    "VISIT": "WEEK 18",
    "RSDTC": "2020-09-15",
    "RSDY": 126
  },
  {
    "STUDYID": "KN868",
    "DOMAIN": "RS",
    "USUBJID": "KN868-0001-0024",
    "RSSEQ": 3,
    "RSTESTCD": "OVRLRESP",
    "RSTEST": "Overall Response",
    "RSCAT": "RECIST 1.1",
    "RSORRES": "PR",
    "RSSTRESC": "PR",
    "RSEVAL": "INVESTIGATOR",
    "VISITNUM": 3,
    "VISIT": "WEEK 27",
    "RSDTC": "2020-11-16",
    "RSDY": 189
  },
  {
    "STUDYID": "KN868",
    "DOMAIN": "RS",
    "USUBJID": "KN868-0001-0024",
    "RSSEQ": 4,
    "RSTESTCD": "OVRLRESP",
    "RSTEST": "Overall Response",
    "RSCAT": "RECIST 1.1",
    "RSORRES": "PR",
    "RSSTRESC": "PR",
    "RSEVAL": "INVESTIGATOR",
    "VISITNUM": 4,
    "VISIT": "WEEK 36",
    "RSDTC": "2021-01-19",
    "RSDY": 252
  },
  {
    "STUDYID": "KN868",
    "DOMAIN": "RS",
    "USUBJID": "KN868-0001-0024",
    "RSSEQ": 5,
    "RSTESTCD": "OVRLRESP",
    "RSTEST": "Overall Response",
    "RSCAT": "RECIST 1.1",
    "RSORRES": "CR",
    "RSSTRESC": "CR",
    "RSEVAL": "INVESTIGATOR",
    "VISITNUM": 5,
    "VISIT": "WEEK 45",
    "RSDTC": "2021-03-24",
    "RSDY": 315
  },
  {
    "STUDYID": "KN868",
    "DOMAIN": "RS",
    "USUBJID": "KN868-0001-0024",
    "RSSEQ": 6,
    "RSTESTCD": "OVRLRESP",
    "RSTEST": "Overall Response",
    "RSCAT": "RECIST 1.1",
    "RSORRES": "PR",
    "RSSTRESC": "PR",
    "RSEVAL": "INVESTIGATOR",
    "VISITNUM": 6,
    "VISIT": "WEEK 54",
    "RSDTC": "2021-05-26",
    "RSDY": 378
  },
  {
    "STUDYID": "KN868",
    "DOMAIN": "RS",
    "USUBJID": "KN868-0001-0024",
    "RSSEQ": 7,
    "RSTESTCD": "OVRLRESP",
    "RSTEST": "Overall Response",
    "RSCAT": "RECIST 1.1",
    "RSORRES": "PR",
    "RSSTRESC": "PR",
    "RSEVAL": "INVESTIGATOR",
    "VISITNUM": 7,
    "VISIT": "WEEK 63",
    "RSDTC": "2021-07-26",
    "RSDY": 441
  },
  {
    "STUDYID": "KN868",
    "DOMAIN": "RS",
    "USUBJID": "KN868-0001-0024",
    "RSSEQ": 8,
    "RSTESTCD": "OVRLRESP",
    "RSTEST": "Overall Response",
    "RSCAT": "RECIST 1.1",
    "RSORRES": "PR",
    "RSSTRESC": "PR",
    "RSEVAL": "INVESTIGATOR",
    "VISITNUM": 8,
    "VISIT": "WEEK 72",
    "RSDTC": "2021-10-01",
    "RSDY": 504
  },
  {
    "STUDYID": "KN868",
    "DOMAIN": "RS",
    "USUBJID": "KN868-0001-0024",
    "RSSEQ": 9,
    "RSTESTCD": "BESTRESP",
    "RSTEST": "Best Overall Response",
    "RSCAT": "RECIST 1.1",
    "RSORRES": "PR",
    "RSSTRESC": "PR",
    "RSEVAL": "INVESTIGATOR",
    "VISITNUM": 999,
    "VISIT": "BEST RESPONSE",
    "RSDTC": "2023-09-30"
  },
  {
    "STUDYID": "KN868",
    "DOMAIN": "RS",
    "USUBJID": "KN868-0001-0025",
    "RSSEQ": 1,
    "RSTESTCD": "OVRLRESP",
    "RSTEST": "Overall Response",
    "RSCAT": "RECIST 1.1",
    "RSORRES": "SD",
    "RSSTRESC": "SD",
    "RSEVAL": "INVESTIGATOR",
    "VISITNUM": 1,
    "VISIT": "WEEK 9",
    "RSDTC": "2021-08-24",
    "RSDY": 63
  },
  {
    "STUDYID": "KN868",
    "DOMAIN": "RS",
    "USUBJID": "KN868-0001-0025",
    "RSSEQ": 2,
    "RSTESTCD": "OVRLRESP",
    "RSTEST": "Overall Response",
    "RSCAT": "RECIST 1.1",
    "RSORRES": "PR",
    "RSSTRESC": "PR",
    "RSEVAL": "INVESTIGATOR",
    "VISITNUM": 2,
    "VISIT": "WEEK 18",
    "RSDTC": "2021-10-30",
    "RSDY": 126
  },
  {
    "STUDYID": "KN868",
    "DOMAIN": "RS",
    "USUBJID": "KN868-0001-0025",
    "RSSEQ": 3,
    "RSTESTCD": "OVRLRESP",
    "RSTEST": "Overall Response",
    "RSCAT": "RECIST 1.1",
    "RSORRES": "PR",
    "RSSTRESC": "PR",
    "RSEVAL": "INVESTIGATOR",
    "VISITNUM": 3,
    "VISIT": "WEEK 27",
    "RSDTC": "2022-01-03",
    "RSDY": 189
  },
  {
    "STUDYID": "KN868",
    "DOMAIN": "RS",
    "USUBJID": "KN868-0001-0025",
    "RSSEQ": 4,
    "RSTESTCD": "OVRLRESP",
    "RSTEST": "Overall Response",
    "RSCAT": "RECIST 1.1",
    "RSORRES": "PR",
    "RSSTRESC": "PR",
    "RSEVAL": "INVESTIGATOR",
    "VISITNUM": 4,
    "VISIT": "WEEK 36",
    "RSDTC": "2022-03-05",
    "RSDY": 252
  },
  {
    "STUDYID": "KN868",
    "DOMAIN": "RS",
    "USUBJID": "KN868-0001-0025",
    "RSSEQ": 5,
    "RSTESTCD": "OVRLRESP",
    "RSTEST": "Overall Response",
    "RSCAT": "RECIST 1.1",
    "RSORRES": "PR",
    "RSSTRESC": "PR",
    "RSEVAL": "INVESTIGATOR",
    "VISITNUM": 5,
    "VISIT": "WEEK 45",
    "RSDTC": "2022-05-09",
    "RSDY": 315
  },
  {
    "STUDYID": "KN868",
    "DOMAIN": "RS",
    "USUBJID": "KN868-0001-0025",
    "RSSEQ": 6,
    "RSTESTCD": "OVRLRESP",
    "RSTEST": "Overall Response",
    "RSCAT": "RECIST 1.1",
    "RSORRES": "CR",
    "RSSTRESC": "CR",
    "RSEVAL": "INVESTIGATOR",
    "VISITNUM": 6,
    "VISIT": "WEEK 54",
    "RSDTC": "2022-07-08",
    "RSDY": 378
  },
  {
    "STUDYID": "KN868",
    "DOMAIN": "RS",
    "USUBJID": "KN868-0001-0025",
    "RSSEQ": 7,
    "RSTESTCD": "OVRLRESP",
    "RSTEST": "Overall Response",
    "RSCAT": "RECIST 1.1",
    "RSORRES": "CR",
    "RSSTRESC": "CR",
    "RSEVAL": "INVESTIGATOR",
    "VISITNUM": 7,
    "VISIT": "WEEK 63",
    "RSDTC": "2022-09-07",
    "RSDY": 441
  },
  {
    "STUDYID": "KN868",
    "DOMAIN": "RS",
    "USUBJID": "KN868-0001-0025",
    "RSSEQ": 8,
    "RSTESTCD": "OVRLRESP",
    "RSTEST": "Overall Response",
    "RSCAT": "RECIST 1.1",
    "RSORRES": "PR",
    "RSSTRESC": "PR",
    "RSEVAL": "INVESTIGATOR",
    "VISITNUM": 8,
    "VISIT": "WEEK 72",
    "RSDTC": "2022-11-13",
    "RSDY": 504
  },
  {
    "STUDYID": "KN868",
    "DOMAIN": "RS",
    "USUBJID": "KN868-0001-0025",
    "RSSEQ": 9,
    "RSTESTCD": "BESTRESP",
    "RSTEST": "Best Overall Response",
    "RSCAT": "RECIST 1.1",
    "RSORRES": "PR",
    "RSSTRESC": "PR",
    "RSEVAL": "INVESTIGATOR",
    "VISITNUM": 999,
    "VISIT": "BEST RESPONSE",
    "RSDTC": "2023-09-30"
  },
  {
    "STUDYID": "KN868",
    "DOMAIN": "RS",
    "USUBJID": "KN868-0002-0001",
    "RSSEQ": 1,
    "RSTESTCD": "OVRLRESP",
    "RSTEST": "Overall Response",
    "RSCAT": "RECIST 1.1",
    "RSORRES": "SD",
    "RSSTRESC": "SD",
    "RSEVAL": "INVESTIGATOR",
    "VISITNUM": 1,
    "VISIT": "WEEK 9",
    "RSDTC": "2021-06-05",
    "RSDY": 63
  },
  {
    "STUDYID": "KN868",
    "DOMAIN": "RS",
    "USUBJID": "KN868-0002-0001",
    "RSSEQ": 2,
    "RSTESTCD": "OVRLRESP",
    "RSTEST": "Overall Response",
    "RSCAT": "RECIST 1.1",
    "RSORRES": "SD",
    "RSSTRESC": "SD",
    "RSEVAL": "INVESTIGATOR",
    "VISITNUM": 2,
    "VISIT": "WEEK 18",
    "RSDTC": "2021-08-05",
    "RSDY": 126
  },
  {
    "STUDYID": "KN868",
    "DOMAIN": "RS",
    "USUBJID": "KN868-0002-0001",
    "RSSEQ": 3,
    "RSTESTCD": "OVRLRESP",
    "RSTEST": "Overall Response",
    "RSCAT": "RECIST 1.1",
    "RSORRES": "SD",
    "RSSTRESC": "SD",
    "RSEVAL": "INVESTIGATOR",
    "VISITNUM": 3,
    "VISIT": "WEEK 27",
    "RSDTC": "2021-10-12",
    "RSDY": 189
  },
  {
    "STUDYID": "KN868",
    "DOMAIN": "RS",
    "USUBJID": "KN868-0002-0001",
    "RSSEQ": 4,
    "RSTESTCD": "OVRLRESP",
    "RSTEST": "Overall Response",
    "RSCAT": "RECIST 1.1",
    "RSORRES": "SD",
    "RSSTRESC": "SD",
    "RSEVAL": "INVESTIGATOR",
    "VISITNUM": 4,
    "VISIT": "WEEK 36",
    "RSDTC": "2021-12-14",
    "RSDY": 252
  },
  {
    "STUDYID": "KN868",
    "DOMAIN": "RS",
    "USUBJID": "KN868-0002-0001",
    "RSSEQ": 5,
    "RSTESTCD": "OVRLRESP",
    "RSTEST": "Overall Response",
    "RSCAT": "RECIST 1.1",
    "RSORRES": "SD",
    "RSSTRESC": "SD",
    "RSEVAL": "INVESTIGATOR",
    "VISITNUM": 5,
    "VISIT": "WEEK 45",
    "RSDTC": "2022-02-10",
    "RSDY": 315
  },
  {
    "STUDYID": "KN868",
    "DOMAIN": "RS",
    "USUBJID": "KN868-0002-0001",
    "RSSEQ": 6,
    "RSTESTCD": "OVRLRESP",
    "RSTEST": "Overall Response",
    "RSCAT": "RECIST 1.1",
    "RSORRES": "SD",
    "RSSTRESC": "SD",
    "RSEVAL": "INVESTIGATOR",
    "VISITNUM": 6,
    "VISIT": "WEEK 54",
    "RSDTC": "2022-04-20",
    "RSDY": 378
  },
  {
    "STUDYID": "KN868",
    "DOMAIN": "RS",
    "USUBJID": "KN868-0002-0001",
    "RSSEQ": 7,
    "RSTESTCD": "OVRLRESP",
    "RSTEST": "Overall Response",
    "RSCAT": "RECIST 1.1",
    "RSORRES": "SD",
    "RSSTRESC": "SD",
    "RSEVAL": "INVESTIGATOR",
    "VISITNUM": 7,
    "VISIT": "WEEK 63",
    "RSDTC": "2022-06-17",
    "RSDY": 441
  },
  {
    "STUDYID": "KN868",
    "DOMAIN": "RS",
    "USUBJID": "KN868-0002-0001",
    "RSSEQ": 8,
    "RSTESTCD": "OVRLRESP",
    "RSTEST": "Overall Response",
    "RSCAT": "RECIST 1.1",
    "RSORRES": "SD",
    "RSSTRESC": "SD",
    "RSEVAL": "INVESTIGATOR",
    "VISITNUM": 8,
    "VISIT": "WEEK 72",
    "RSDTC": "2022-08-23",
    "RSDY": 504
  },
  {
    "STUDYID": "KN868",
    "DOMAIN": "RS",
    "USUBJID": "KN868-0002-0001",
    "RSSEQ": 9,
    "RSTESTCD": "BESTRESP",
    "RSTEST": "Best Overall Response",
    "RSCAT": "RECIST 1.1",
    "RSORRES": "SD",
    "RSSTRESC": "SD",
    "RSEVAL": "INVESTIGATOR",
    "VISITNUM": 999,
    "VISIT": "BEST RESPONSE",
    "RSDTC": "2023-09-30"
  },
  {
    "STUDYID": "KN868",
    "DOMAIN": "RS",
    "USUBJID": "KN868-0002-0002",
    "RSSEQ": 1,
    "RSTESTCD": "OVRLRESP",
    "RSTEST": "Overall Response",
    "RSCAT": "RECIST 1.1",
    "RSORRES": "SD",
    "RSSTRESC": "SD",
    "RSEVAL": "INVESTIGATOR",
    "VISITNUM": 1,
    "VISIT": "WEEK 9",
    "RSDTC": "2022-03-25",
    "RSDY": 63
  },
  {
    "STUDYID": "KN868",
    "DOMAIN": "RS",
    "USUBJID": "KN868-0002-0002",
    "RSSEQ": 2,
    "RSTESTCD": "OVRLRESP",
    "RSTEST": "Overall Response",
    "RSCAT": "RECIST 1.1",
    "RSORRES": "CR",
    "RSSTRESC": "CR",
    "RSEVAL": "INVESTIGATOR",
    "VISITNUM": 2,
    "VISIT": "WEEK 18",
    "RSDTC": "2022-05-27",
    "RSDY": 126
  },
  {
    "STUDYID": "KN868",
    "DOMAIN": "RS",
    "USUBJID": "KN868-0002-0002",
    "RSSEQ": 3,
    "RSTESTCD": "OVRLRESP",
    "RSTEST": "Overall Response",
    "RSCAT": "RECIST 1.1",
    "RSORRES": "CR",
    "RSSTRESC": "CR",
    "RSEVAL": "INVESTIGATOR",
    "VISITNUM": 3,
    "VISIT": "WEEK 27",
    "RSDTC": "2022-07-25",
    "RSDY": 189
  },
  {
    "STUDYID": "KN868",
    "DOMAIN": "RS",
    "USUBJID": "KN868-0002-0002",
    "RSSEQ": 4,
    "RSTESTCD": "OVRLRESP",
    "RSTEST": "Overall Response",
    "RSCAT": "RECIST 1.1",
    "RSORRES": "CR",
    "RSSTRESC": "CR",
    "RSEVAL": "INVESTIGATOR",
    "VISITNUM": 4,
    "VISIT": "WEEK 36",
    "RSDTC": "2022-09-24",
    "RSDY": 252
  },
  {
    "STUDYID": "KN868",
    "DOMAIN": "RS",
    "USUBJID": "KN868-0002-0002",
    "RSSEQ": 5,
    "RSTESTCD": "OVRLRESP",
    "RSTEST": "Overall Response",
    "RSCAT": "RECIST 1.1",
    "RSORRES": "CR",
    "RSSTRESC": "CR",
    "RSEVAL": "INVESTIGATOR",
    "VISITNUM": 5,
    "VISIT": "WEEK 45",
    "RSDTC": "2022-11-27",
    "RSDY": 315
  },
  {
    "STUDYID": "KN868",
    "DOMAIN": "RS",
    "USUBJID": "KN868-0002-0002",
    "RSSEQ": 6,
    "RSTESTCD": "OVRLRESP",
    "RSTEST": "Overall Response",
    "RSCAT": "RECIST 1.1",
    "RSORRES": "CR",
    "RSSTRESC": "CR",
    "RSEVAL": "INVESTIGATOR",
    "VISITNUM": 6,
    "VISIT": "WEEK 54",
    "RSDTC": "2023-02-01",
    "RSDY": 378
  },
  {
    "STUDYID": "KN868",
    "DOMAIN": "RS",
    "USUBJID": "KN868-0002-0002",
    "RSSEQ": 7,
    "RSTESTCD": "OVRLRESP",
    "RSTEST": "Overall Response",
    "RSCAT": "RECIST 1.1",
    "RSORRES": "CR",
    "RSSTRESC": "CR",
    "RSEVAL": "INVESTIGATOR",
    "VISITNUM": 7,
    "VISIT": "WEEK 63",
    "RSDTC": "2023-04-01",
    "RSDY": 441
  },
  {
    "STUDYID": "KN868",
    "DOMAIN": "RS",
    "USUBJID": "KN868-0002-0002",
    "RSSEQ": 8,
    "RSTESTCD": "OVRLRESP",
    "RSTEST": "Overall Response",
    "RSCAT": "RECIST 1.1",
    "RSORRES": "CR",
    "RSSTRESC": "CR",
    "RSEVAL": "INVESTIGATOR",
    "VISITNUM": 8,
    "VISIT": "WEEK 72",
    "RSDTC": "2023-06-09",
    "RSDY": 504
  },
  {
    "STUDYID": "KN868",
    "DOMAIN": "RS",
    "USUBJID": "KN868-0002-0002",
    "RSSEQ": 9,
    "RSTESTCD": "BESTRESP",
    "RSTEST": "Best Overall Response",
    "RSCAT": "RECIST 1.1",
    "RSORRES": "CR",
    "RSSTRESC": "CR",
    "RSEVAL": "INVESTIGATOR",
    "VISITNUM": 999,
    "VISIT": "BEST RESPONSE",
    "RSDTC": "2023-09-30"
  },
  {
    "STUDYID": "KN868",
    "DOMAIN": "RS",
    "USUBJID": "KN868-0002-0003",
    "RSSEQ": 1,
    "RSTESTCD": "OVRLRESP",
    "RSTEST": "Overall Response",
    "RSCAT": "RECIST 1.1",
    "RSORRES": "SD",
    "RSSTRESC": "SD",
    "RSEVAL": "INVESTIGATOR",
    "VISITNUM": 1,
    "VISIT": "WEEK 9",
    "RSDTC": "2020-12-07",
    "RSDY": 63
  },
  {
    "STUDYID": "KN868",
    "DOMAIN": "RS",
    "USUBJID": "KN868-0002-0003",
    "RSSEQ": 2,
    "RSTESTCD": "OVRLRESP",
    "RSTEST": "Overall Response",
    "RSCAT": "RECIST 1.1",
    "RSORRES": "SD",
    "RSSTRESC": "SD",
    "RSEVAL": "INVESTIGATOR",
    "VISITNUM": 2,
    "VISIT": "WEEK 18",
    "RSDTC": "2021-02-07",
    "RSDY": 126
  },
  {
    "STUDYID": "KN868",
    "DOMAIN": "RS",
    "USUBJID": "KN868-0002-0003",
    "RSSEQ": 3,
    "RSTESTCD": "OVRLRESP",
    "RSTEST": "Overall Response",
    "RSCAT": "RECIST 1.1",
    "RSORRES": "SD",
    "RSSTRESC": "SD",
    "RSEVAL": "INVESTIGATOR",
    "VISITNUM": 3,
    "VISIT": "WEEK 27",
    "RSDTC": "2021-04-08",
    "RSDY": 189
  },
  {
    "STUDYID": "KN868",
    "DOMAIN": "RS",
    "USUBJID": "KN868-0002-0003",
    "RSSEQ": 4,
    "RSTESTCD": "OVRLRESP",
    "RSTEST": "Overall Response",
    "RSCAT": "RECIST 1.1",
    "RSORRES": "SD",
    "RSSTRESC": "SD",
    "RSEVAL": "INVESTIGATOR",
    "VISITNUM": 4,
    "VISIT": "WEEK 36",
    "RSDTC": "2021-06-16",
    "RSDY": 252
  },
  {
    "STUDYID": "KN868",
    "DOMAIN": "RS",
    "USUBJID": "KN868-0002-0003",
    "RSSEQ": 5,
    "RSTESTCD": "OVRLRESP",
    "RSTEST": "Overall Response",
    "RSCAT": "RECIST 1.1",
    "RSORRES": "SD",
    "RSSTRESC": "SD",
    "RSEVAL": "INVESTIGATOR",
    "VISITNUM": 5,
    "VISIT": "WEEK 45",
    "RSDTC": "2021-08-13",
    "RSDY": 315
  },
  {
    "STUDYID": "KN868",
    "DOMAIN": "RS",
    "USUBJID": "KN868-0002-0003",
    "RSSEQ": 6,
    "RSTESTCD": "OVRLRESP",
    "RSTEST": "Overall Response",
    "RSCAT": "RECIST 1.1",
    "RSORRES": "SD",
    "RSSTRESC": "SD",
    "RSEVAL": "INVESTIGATOR",
    "VISITNUM": 6,
    "VISIT": "WEEK 54",
    "RSDTC": "2021-10-14",
    "RSDY": 378
  },
  {
    "STUDYID": "KN868",
    "DOMAIN": "RS",
    "USUBJID": "KN868-0002-0003",
    "RSSEQ": 7,
    "RSTESTCD": "OVRLRESP",
    "RSTEST": "Overall Response",
    "RSCAT": "RECIST 1.1",
    "RSORRES": "SD",
    "RSSTRESC": "SD",
    "RSEVAL": "INVESTIGATOR",
    "VISITNUM": 7,
    "VISIT": "WEEK 63",
    "RSDTC": "2021-12-16",
    "RSDY": 441
  },
  {
    "STUDYID": "KN868",
    "DOMAIN": "RS",
    "USUBJID": "KN868-0002-0003",
    "RSSEQ": 8,
    "RSTESTCD": "OVRLRESP",
    "RSTEST": "Overall Response",
    "RSCAT": "RECIST 1.1",
    "RSORRES": "SD",
    "RSSTRESC": "SD",
    "RSEVAL": "INVESTIGATOR",
    "VISITNUM": 8,
    "VISIT": "WEEK 72",
    "RSDTC": "2022-02-18",
    "RSDY": 504
  },
  {
    "STUDYID": "KN868",
    "DOMAIN": "RS",
    "USUBJID": "KN868-0002-0003",
    "RSSEQ": 9,
    "RSTESTCD": "BESTRESP",
    "RSTEST": "Best Overall Response",
    "RSCAT": "RECIST 1.1",
    "RSORRES": "SD",
    "RSSTRESC": "SD",
    "RSEVAL": "INVESTIGATOR",
    "VISITNUM": 999,
    "VISIT": "BEST RESPONSE",
    "RSDTC": "2023-09-30"
  },
  {
    "STUDYID": "KN868",
    "DOMAIN": "RS",
    "USUBJID": "KN868-0002-0004",
    "RSSEQ": 1,
    "RSTESTCD": "OVRLRESP",
    "RSTEST": "Overall Response",
    "RSCAT": "RECIST 1.1",
    "RSORRES": "SD",
    "RSSTRESC": "SD",
    "RSEVAL": "INVESTIGATOR",
    "VISITNUM": 1,
    "VISIT": "WEEK 9",
    "RSDTC": "2020-08-12",
    "RSDY": 63
  },
  {
    "STUDYID": "KN868",
    "DOMAIN": "RS",
    "USUBJID": "KN868-0002-0004",
    "RSSEQ": 2,
    "RSTESTCD": "OVRLRESP",
    "RSTEST": "Overall Response",
    "RSCAT": "RECIST 1.1",
    "RSORRES": "PD",
    "RSSTRESC": "PD",
    "RSEVAL": "INVESTIGATOR",
    "VISITNUM": 2,
    "VISIT": "WEEK 18",
    "RSDTC": "2020-10-15",
    "RSDY": 126
  },
  {
    "STUDYID": "KN868",
    "DOMAIN": "RS",
    "USUBJID": "KN868-0002-0004",
    "RSSEQ": 3,
    "RSTESTCD": "OVRLRESP",
    "RSTEST": "Overall Response",
    "RSCAT": "RECIST 1.1",
    "RSORRES": "PD",
    "RSSTRESC": "PD",
    "RSEVAL": "INVESTIGATOR",
    "VISITNUM": 3,
    "VISIT": "WEEK 27",
    "RSDTC": "2020-12-18",
    "RSDY": 189
  },
  {
    "STUDYID": "KN868",
    "DOMAIN": "RS",
    "USUBJID": "KN868-0002-0004",
    "RSSEQ": 4,
    "RSTESTCD": "OVRLRESP",
    "RSTEST": "Overall Response",
    "RSCAT": "RECIST 1.1",
    "RSORRES": "PD",
    "RSSTRESC": "PD",
    "RSEVAL": "INVESTIGATOR",
    "VISITNUM": 4,
    "VISIT": "WEEK 36",
    "RSDTC": "2021-02-17",
    "RSDY": 252
  },
  {
    "STUDYID": "KN868",
    "DOMAIN": "RS",
    "USUBJID": "KN868-0002-0004",
    "RSSEQ": 5,
    "RSTESTCD": "OVRLRESP",
    "RSTEST": "Overall Response",
    "RSCAT": "RECIST 1.1",
    "RSORRES": "PD",
    "RSSTRESC": "PD",
    "RSEVAL": "INVESTIGATOR",
    "VISITNUM": 5,
    "VISIT": "WEEK 45",
    "RSDTC": "2021-04-18",
    "RSDY": 315
  },
  {
    "STUDYID": "KN868",
    "DOMAIN": "RS",
    "USUBJID": "KN868-0002-0004",
    "RSSEQ": 6,
    "RSTESTCD": "OVRLRESP",
    "RSTEST": "Overall Response",
    "RSCAT": "RECIST 1.1",
    "RSORRES": "PD",
    "RSSTRESC": "PD",
    "RSEVAL": "INVESTIGATOR",
    "VISITNUM": 6,
    "VISIT": "WEEK 54",
    "RSDTC": "2021-06-21",
    "RSDY": 378
  },
  {
    "STUDYID": "KN868",
    "DOMAIN": "RS",
    "USUBJID": "KN868-0002-0004",
    "RSSEQ": 7,
    "RSTESTCD": "OVRLRESP",
    "RSTEST": "Overall Response",
    "RSCAT": "RECIST 1.1",
    "RSORRES": "PD",
    "RSSTRESC": "PD",
    "RSEVAL": "INVESTIGATOR",
    "VISITNUM": 7,
    "VISIT": "WEEK 63",
    "RSDTC": "2021-08-27",
    "RSDY": 441
  },
  {
    "STUDYID": "KN868",
    "DOMAIN": "RS",
    "USUBJID": "KN868-0002-0004",
    "RSSEQ": 8,
    "RSTESTCD": "OVRLRESP",
    "RSTEST": "Overall Response",
    "RSCAT": "RECIST 1.1",
    "RSORRES": "PD",
    "RSSTRESC": "PD",
    "RSEVAL": "INVESTIGATOR",
    "VISITNUM": 8,
    "VISIT": "WEEK 72",
    "RSDTC": "2021-10-27",
    "RSDY": 504
  },
  {
    "STUDYID": "KN868",
    "DOMAIN": "RS",
    "USUBJID": "KN868-0002-0004",
    "RSSEQ": 9,
    "RSTESTCD": "BESTRESP",
    "RSTEST": "Best Overall Response",
    "RSCAT": "RECIST 1.1",
    "RSORRES": "PD",
    "RSSTRESC": "PD",
    "RSEVAL": "INVESTIGATOR",
    "VISITNUM": 999,
    "VISIT": "BEST RESPONSE",
    "RSDTC": "2023-09-30"
  },
  {
    "STUDYID": "KN868",
    "DOMAIN": "RS",
    "USUBJID": "KN868-0002-0005",
    "RSSEQ": 1,
    "RSTESTCD": "OVRLRESP",
    "RSTEST": "Overall Response",
    "RSCAT": "RECIST 1.1",
    "RSORRES": "SD",
    "RSSTRESC": "SD",
    "RSEVAL": "INVESTIGATOR",
    "VISITNUM": 1,
    "VISIT": "WEEK 9",
    "RSDTC": "2021-09-26",
    "RSDY": 63
  },
  {
    "STUDYID": "KN868",
    "DOMAIN": "RS",
    "USUBJID": "KN868-0002-0005",
    "RSSEQ": 2,
    "RSTESTCD": "OVRLRESP",
    "RSTEST": "Overall Response",
    "RSCAT": "RECIST 1.1",
    "RSORRES": "PD",
    "RSSTRESC": "PD",
    "RSEVAL": "INVESTIGATOR",
    "VISITNUM": 2,
    "VISIT": "WEEK 18",
    "RSDTC": "2021-11-30",
    "RSDY": 126
  },
  {
    "STUDYID": "KN868",
    "DOMAIN": "RS",
    "USUBJID": "KN868-0002-0005",
    "RSSEQ": 3,
    "RSTESTCD": "OVRLRESP",
    "RSTEST": "Overall Response",
    "RSCAT": "RECIST 1.1",
    "RSORRES": "PD",
    "RSSTRESC": "PD",
    "RSEVAL": "INVESTIGATOR",
    "VISITNUM": 3,
    "VISIT": "WEEK 27",
    "RSDTC": "2022-01-31",
    "RSDY": 189
  },
  {
    "STUDYID": "KN868",
    "DOMAIN": "RS",
    "USUBJID": "KN868-0002-0005",
    "RSSEQ": 4,
    "RSTESTCD": "OVRLRESP",
    "RSTEST": "Overall Response",
    "RSCAT": "RECIST 1.1",
    "RSORRES": "PD",
    "RSSTRESC": "PD",
    "RSEVAL": "INVESTIGATOR",
    "VISITNUM": 4,
    "VISIT": "WEEK 36",
    "RSDTC": "2022-04-05",
    "RSDY": 252
  },
  {
    "STUDYID": "KN868",
    "DOMAIN": "RS",
    "USUBJID": "KN868-0002-0005",
    "RSSEQ": 5,
    "RSTESTCD": "OVRLRESP",
    "RSTEST": "Overall Response",
    "RSCAT": "RECIST 1.1",
    "RSORRES": "PD",
    "RSSTRESC": "PD",
    "RSEVAL": "INVESTIGATOR",
    "VISITNUM": 5,
    "VISIT": "WEEK 45",
    "RSDTC": "2022-06-03",
    "RSDY": 315
  },
  {
    "STUDYID": "KN868",
    "DOMAIN": "RS",
    "USUBJID": "KN868-0002-0005",
    "RSSEQ": 6,
    "RSTESTCD": "OVRLRESP",
    "RSTEST": "Overall Response",
    "RSCAT": "RECIST 1.1",
    "RSORRES": "PD",
    "RSSTRESC": "PD",
    "RSEVAL": "INVESTIGATOR",
    "VISITNUM": 6,
    "VISIT": "WEEK 54",
    "RSDTC": "2022-08-08",
    "RSDY": 378
  },
  {
    "STUDYID": "KN868",
    "DOMAIN": "RS",
    "USUBJID": "KN868-0002-0005",
    "RSSEQ": 7,
    "RSTESTCD": "OVRLRESP",
    "RSTEST": "Overall Response",
    "RSCAT": "RECIST 1.1",
    "RSORRES": "PD",
    "RSSTRESC": "PD",
    "RSEVAL": "INVESTIGATOR",
    "VISITNUM": 7,
    "VISIT": "WEEK 63",
    "RSDTC": "2022-10-13",
    "RSDY": 441
  },
  {
    "STUDYID": "KN868",
    "DOMAIN": "RS",
    "USUBJID": "KN868-0002-0005",
    "RSSEQ": 8,
    "RSTESTCD": "OVRLRESP",
    "RSTEST": "Overall Response",
    "RSCAT": "RECIST 1.1",
    "RSORRES": "PD",
    "RSSTRESC": "PD",
    "RSEVAL": "INVESTIGATOR",
    "VISITNUM": 8,
    "VISIT": "WEEK 72",
    "RSDTC": "2022-12-15",
    "RSDY": 504
  },
  {
    "STUDYID": "KN868",
    "DOMAIN": "RS",
    "USUBJID": "KN868-0002-0005",
    "RSSEQ": 9,
    "RSTESTCD": "BESTRESP",
    "RSTEST": "Best Overall Response",
    "RSCAT": "RECIST 1.1",
    "RSORRES": "PD",
    "RSSTRESC": "PD",
    "RSEVAL": "INVESTIGATOR",
    "VISITNUM": 999,
    "VISIT": "BEST RESPONSE",
    "RSDTC": "2023-09-30"
  },
  {
    "STUDYID": "KN868",
    "DOMAIN": "RS",
    "USUBJID": "KN868-0002-0006",
    "RSSEQ": 1,
    "RSTESTCD": "OVRLRESP",
    "RSTEST": "Overall Response",
    "RSCAT": "RECIST 1.1",
    "RSORRES": "SD",
    "RSSTRESC": "SD",
    "RSEVAL": "INVESTIGATOR",
    "VISITNUM": 1,
    "VISIT": "WEEK 9",
    "RSDTC": "2021-10-09",
    "RSDY": 63
  },
  {
    "STUDYID": "KN868",
    "DOMAIN": "RS",
    "USUBJID": "KN868-0002-0006",
    "RSSEQ": 2,
    "RSTESTCD": "OVRLRESP",
    "RSTEST": "Overall Response",
    "RSCAT": "RECIST 1.1",
    "RSORRES": "SD",
    "RSSTRESC": "SD",
    "RSEVAL": "INVESTIGATOR",
    "VISITNUM": 2,
    "VISIT": "WEEK 18",
    "RSDTC": "2021-12-05",
    "RSDY": 126
  },
  {
    "STUDYID": "KN868",
    "DOMAIN": "RS",
    "USUBJID": "KN868-0002-0006",
    "RSSEQ": 3,
    "RSTESTCD": "OVRLRESP",
    "RSTEST": "Overall Response",
    "RSCAT": "RECIST 1.1",
    "RSORRES": "SD",
    "RSSTRESC": "SD",
    "RSEVAL": "INVESTIGATOR",
    "VISITNUM": 3,
    "VISIT": "WEEK 27",
    "RSDTC": "2022-02-07",
    "RSDY": 189
  },
  {
    "STUDYID": "KN868",
    "DOMAIN": "RS",
    "USUBJID": "KN868-0002-0006",
    "RSSEQ": 4,
    "RSTESTCD": "OVRLRESP",
    "RSTEST": "Overall Response",
    "RSCAT": "RECIST 1.1",
    "RSORRES": "SD",
    "RSSTRESC": "SD",
    "RSEVAL": "INVESTIGATOR",
    "VISITNUM": 4,
    "VISIT": "WEEK 36",
    "RSDTC": "2022-04-14",
    "RSDY": 252
  },
  {
    "STUDYID": "KN868",
    "DOMAIN": "RS",
    "USUBJID": "KN868-0002-0006",
    "RSSEQ": 5,
    "RSTESTCD": "OVRLRESP",
    "RSTEST": "Overall Response",
    "RSCAT": "RECIST 1.1",
    "RSORRES": "SD",
    "RSSTRESC": "SD",
    "RSEVAL": "INVESTIGATOR",
    "VISITNUM": 5,
    "VISIT": "WEEK 45",
    "RSDTC": "2022-06-18",
    "RSDY": 315
  },
  {
    "STUDYID": "KN868",
    "DOMAIN": "RS",
    "USUBJID": "KN868-0002-0006",
    "RSSEQ": 6,
    "RSTESTCD": "OVRLRESP",
    "RSTEST": "Overall Response",
    "RSCAT": "RECIST 1.1",
    "RSORRES": "SD",
    "RSSTRESC": "SD",
    "RSEVAL": "INVESTIGATOR",
    "VISITNUM": 6,
    "VISIT": "WEEK 54",
    "RSDTC": "2022-08-18",
    "RSDY": 378
  },
  {
    "STUDYID": "KN868",
    "DOMAIN": "RS",
    "USUBJID": "KN868-0002-0006",
    "RSSEQ": 7,
    "RSTESTCD": "OVRLRESP",
    "RSTEST": "Overall Response",
    "RSCAT": "RECIST 1.1",
    "RSORRES": "SD",
    "RSSTRESC": "SD",
    "RSEVAL": "INVESTIGATOR",
    "VISITNUM": 7,
    "VISIT": "WEEK 63",
    "RSDTC": "2022-10-20",
    "RSDY": 441
  },
  {
    "STUDYID": "KN868",
    "DOMAIN": "RS",
    "USUBJID": "KN868-0002-0006",
    "RSSEQ": 8,
    "RSTESTCD": "OVRLRESP",
    "RSTEST": "Overall Response",
    "RSCAT": "RECIST 1.1",
    "RSORRES": "SD",
    "RSSTRESC": "SD",
    "RSEVAL": "INVESTIGATOR",
    "VISITNUM": 8,
    "VISIT": "WEEK 72",
    "RSDTC": "2022-12-22",
    "RSDY": 504
  },
  {
    "STUDYID": "KN868",
    "DOMAIN": "RS",
    "USUBJID": "KN868-0002-0006",
    "RSSEQ": 9,
    "RSTESTCD": "BESTRESP",
    "RSTEST": "Best Overall Response",
    "RSCAT": "RECIST 1.1",
    "RSORRES": "SD",
    "RSSTRESC": "SD",
    "RSEVAL": "INVESTIGATOR",
    "VISITNUM": 999,
    "VISIT": "BEST RESPONSE",
    "RSDTC": "2023-09-30"
  },
  {
    "STUDYID": "KN868",
    "DOMAIN": "RS",
    "USUBJID": "KN868-0002-0007",
    "RSSEQ": 1,
    "RSTESTCD": "OVRLRESP",
    "RSTEST": "Overall Response",
    "RSCAT": "RECIST 1.1",
    "RSORRES": "SD",
    "RSSTRESC": "SD",
    "RSEVAL": "INVESTIGATOR",
    "VISITNUM": 1,
    "VISIT": "WEEK 9",
    "RSDTC": "2021-04-08",
    "RSDY": 63
  },
  {
    "STUDYID": "KN868",
    "DOMAIN": "RS",
    "USUBJID": "KN868-0002-0007",
    "RSSEQ": 2,
    "RSTESTCD": "OVRLRESP",
    "RSTEST": "Overall Response",
    "RSCAT": "RECIST 1.1",
    "RSORRES": "SD",
    "RSSTRESC": "SD",
    "RSEVAL": "INVESTIGATOR",
    "VISITNUM": 2,
    "VISIT": "WEEK 18",
    "RSDTC": "2021-06-07",
    "RSDY": 126
  },
  {
    "STUDYID": "KN868",
    "DOMAIN": "RS",
    "USUBJID": "KN868-0002-0007",
    "RSSEQ": 3,
    "RSTESTCD": "OVRLRESP",
    "RSTEST": "Overall Response",
    "RSCAT": "RECIST 1.1",
    "RSORRES": "SD",
    "RSSTRESC": "SD",
    "RSEVAL": "INVESTIGATOR",
    "VISITNUM": 3,
    "VISIT": "WEEK 27",
    "RSDTC": "2021-08-08",
    "RSDY": 189
  },
  {
    "STUDYID": "KN868",
    "DOMAIN": "RS",
    "USUBJID": "KN868-0002-0007",
    "RSSEQ": 4,
    "RSTESTCD": "OVRLRESP",
    "RSTEST": "Overall Response",
    "RSCAT": "RECIST 1.1",
    "RSORRES": "SD",
    "RSSTRESC": "SD",
    "RSEVAL": "INVESTIGATOR",
    "VISITNUM": 4,
    "VISIT": "WEEK 36",
    "RSDTC": "2021-10-15",
    "RSDY": 252
  },
  {
    "STUDYID": "KN868",
    "DOMAIN": "RS",
    "USUBJID": "KN868-0002-0007",
    "RSSEQ": 5,
    "RSTESTCD": "OVRLRESP",
    "RSTEST": "Overall Response",
    "RSCAT": "RECIST 1.1",
    "RSORRES": "SD",
    "RSSTRESC": "SD",
    "RSEVAL": "INVESTIGATOR",
    "VISITNUM": 5,
    "VISIT": "WEEK 45",
    "RSDTC": "2021-12-14",
    "RSDY": 315
  },
  {
    "STUDYID": "KN868",
    "DOMAIN": "RS",
    "USUBJID": "KN868-0002-0007",
    "RSSEQ": 6,
    "RSTESTCD": "OVRLRESP",
    "RSTEST": "Overall Response",
    "RSCAT": "RECIST 1.1",
    "RSORRES": "SD",
    "RSSTRESC": "SD",
    "RSEVAL": "INVESTIGATOR",
    "VISITNUM": 6,
    "VISIT": "WEEK 54",
    "RSDTC": "2022-02-16",
    "RSDY": 378
  },
  {
    "STUDYID": "KN868",
    "DOMAIN": "RS",
    "USUBJID": "KN868-0002-0007",
    "RSSEQ": 7,
    "RSTESTCD": "OVRLRESP",
    "RSTEST": "Overall Response",
    "RSCAT": "RECIST 1.1",
    "RSORRES": "SD",
    "RSSTRESC": "SD",
    "RSEVAL": "INVESTIGATOR",
    "VISITNUM": 7,
    "VISIT": "WEEK 63",
    "RSDTC": "2022-04-20",
    "RSDY": 441
  },
  {
    "STUDYID": "KN868",
    "DOMAIN": "RS",
    "USUBJID": "KN868-0002-0007",
    "RSSEQ": 8,
    "RSTESTCD": "OVRLRESP",
    "RSTEST": "Overall Response",
    "RSCAT": "RECIST 1.1",
    "RSORRES": "SD",
    "RSSTRESC": "SD",
    "RSEVAL": "INVESTIGATOR",
    "VISITNUM": 8,
    "VISIT": "WEEK 72",
    "RSDTC": "2022-06-21",
    "RSDY": 504
  },
  {
    "STUDYID": "KN868",
    "DOMAIN": "RS",
    "USUBJID": "KN868-0002-0007",
    "RSSEQ": 9,
    "RSTESTCD": "BESTRESP",
    "RSTEST": "Best Overall Response",
    "RSCAT": "RECIST 1.1",
    "RSORRES": "SD",
    "RSSTRESC": "SD",
    "RSEVAL": "INVESTIGATOR",
    "VISITNUM": 999,
    "VISIT": "BEST RESPONSE",
    "RSDTC": "2023-09-30"
  },
  {
    "STUDYID": "KN868",
    "DOMAIN": "RS",
    "USUBJID": "KN868-0002-0008",
    "RSSEQ": 1,
    "RSTESTCD": "OVRLRESP",
    "RSTEST": "Overall Response",
    "RSCAT": "RECIST 1.1",
    "RSORRES": "SD",
    "RSSTRESC": "SD",
    "RSEVAL": "INVESTIGATOR",
    "VISITNUM": 1,
    "VISIT": "WEEK 9",
    "RSDTC": "2022-03-28",
    "RSDY": 63
  },
  {
    "STUDYID": "KN868",
    "DOMAIN": "RS",
    "USUBJID": "KN868-0002-0008",
    "RSSEQ": 2,
    "RSTESTCD": "OVRLRESP",
    "RSTEST": "Overall Response",
    "RSCAT": "RECIST 1.1",
    "RSORRES": "PR",
    "RSSTRESC": "PR",
    "RSEVAL": "INVESTIGATOR",
    "VISITNUM": 2,
    "VISIT": "WEEK 18",
    "RSDTC": "2022-06-03",
    "RSDY": 126
  },
  {
    "STUDYID": "KN868",
    "DOMAIN": "RS",
    "USUBJID": "KN868-0002-0008",
    "RSSEQ": 3,
    "RSTESTCD": "OVRLRESP",
    "RSTEST": "Overall Response",
    "RSCAT": "RECIST 1.1",
    "RSORRES": "CR",
    "RSSTRESC": "CR",
    "RSEVAL": "INVESTIGATOR",
    "VISITNUM": 3,
    "VISIT": "WEEK 27",
    "RSDTC": "2022-08-05",
    "RSDY": 189
  },
  {
    "STUDYID": "KN868",
    "DOMAIN": "RS",
    "USUBJID": "KN868-0002-0008",
    "RSSEQ": 4,
    "RSTESTCD": "OVRLRESP",
    "RSTEST": "Overall Response",
    "RSCAT": "RECIST 1.1",
    "RSORRES": "CR",
    "RSSTRESC": "CR",
    "RSEVAL": "INVESTIGATOR",
    "VISITNUM": 4,
    "VISIT": "WEEK 36",
    "RSDTC": "2022-10-06",
    "RSDY": 252
  },
  {
    "STUDYID": "KN868",
    "DOMAIN": "RS",
    "USUBJID": "KN868-0002-0008",
    "RSSEQ": 5,
    "RSTESTCD": "OVRLRESP",
    "RSTEST": "Overall Response",
    "RSCAT": "RECIST 1.1",
    "RSORRES": "CR",
    "RSSTRESC": "CR",
    "RSEVAL": "INVESTIGATOR",
    "VISITNUM": 5,
    "VISIT": "WEEK 45",
    "RSDTC": "2022-12-07",
    "RSDY": 315
  },
  {
    "STUDYID": "KN868",
    "DOMAIN": "RS",
    "USUBJID": "KN868-0002-0008",
    "RSSEQ": 6,
    "RSTESTCD": "OVRLRESP",
    "RSTEST": "Overall Response",
    "RSCAT": "RECIST 1.1",
    "RSORRES": "CR",
    "RSSTRESC": "CR",
    "RSEVAL": "INVESTIGATOR",
    "VISITNUM": 6,
    "VISIT": "WEEK 54",
    "RSDTC": "2023-02-09",
    "RSDY": 378
  },
  {
    "STUDYID": "KN868",
    "DOMAIN": "RS",
    "USUBJID": "KN868-0002-0008",
    "RSSEQ": 7,
    "RSTESTCD": "OVRLRESP",
    "RSTEST": "Overall Response",
    "RSCAT": "RECIST 1.1",
    "RSORRES": "CR",
    "RSSTRESC": "CR",
    "RSEVAL": "INVESTIGATOR",
    "VISITNUM": 7,
    "VISIT": "WEEK 63",
    "RSDTC": "2023-04-13",
    "RSDY": 441
  },
  {
    "STUDYID": "KN868",
    "DOMAIN": "RS",
    "USUBJID": "KN868-0002-0008",
    "RSSEQ": 8,
    "RSTESTCD": "OVRLRESP",
    "RSTEST": "Overall Response",
    "RSCAT": "RECIST 1.1",
    "RSORRES": "CR",
    "RSSTRESC": "CR",
    "RSEVAL": "INVESTIGATOR",
    "VISITNUM": 8,
    "VISIT": "WEEK 72",
    "RSDTC": "2023-06-16",
    "RSDY": 504
  },
  {
    "STUDYID": "KN868",
    "DOMAIN": "RS",
    "USUBJID": "KN868-0002-0008",
    "RSSEQ": 9,
    "RSTESTCD": "BESTRESP",
    "RSTEST": "Best Overall Response",
    "RSCAT": "RECIST 1.1",
    "RSORRES": "CR",
    "RSSTRESC": "CR",
    "RSEVAL": "INVESTIGATOR",
    "VISITNUM": 999,
    "VISIT": "BEST RESPONSE",
    "RSDTC": "2023-09-30"
  },
  {
    "STUDYID": "KN868",
    "DOMAIN": "RS",
    "USUBJID": "KN868-0002-0009",
    "RSSEQ": 1,
    "RSTESTCD": "OVRLRESP",
    "RSTEST": "Overall Response",
    "RSCAT": "RECIST 1.1",
    "RSORRES": "SD",
    "RSSTRESC": "SD",
    "RSEVAL": "INVESTIGATOR",
    "VISITNUM": 1,
    "VISIT": "WEEK 9",
    "RSDTC": "2022-02-23",
    "RSDY": 63
  },
  {
    "STUDYID": "KN868",
    "DOMAIN": "RS",
    "USUBJID": "KN868-0002-0009",
    "RSSEQ": 2,
    "RSTESTCD": "OVRLRESP",
    "RSTEST": "Overall Response",
    "RSCAT": "RECIST 1.1",
    "RSORRES": "SD",
    "RSSTRESC": "SD",
    "RSEVAL": "INVESTIGATOR",
    "VISITNUM": 2,
    "VISIT": "WEEK 18",
    "RSDTC": "2022-04-23",
    "RSDY": 126
  },
  {
    "STUDYID": "KN868",
    "DOMAIN": "RS",
    "USUBJID": "KN868-0002-0009",
    "RSSEQ": 3,
    "RSTESTCD": "OVRLRESP",
    "RSTEST": "Overall Response",
    "RSCAT": "RECIST 1.1",
    "RSORRES": "SD",
    "RSSTRESC": "SD",
    "RSEVAL": "INVESTIGATOR",
    "VISITNUM": 3,
    "VISIT": "WEEK 27",
    "RSDTC": "2022-06-29",
    "RSDY": 189
  },
  {
    "STUDYID": "KN868",
    "DOMAIN": "RS",
    "USUBJID": "KN868-0002-0009",
    "RSSEQ": 4,
    "RSTESTCD": "OVRLRESP",
    "RSTEST": "Overall Response",
    "RSCAT": "RECIST 1.1",
    "RSORRES": "SD",
    "RSSTRESC": "SD",
    "RSEVAL": "INVESTIGATOR",
    "VISITNUM": 4,
    "VISIT": "WEEK 36",
    "RSDTC": "2022-08-31",
    "RSDY": 252
  },
  {
    "STUDYID": "KN868",
    "DOMAIN": "RS",
    "USUBJID": "KN868-0002-0009",
    "RSSEQ": 5,
    "RSTESTCD": "OVRLRESP",
    "RSTEST": "Overall Response",
    "RSCAT": "RECIST 1.1",
    "RSORRES": "SD",
    "RSSTRESC": "SD",
    "RSEVAL": "INVESTIGATOR",
    "VISITNUM": 5,
    "VISIT": "WEEK 45",
    "RSDTC": "2022-10-31",
    "RSDY": 315
  },
  {
    "STUDYID": "KN868",
    "DOMAIN": "RS",
    "USUBJID": "KN868-0002-0009",
    "RSSEQ": 6,
    "RSTESTCD": "OVRLRESP",
    "RSTEST": "Overall Response",
    "RSCAT": "RECIST 1.1",
    "RSORRES": "SD",
    "RSSTRESC": "SD",
    "RSEVAL": "INVESTIGATOR",
    "VISITNUM": 6,
    "VISIT": "WEEK 54",
    "RSDTC": "2023-01-04",
    "RSDY": 378
  },
  {
    "STUDYID": "KN868",
    "DOMAIN": "RS",
    "USUBJID": "KN868-0002-0009",
    "RSSEQ": 7,
    "RSTESTCD": "OVRLRESP",
    "RSTEST": "Overall Response",
    "RSCAT": "RECIST 1.1",
    "RSORRES": "SD",
    "RSSTRESC": "SD",
    "RSEVAL": "INVESTIGATOR",
    "VISITNUM": 7,
    "VISIT": "WEEK 63",
    "RSDTC": "2023-03-10",
    "RSDY": 441
  },
  {
    "STUDYID": "KN868",
    "DOMAIN": "RS",
    "USUBJID": "KN868-0002-0009",
    "RSSEQ": 8,
    "RSTESTCD": "OVRLRESP",
    "RSTEST": "Overall Response",
    "RSCAT": "RECIST 1.1",
    "RSORRES": "SD",
    "RSSTRESC": "SD",
    "RSEVAL": "INVESTIGATOR",
    "VISITNUM": 8,
    "VISIT": "WEEK 72",
    "RSDTC": "2023-05-11",
    "RSDY": 504
  },
  {
    "STUDYID": "KN868",
    "DOMAIN": "RS",
    "USUBJID": "KN868-0002-0009",
    "RSSEQ": 9,
    "RSTESTCD": "BESTRESP",
    "RSTEST": "Best Overall Response",
    "RSCAT": "RECIST 1.1",
    "RSORRES": "SD",
    "RSSTRESC": "SD",
    "RSEVAL": "INVESTIGATOR",
    "VISITNUM": 999,
    "VISIT": "BEST RESPONSE",
    "RSDTC": "2023-09-30"
  },
  {
    "STUDYID": "KN868",
    "DOMAIN": "RS",
    "USUBJID": "KN868-0002-0010",
    "RSSEQ": 1,
    "RSTESTCD": "OVRLRESP",
    "RSTEST": "Overall Response",
    "RSCAT": "RECIST 1.1",
    "RSORRES": "SD",
    "RSSTRESC": "SD",
    "RSEVAL": "INVESTIGATOR",
    "VISITNUM": 1,
    "VISIT": "WEEK 9",
    "RSDTC": "2020-07-05",
    "RSDY": 63
  },
  {
    "STUDYID": "KN868",
    "DOMAIN": "RS",
    "USUBJID": "KN868-0002-0010",
    "RSSEQ": 2,
    "RSTESTCD": "OVRLRESP",
    "RSTEST": "Overall Response",
    "RSCAT": "RECIST 1.1",
    "RSORRES": "PR",
    "RSSTRESC": "PR",
    "RSEVAL": "INVESTIGATOR",
    "VISITNUM": 2,
    "VISIT": "WEEK 18",
    "RSDTC": "2020-09-10",
    "RSDY": 126
  },
  {
    "STUDYID": "KN868",
    "DOMAIN": "RS",
    "USUBJID": "KN868-0002-0010",
    "RSSEQ": 3,
    "RSTESTCD": "OVRLRESP",
    "RSTEST": "Overall Response",
    "RSCAT": "RECIST 1.1",
    "RSORRES": "CR",
    "RSSTRESC": "CR",
    "RSEVAL": "INVESTIGATOR",
    "VISITNUM": 3,
    "VISIT": "WEEK 27",
    "RSDTC": "2020-11-12",
    "RSDY": 189
  },
  {
    "STUDYID": "KN868",
    "DOMAIN": "RS",
    "USUBJID": "KN868-0002-0010",
    "RSSEQ": 4,
    "RSTESTCD": "OVRLRESP",
    "RSTEST": "Overall Response",
    "RSCAT": "RECIST 1.1",
    "RSORRES": "CR",
    "RSSTRESC": "CR",
    "RSEVAL": "INVESTIGATOR",
    "VISITNUM": 4,
    "VISIT": "WEEK 36",
    "RSDTC": "2021-01-12",
    "RSDY": 252
  },
  {
    "STUDYID": "KN868",
    "DOMAIN": "RS",
    "USUBJID": "KN868-0002-0010",
    "RSSEQ": 5,
    "RSTESTCD": "OVRLRESP",
    "RSTEST": "Overall Response",
    "RSCAT": "RECIST 1.1",
    "RSORRES": "CR",
    "RSSTRESC": "CR",
    "RSEVAL": "INVESTIGATOR",
    "VISITNUM": 5,
    "VISIT": "WEEK 45",
    "RSDTC": "2021-03-17",
    "RSDY": 315
  },
  {
    "STUDYID": "KN868",
    "DOMAIN": "RS",
    "USUBJID": "KN868-0002-0010",
    "RSSEQ": 6,
    "RSTESTCD": "OVRLRESP",
    "RSTEST": "Overall Response",
    "RSCAT": "RECIST 1.1",
    "RSORRES": "CR",
    "RSSTRESC": "CR",
    "RSEVAL": "INVESTIGATOR",
    "VISITNUM": 6,
    "VISIT": "WEEK 54",
    "RSDTC": "2021-05-16",
    "RSDY": 378
  },
  {
    "STUDYID": "KN868",
    "DOMAIN": "RS",
    "USUBJID": "KN868-0002-0010",
    "RSSEQ": 7,
    "RSTESTCD": "OVRLRESP",
    "RSTEST": "Overall Response",
    "RSCAT": "RECIST 1.1",
    "RSORRES": "CR",
    "RSSTRESC": "CR",
    "RSEVAL": "INVESTIGATOR",
    "VISITNUM": 7,
    "VISIT": "WEEK 63",
    "RSDTC": "2021-07-18",
    "RSDY": 441
  },
  {
    "STUDYID": "KN868",
    "DOMAIN": "RS",
    "USUBJID": "KN868-0002-0010",
    "RSSEQ": 8,
    "RSTESTCD": "OVRLRESP",
    "RSTEST": "Overall Response",
    "RSCAT": "RECIST 1.1",
    "RSORRES": "CR",
    "RSSTRESC": "CR",
    "RSEVAL": "INVESTIGATOR",
    "VISITNUM": 8,
    "VISIT": "WEEK 72",
    "RSDTC": "2021-09-21",
    "RSDY": 504
  },
  {
    "STUDYID": "KN868",
    "DOMAIN": "RS",
    "USUBJID": "KN868-0002-0010",
    "RSSEQ": 9,
    "RSTESTCD": "BESTRESP",
    "RSTEST": "Best Overall Response",
    "RSCAT": "RECIST 1.1",
    "RSORRES": "CR",
    "RSSTRESC": "CR",
    "RSEVAL": "INVESTIGATOR",
    "VISITNUM": 999,
    "VISIT": "BEST RESPONSE",
    "RSDTC": "2023-09-30"
  },
  {
    "STUDYID": "KN868",
    "DOMAIN": "RS",
    "USUBJID": "KN868-0002-0011",
    "RSSEQ": 1,
    "RSTESTCD": "OVRLRESP",
    "RSTEST": "Overall Response",
    "RSCAT": "RECIST 1.1",
    "RSORRES": "SD",
    "RSSTRESC": "SD",
    "RSEVAL": "INVESTIGATOR",
    "VISITNUM": 1,
    "VISIT": "WEEK 9",
    "RSDTC": "2020-06-07",
    "RSDY": 63
  },
  {
    "STUDYID": "KN868",
    "DOMAIN": "RS",
    "USUBJID": "KN868-0002-0011",
    "RSSEQ": 2,
    "RSTESTCD": "OVRLRESP",
    "RSTEST": "Overall Response",
    "RSCAT": "RECIST 1.1",
    "RSORRES": "PR",
    "RSSTRESC": "PR",
    "RSEVAL": "INVESTIGATOR",
    "VISITNUM": 2,
    "VISIT": "WEEK 18",
    "RSDTC": "2020-08-13",
    "RSDY": 126
  },
  {
    "STUDYID": "KN868",
    "DOMAIN": "RS",
    "USUBJID": "KN868-0002-0011",
    "RSSEQ": 3,
    "RSTESTCD": "OVRLRESP",
    "RSTEST": "Overall Response",
    "RSCAT": "RECIST 1.1",
    "RSORRES": "PR",
    "RSSTRESC": "PR",
    "RSEVAL": "INVESTIGATOR",
    "VISITNUM": 3,
    "VISIT": "WEEK 27",
    "RSDTC": "2020-10-13",
    "RSDY": 189
  },
  {
    "STUDYID": "KN868",
    "DOMAIN": "RS",
    "USUBJID": "KN868-0002-0011",
    "RSSEQ": 4,
    "RSTESTCD": "OVRLRESP",
    "RSTEST": "Overall Response",
    "RSCAT": "RECIST 1.1",
    "RSORRES": "CR",
    "RSSTRESC": "CR",
    "RSEVAL": "INVESTIGATOR",
    "VISITNUM": 4,
    "VISIT": "WEEK 36",
    "RSDTC": "2020-12-18",
    "RSDY": 252
  },
  {
    "STUDYID": "KN868",
    "DOMAIN": "RS",
    "USUBJID": "KN868-0002-0011",
    "RSSEQ": 5,
    "RSTESTCD": "OVRLRESP",
    "RSTEST": "Overall Response",
    "RSCAT": "RECIST 1.1",
    "RSORRES": "PR",
    "RSSTRESC": "PR",
    "RSEVAL": "INVESTIGATOR",
    "VISITNUM": 5,
    "VISIT": "WEEK 45",
    "RSDTC": "2021-02-19",
    "RSDY": 315
  },
  {
    "STUDYID": "KN868",
    "DOMAIN": "RS",
    "USUBJID": "KN868-0002-0011",
    "RSSEQ": 6,
    "RSTESTCD": "OVRLRESP",
    "RSTEST": "Overall Response",
    "RSCAT": "RECIST 1.1",
    "RSORRES": "PR",
    "RSSTRESC": "PR",
    "RSEVAL": "INVESTIGATOR",
    "VISITNUM": 6,
    "VISIT": "WEEK 54",
    "RSDTC": "2021-04-17",
    "RSDY": 378
  },
  {
    "STUDYID": "KN868",
    "DOMAIN": "RS",
    "USUBJID": "KN868-0002-0011",
    "RSSEQ": 7,
    "RSTESTCD": "OVRLRESP",
    "RSTEST": "Overall Response",
    "RSCAT": "RECIST 1.1",
    "RSORRES": "CR",
    "RSSTRESC": "CR",
    "RSEVAL": "INVESTIGATOR",
    "VISITNUM": 7,
    "VISIT": "WEEK 63",
    "RSDTC": "2021-06-22",
    "RSDY": 441
  },
  {
    "STUDYID": "KN868",
    "DOMAIN": "RS",
    "USUBJID": "KN868-0002-0011",
    "RSSEQ": 8,
    "RSTESTCD": "OVRLRESP",
    "RSTEST": "Overall Response",
    "RSCAT": "RECIST 1.1",
    "RSORRES": "PR",
    "RSSTRESC": "PR",
    "RSEVAL": "INVESTIGATOR",
    "VISITNUM": 8,
    "VISIT": "WEEK 72",
    "RSDTC": "2021-08-24",
    "RSDY": 504
  },
  {
    "STUDYID": "KN868",
    "DOMAIN": "RS",
    "USUBJID": "KN868-0002-0011",
    "RSSEQ": 9,
    "RSTESTCD": "BESTRESP",
    "RSTEST": "Best Overall Response",
    "RSCAT": "RECIST 1.1",
    "RSORRES": "PR",
    "RSSTRESC": "PR",
    "RSEVAL": "INVESTIGATOR",
    "VISITNUM": 999,
    "VISIT": "BEST RESPONSE",
    "RSDTC": "2023-09-30"
  },
  {
    "STUDYID": "KN868",
    "DOMAIN": "RS",
    "USUBJID": "KN868-0002-0012",
    "RSSEQ": 1,
    "RSTESTCD": "OVRLRESP",
    "RSTEST": "Overall Response",
    "RSCAT": "RECIST 1.1",
    "RSORRES": "SD",
    "RSSTRESC": "SD",
    "RSEVAL": "INVESTIGATOR",
    "VISITNUM": 1,
    "VISIT": "WEEK 9",
    "RSDTC": "2020-07-16",
    "RSDY": 63
  },
  {
    "STUDYID": "KN868",
    "DOMAIN": "RS",
    "USUBJID": "KN868-0002-0012",
    "RSSEQ": 2,
    "RSTESTCD": "OVRLRESP",
    "RSTEST": "Overall Response",
    "RSCAT": "RECIST 1.1",
    "RSORRES": "SD",
    "RSSTRESC": "SD",
    "RSEVAL": "INVESTIGATOR",
    "VISITNUM": 2,
    "VISIT": "WEEK 18",
    "RSDTC": "2020-09-17",
    "RSDY": 126
  },
  {
    "STUDYID": "KN868",
    "DOMAIN": "RS",
    "USUBJID": "KN868-0002-0012",
    "RSSEQ": 3,
    "RSTESTCD": "OVRLRESP",
    "RSTEST": "Overall Response",
    "RSCAT": "RECIST 1.1",
    "RSORRES": "SD",
    "RSSTRESC": "SD",
    "RSEVAL": "INVESTIGATOR",
    "VISITNUM": 3,
    "VISIT": "WEEK 27",
    "RSDTC": "2020-11-18",
    "RSDY": 189
  },
  {
    "STUDYID": "KN868",
    "DOMAIN": "RS",
    "USUBJID": "KN868-0002-0012",
    "RSSEQ": 4,
    "RSTESTCD": "OVRLRESP",
    "RSTEST": "Overall Response",
    "RSCAT": "RECIST 1.1",
    "RSORRES": "SD",
    "RSSTRESC": "SD",
    "RSEVAL": "INVESTIGATOR",
    "VISITNUM": 4,
    "VISIT": "WEEK 36",
    "RSDTC": "2021-01-22",
    "RSDY": 252
  },
  {
    "STUDYID": "KN868",
    "DOMAIN": "RS",
    "USUBJID": "KN868-0002-0012",
    "RSSEQ": 5,
    "RSTESTCD": "OVRLRESP",
    "RSTEST": "Overall Response",
    "RSCAT": "RECIST 1.1",
    "RSORRES": "SD",
    "RSSTRESC": "SD",
    "RSEVAL": "INVESTIGATOR",
    "VISITNUM": 5,
    "VISIT": "WEEK 45",
    "RSDTC": "2021-03-30",
    "RSDY": 315
  },
  {
    "STUDYID": "KN868",
    "DOMAIN": "RS",
    "USUBJID": "KN868-0002-0012",
    "RSSEQ": 6,
    "RSTESTCD": "OVRLRESP",
    "RSTEST": "Overall Response",
    "RSCAT": "RECIST 1.1",
    "RSORRES": "SD",
    "RSSTRESC": "SD",
    "RSEVAL": "INVESTIGATOR",
    "VISITNUM": 6,
    "VISIT": "WEEK 54",
    "RSDTC": "2021-05-28",
    "RSDY": 378
  },
  {
    "STUDYID": "KN868",
    "DOMAIN": "RS",
    "USUBJID": "KN868-0002-0012",
    "RSSEQ": 7,
    "RSTESTCD": "OVRLRESP",
    "RSTEST": "Overall Response",
    "RSCAT": "RECIST 1.1",
    "RSORRES": "SD",
    "RSSTRESC": "SD",
    "RSEVAL": "INVESTIGATOR",
    "VISITNUM": 7,
    "VISIT": "WEEK 63",
    "RSDTC": "2021-08-03",
    "RSDY": 441
  },
  {
    "STUDYID": "KN868",
    "DOMAIN": "RS",
    "USUBJID": "KN868-0002-0012",
    "RSSEQ": 8,
    "RSTESTCD": "OVRLRESP",
    "RSTEST": "Overall Response",
    "RSCAT": "RECIST 1.1",
    "RSORRES": "SD",
    "RSSTRESC": "SD",
    "RSEVAL": "INVESTIGATOR",
    "VISITNUM": 8,
    "VISIT": "WEEK 72",
    "RSDTC": "2021-09-30",
    "RSDY": 504
  },
  {
    "STUDYID": "KN868",
    "DOMAIN": "RS",
    "USUBJID": "KN868-0002-0012",
    "RSSEQ": 9,
    "RSTESTCD": "BESTRESP",
    "RSTEST": "Best Overall Response",
    "RSCAT": "RECIST 1.1",
    "RSORRES": "SD",
    "RSSTRESC": "SD",
    "RSEVAL": "INVESTIGATOR",
    "VISITNUM": 999,
    "VISIT": "BEST RESPONSE",
    "RSDTC": "2023-09-30"
  },
  {
    "STUDYID": "KN868",
    "DOMAIN": "RS",
    "USUBJID": "KN868-0002-0013",
    "RSSEQ": 1,
    "RSTESTCD": "OVRLRESP",
    "RSTEST": "Overall Response",
    "RSCAT": "RECIST 1.1",
    "RSORRES": "PR",
    "RSSTRESC": "PR",
    "RSEVAL": "INVESTIGATOR",
    "VISITNUM": 1,
    "VISIT": "WEEK 9",
    "RSDTC": "2021-10-25",
    "RSDY": 63
  },
  {
    "STUDYID": "KN868",
    "DOMAIN": "RS",
    "USUBJID": "KN868-0002-0013",
    "RSSEQ": 2,
    "RSTESTCD": "OVRLRESP",
    "RSTEST": "Overall Response",
    "RSCAT": "RECIST 1.1",
    "RSORRES": "PR",
    "RSSTRESC": "PR",
    "RSEVAL": "INVESTIGATOR",
    "VISITNUM": 2,
    "VISIT": "WEEK 18",
    "RSDTC": "2021-12-26",
    "RSDY": 126
  },
  {
    "STUDYID": "KN868",
    "DOMAIN": "RS",
    "USUBJID": "KN868-0002-0013",
    "RSSEQ": 3,
    "RSTESTCD": "OVRLRESP",
    "RSTEST": "Overall Response",
    "RSCAT": "RECIST 1.1",
    "RSORRES": "PR",
    "RSSTRESC": "PR",
    "RSEVAL": "INVESTIGATOR",
    "VISITNUM": 3,
    "VISIT": "WEEK 27",
    "RSDTC": "2022-02-27",
    "RSDY": 189
  },
  {
    "STUDYID": "KN868",
    "DOMAIN": "RS",
    "USUBJID": "KN868-0002-0013",
    "RSSEQ": 4,
    "RSTESTCD": "OVRLRESP",
    "RSTEST": "Overall Response",
    "RSCAT": "RECIST 1.1",
    "RSORRES": "CR",
    "RSSTRESC": "CR",
    "RSEVAL": "INVESTIGATOR",
    "VISITNUM": 4,
    "VISIT": "WEEK 36",
    "RSDTC": "2022-04-29",
    "RSDY": 252
  },
  {
    "STUDYID": "KN868",
    "DOMAIN": "RS",
    "USUBJID": "KN868-0002-0013",
    "RSSEQ": 5,
    "RSTESTCD": "OVRLRESP",
    "RSTEST": "Overall Response",
    "RSCAT": "RECIST 1.1",
    "RSORRES": "CR",
    "RSSTRESC": "CR",
    "RSEVAL": "INVESTIGATOR",
    "VISITNUM": 5,
    "VISIT": "WEEK 45",
    "RSDTC": "2022-07-03",
    "RSDY": 315
  },
  {
    "STUDYID": "KN868",
    "DOMAIN": "RS",
    "USUBJID": "KN868-0002-0013",
    "RSSEQ": 6,
    "RSTESTCD": "OVRLRESP",
    "RSTEST": "Overall Response",
    "RSCAT": "RECIST 1.1",
    "RSORRES": "PR",
    "RSSTRESC": "PR",
    "RSEVAL": "INVESTIGATOR",
    "VISITNUM": 6,
    "VISIT": "WEEK 54",
    "RSDTC": "2022-08-30",
    "RSDY": 378
  },
  {
    "STUDYID": "KN868",
    "DOMAIN": "RS",
    "USUBJID": "KN868-0002-0013",
    "RSSEQ": 7,
    "RSTESTCD": "OVRLRESP",
    "RSTEST": "Overall Response",
    "RSCAT": "RECIST 1.1",
    "RSORRES": "PR",
    "RSSTRESC": "PR",
    "RSEVAL": "INVESTIGATOR",
    "VISITNUM": 7,
    "VISIT": "WEEK 63",
    "RSDTC": "2022-11-02",
    "RSDY": 441
  },
  {
    "STUDYID": "KN868",
    "DOMAIN": "RS",
    "USUBJID": "KN868-0002-0013",
    "RSSEQ": 8,
    "RSTESTCD": "OVRLRESP",
    "RSTEST": "Overall Response",
    "RSCAT": "RECIST 1.1",
    "RSORRES": "PR",
    "RSSTRESC": "PR",
    "RSEVAL": "INVESTIGATOR",
    "VISITNUM": 8,
    "VISIT": "WEEK 72",
    "RSDTC": "2023-01-09",
    "RSDY": 504
  },
  {
    "STUDYID": "KN868",
    "DOMAIN": "RS",
    "USUBJID": "KN868-0002-0013",
    "RSSEQ": 9,
    "RSTESTCD": "BESTRESP",
    "RSTEST": "Best Overall Response",
    "RSCAT": "RECIST 1.1",
    "RSORRES": "PR",
    "RSSTRESC": "PR",
    "RSEVAL": "INVESTIGATOR",
    "VISITNUM": 999,
    "VISIT": "BEST RESPONSE",
    "RSDTC": "2023-09-30"
  },
  {
    "STUDYID": "KN868",
    "DOMAIN": "RS",
    "USUBJID": "KN868-0002-0014",
    "RSSEQ": 1,
    "RSTESTCD": "OVRLRESP",
    "RSTEST": "Overall Response",
    "RSCAT": "RECIST 1.1",
    "RSORRES": "SD",
    "RSSTRESC": "SD",
    "RSEVAL": "INVESTIGATOR",
    "VISITNUM": 1,
    "VISIT": "WEEK 9",
    "RSDTC": "2021-06-22",
    "RSDY": 63
  },
  {
    "STUDYID": "KN868",
    "DOMAIN": "RS",
    "USUBJID": "KN868-0002-0014",
    "RSSEQ": 2,
    "RSTESTCD": "OVRLRESP",
    "RSTEST": "Overall Response",
    "RSCAT": "RECIST 1.1",
    "RSORRES": "SD",
    "RSSTRESC": "SD",
    "RSEVAL": "INVESTIGATOR",
    "VISITNUM": 2,
    "VISIT": "WEEK 18",
    "RSDTC": "2021-08-24",
    "RSDY": 126
  },
  {
    "STUDYID": "KN868",
    "DOMAIN": "RS",
    "USUBJID": "KN868-0002-0014",
    "RSSEQ": 3,
    "RSTESTCD": "OVRLRESP",
    "RSTEST": "Overall Response",
    "RSCAT": "RECIST 1.1",
    "RSORRES": "SD",
    "RSSTRESC": "SD",
    "RSEVAL": "INVESTIGATOR",
    "VISITNUM": 3,
    "VISIT": "WEEK 27",
    "RSDTC": "2021-10-28",
    "RSDY": 189
  },
  {
    "STUDYID": "KN868",
    "DOMAIN": "RS",
    "USUBJID": "KN868-0002-0014",
    "RSSEQ": 4,
    "RSTESTCD": "OVRLRESP",
    "RSTEST": "Overall Response",
    "RSCAT": "RECIST 1.1",
    "RSORRES": "SD",
    "RSSTRESC": "SD",
    "RSEVAL": "INVESTIGATOR",
    "VISITNUM": 4,
    "VISIT": "WEEK 36",
    "RSDTC": "2021-12-31",
    "RSDY": 252
  },
  {
    "STUDYID": "KN868",
    "DOMAIN": "RS",
    "USUBJID": "KN868-0002-0014",
    "RSSEQ": 5,
    "RSTESTCD": "OVRLRESP",
    "RSTEST": "Overall Response",
    "RSCAT": "RECIST 1.1",
    "RSORRES": "SD",
    "RSSTRESC": "SD",
    "RSEVAL": "INVESTIGATOR",
    "VISITNUM": 5,
    "VISIT": "WEEK 45",
    "RSDTC": "2022-03-01",
    "RSDY": 315
  },
  {
    "STUDYID": "KN868",
    "DOMAIN": "RS",
    "USUBJID": "KN868-0002-0014",
    "RSSEQ": 6,
    "RSTESTCD": "OVRLRESP",
    "RSTEST": "Overall Response",
    "RSCAT": "RECIST 1.1",
    "RSORRES": "SD",
    "RSSTRESC": "SD",
    "RSEVAL": "INVESTIGATOR",
    "VISITNUM": 6,
    "VISIT": "WEEK 54",
    "RSDTC": "2022-05-02",
    "RSDY": 378
  },
  {
    "STUDYID": "KN868",
    "DOMAIN": "RS",
    "USUBJID": "KN868-0002-0014",
    "RSSEQ": 7,
    "RSTESTCD": "OVRLRESP",
    "RSTEST": "Overall Response",
    "RSCAT": "RECIST 1.1",
    "RSORRES": "SD",
    "RSSTRESC": "SD",
    "RSEVAL": "INVESTIGATOR",
    "VISITNUM": 7,
    "VISIT": "WEEK 63",
    "RSDTC": "2022-07-04",
    "RSDY": 441
  },
  {
    "STUDYID": "KN868",
    "DOMAIN": "RS",
    "USUBJID": "KN868-0002-0014",
    "RSSEQ": 8,
    "RSTESTCD": "OVRLRESP",
    "RSTEST": "Overall Response",
    "RSCAT": "RECIST 1.1",
    "RSORRES": "SD",
    "RSSTRESC": "SD",
    "RSEVAL": "INVESTIGATOR",
    "VISITNUM": 8,
    "VISIT": "WEEK 72",
    "RSDTC": "2022-09-06",
    "RSDY": 504
  },
  {
    "STUDYID": "KN868",
    "DOMAIN": "RS",
    "USUBJID": "KN868-0002-0014",
    "RSSEQ": 9,
    "RSTESTCD": "BESTRESP",
    "RSTEST": "Best Overall Response",
    "RSCAT": "RECIST 1.1",
    "RSORRES": "SD",
    "RSSTRESC": "SD",
    "RSEVAL": "INVESTIGATOR",
    "VISITNUM": 999,
    "VISIT": "BEST RESPONSE",
    "RSDTC": "2023-09-30"
  },
  {
    "STUDYID": "KN868",
    "DOMAIN": "RS",
    "USUBJID": "KN868-0002-0015",
    "RSSEQ": 1,
    "RSTESTCD": "OVRLRESP",
    "RSTEST": "Overall Response",
    "RSCAT": "RECIST 1.1",
    "RSORRES": "SD",
    "RSSTRESC": "SD",
    "RSEVAL": "INVESTIGATOR",
    "VISITNUM": 1,
    "VISIT": "WEEK 9",
    "RSDTC": "2021-04-21",
    "RSDY": 63
  },
  {
    "STUDYID": "KN868",
    "DOMAIN": "RS",
    "USUBJID": "KN868-0002-0015",
    "RSSEQ": 2,
    "RSTESTCD": "OVRLRESP",
    "RSTEST": "Overall Response",
    "RSCAT": "RECIST 1.1",
    "RSORRES": "PD",
    "RSSTRESC": "PD",
    "RSEVAL": "INVESTIGATOR",
    "VISITNUM": 2,
    "VISIT": "WEEK 18",
    "RSDTC": "2021-06-23",
    "RSDY": 126
  },
  {
    "STUDYID": "KN868",
    "DOMAIN": "RS",
    "USUBJID": "KN868-0002-0015",
    "RSSEQ": 3,
    "RSTESTCD": "OVRLRESP",
    "RSTEST": "Overall Response",
    "RSCAT": "RECIST 1.1",
    "RSORRES": "PD",
    "RSSTRESC": "PD",
    "RSEVAL": "INVESTIGATOR",
    "VISITNUM": 3,
    "VISIT": "WEEK 27",
    "RSDTC": "2021-08-24",
    "RSDY": 189
  },
  {
    "STUDYID": "KN868",
    "DOMAIN": "RS",
    "USUBJID": "KN868-0002-0015",
    "RSSEQ": 4,
    "RSTESTCD": "OVRLRESP",
    "RSTEST": "Overall Response",
    "RSCAT": "RECIST 1.1",
    "RSORRES": "PD",
    "RSSTRESC": "PD",
    "RSEVAL": "INVESTIGATOR",
    "VISITNUM": 4,
    "VISIT": "WEEK 36",
    "RSDTC": "2021-10-27",
    "RSDY": 252
  },
  {
    "STUDYID": "KN868",
    "DOMAIN": "RS",
    "USUBJID": "KN868-0002-0015",
    "RSSEQ": 5,
    "RSTESTCD": "OVRLRESP",
    "RSTEST": "Overall Response",
    "RSCAT": "RECIST 1.1",
    "RSORRES": "PD",
    "RSSTRESC": "PD",
    "RSEVAL": "INVESTIGATOR",
    "VISITNUM": 5,
    "VISIT": "WEEK 45",
    "RSDTC": "2021-12-31",
    "RSDY": 315
  },
  {
    "STUDYID": "KN868",
    "DOMAIN": "RS",
    "USUBJID": "KN868-0002-0015",
    "RSSEQ": 6,
    "RSTESTCD": "OVRLRESP",
    "RSTEST": "Overall Response",
    "RSCAT": "RECIST 1.1",
    "RSORRES": "PD",
    "RSSTRESC": "PD",
    "RSEVAL": "INVESTIGATOR",
    "VISITNUM": 6,
    "VISIT": "WEEK 54",
    "RSDTC": "2022-02-27",
    "RSDY": 378
  },
  {
    "STUDYID": "KN868",
    "DOMAIN": "RS",
    "USUBJID": "KN868-0002-0015",
    "RSSEQ": 7,
    "RSTESTCD": "OVRLRESP",
    "RSTEST": "Overall Response",
    "RSCAT": "RECIST 1.1",
    "RSORRES": "PD",
    "RSSTRESC": "PD",
    "RSEVAL": "INVESTIGATOR",
    "VISITNUM": 7,
    "VISIT": "WEEK 63",
    "RSDTC": "2022-05-06",
    "RSDY": 441
  },
  {
    "STUDYID": "KN868",
    "DOMAIN": "RS",
    "USUBJID": "KN868-0002-0015",
    "RSSEQ": 8,
    "RSTESTCD": "OVRLRESP",
    "RSTEST": "Overall Response",
    "RSCAT": "RECIST 1.1",
    "RSORRES": "PD",
    "RSSTRESC": "PD",
    "RSEVAL": "INVESTIGATOR",
    "VISITNUM": 8,
    "VISIT": "WEEK 72",
    "RSDTC": "2022-07-08",
    "RSDY": 504
  },
  {
    "STUDYID": "KN868",
    "DOMAIN": "RS",
    "USUBJID": "KN868-0002-0015",
    "RSSEQ": 9,
    "RSTESTCD": "BESTRESP",
    "RSTEST": "Best Overall Response",
    "RSCAT": "RECIST 1.1",
    "RSORRES": "PD",
    "RSSTRESC": "PD",
    "RSEVAL": "INVESTIGATOR",
    "VISITNUM": 999,
    "VISIT": "BEST RESPONSE",
    "RSDTC": "2023-09-30"
  },
  {
    "STUDYID": "KN868",
    "DOMAIN": "RS",
    "USUBJID": "KN868-0002-0016",
    "RSSEQ": 1,
    "RSTESTCD": "OVRLRESP",
    "RSTEST": "Overall Response",
    "RSCAT": "RECIST 1.1",
    "RSORRES": "SD",
    "RSSTRESC": "SD",
    "RSEVAL": "INVESTIGATOR",
    "VISITNUM": 1,
    "VISIT": "WEEK 9",
    "RSDTC": "2020-11-10",
    "RSDY": 63
  },
  {
    "STUDYID": "KN868",
    "DOMAIN": "RS",
    "USUBJID": "KN868-0002-0016",
    "RSSEQ": 2,
    "RSTESTCD": "OVRLRESP",
    "RSTEST": "Overall Response",
    "RSCAT": "RECIST 1.1",
    "RSORRES": "SD",
    "RSSTRESC": "SD",
    "RSEVAL": "INVESTIGATOR",
    "VISITNUM": 2,
    "VISIT": "WEEK 18",
    "RSDTC": "2021-01-14",
    "RSDY": 126
  },
  {
    "STUDYID": "KN868",
    "DOMAIN": "RS",
    "USUBJID": "KN868-0002-0016",
    "RSSEQ": 3,
    "RSTESTCD": "OVRLRESP",
    "RSTEST": "Overall Response",
    "RSCAT": "RECIST 1.1",
    "RSORRES": "SD",
    "RSSTRESC": "SD",
    "RSEVAL": "INVESTIGATOR",
    "VISITNUM": 3,
    "VISIT": "WEEK 27",
    "RSDTC": "2021-03-15",
    "RSDY": 189
  },
  {
    "STUDYID": "KN868",
    "DOMAIN": "RS",
    "USUBJID": "KN868-0002-0016",
    "RSSEQ": 4,
    "RSTESTCD": "OVRLRESP",
    "RSTEST": "Overall Response",
    "RSCAT": "RECIST 1.1",
    "RSORRES": "SD",
    "RSSTRESC": "SD",
    "RSEVAL": "INVESTIGATOR",
    "VISITNUM": 4,
    "VISIT": "WEEK 36",
    "RSDTC": "2021-05-21",
    "RSDY": 252
  },
  {
    "STUDYID": "KN868",
    "DOMAIN": "RS",
    "USUBJID": "KN868-0002-0016",
    "RSSEQ": 5,
    "RSTESTCD": "OVRLRESP",
    "RSTEST": "Overall Response",
    "RSCAT": "RECIST 1.1",
    "RSORRES": "SD",
    "RSSTRESC": "SD",
    "RSEVAL": "INVESTIGATOR",
    "VISITNUM": 5,
    "VISIT": "WEEK 45",
    "RSDTC": "2021-07-24",
    "RSDY": 315
  },
  {
    "STUDYID": "KN868",
    "DOMAIN": "RS",
    "USUBJID": "KN868-0002-0016",
    "RSSEQ": 6,
    "RSTESTCD": "OVRLRESP",
    "RSTEST": "Overall Response",
    "RSCAT": "RECIST 1.1",
    "RSORRES": "SD",
    "RSSTRESC": "SD",
    "RSEVAL": "INVESTIGATOR",
    "VISITNUM": 6,
    "VISIT": "WEEK 54",
    "RSDTC": "2021-09-22",
    "RSDY": 378
  },
  {
    "STUDYID": "KN868",
    "DOMAIN": "RS",
    "USUBJID": "KN868-0002-0016",
    "RSSEQ": 7,
    "RSTESTCD": "OVRLRESP",
    "RSTEST": "Overall Response",
    "RSCAT": "RECIST 1.1",
    "RSORRES": "SD",
    "RSSTRESC": "SD",
    "RSEVAL": "INVESTIGATOR",
    "VISITNUM": 7,
    "VISIT": "WEEK 63",
    "RSDTC": "2021-11-26",
    "RSDY": 441
  },
  {
    "STUDYID": "KN868",
    "DOMAIN": "RS",
    "USUBJID": "KN868-0002-0016",
    "RSSEQ": 8,
    "RSTESTCD": "OVRLRESP",
    "RSTEST": "Overall Response",
    "RSCAT": "RECIST 1.1",
    "RSORRES": "SD",
    "RSSTRESC": "SD",
    "RSEVAL": "INVESTIGATOR",
    "VISITNUM": 8,
    "VISIT": "WEEK 72",
    "RSDTC": "2022-01-29",
    "RSDY": 504
  },
  {
    "STUDYID": "KN868",
    "DOMAIN": "RS",
    "USUBJID": "KN868-0002-0016",
    "RSSEQ": 9,
    "RSTESTCD": "BESTRESP",
    "RSTEST": "Best Overall Response",
    "RSCAT": "RECIST 1.1",
    "RSORRES": "SD",
    "RSSTRESC": "SD",
    "RSEVAL": "INVESTIGATOR",
    "VISITNUM": 999,
    "VISIT": "BEST RESPONSE",
    "RSDTC": "2023-09-30"
  },
  {
    "STUDYID": "KN868",
    "DOMAIN": "RS",
    "USUBJID": "KN868-0002-0017",
    "RSSEQ": 1,
    "RSTESTCD": "OVRLRESP",
    "RSTEST": "Overall Response",
    "RSCAT": "RECIST 1.1",
    "RSORRES": "PR",
    "RSSTRESC": "PR",
    "RSEVAL": "INVESTIGATOR",
    "VISITNUM": 1,
    "VISIT": "WEEK 9",
    "RSDTC": "2020-06-09",
    "RSDY": 63
  },
  {
    "STUDYID": "KN868",
    "DOMAIN": "RS",
    "USUBJID": "KN868-0002-0017",
    "RSSEQ": 2,
    "RSTESTCD": "OVRLRESP",
    "RSTEST": "Overall Response",
    "RSCAT": "RECIST 1.1",
    "RSORRES": "PR",
    "RSSTRESC": "PR",
    "RSEVAL": "INVESTIGATOR",
    "VISITNUM": 2,
    "VISIT": "WEEK 18",
    "RSDTC": "2020-08-17",
    "RSDY": 126
  },
  {
    "STUDYID": "KN868",
    "DOMAIN": "RS",
    "USUBJID": "KN868-0002-0017",
    "RSSEQ": 3,
    "RSTESTCD": "OVRLRESP",
    "RSTEST": "Overall Response",
    "RSCAT": "RECIST 1.1",
    "RSORRES": "CR",
    "RSSTRESC": "CR",
    "RSEVAL": "INVESTIGATOR",
    "VISITNUM": 3,
    "VISIT": "WEEK 27",
    "RSDTC": "2020-10-16",
    "RSDY": 189
  },
  {
    "STUDYID": "KN868",
    "DOMAIN": "RS",
    "USUBJID": "KN868-0002-0017",
    "RSSEQ": 4,
    "RSTESTCD": "OVRLRESP",
    "RSTEST": "Overall Response",
    "RSCAT": "RECIST 1.1",
    "RSORRES": "CR",
    "RSSTRESC": "CR",
    "RSEVAL": "INVESTIGATOR",
    "VISITNUM": 4,
    "VISIT": "WEEK 36",
    "RSDTC": "2020-12-15",
    "RSDY": 252
  },
  {
    "STUDYID": "KN868",
    "DOMAIN": "RS",
    "USUBJID": "KN868-0002-0017",
    "RSSEQ": 5,
    "RSTESTCD": "OVRLRESP",
    "RSTEST": "Overall Response",
    "RSCAT": "RECIST 1.1",
    "RSORRES": "CR",
    "RSSTRESC": "CR",
    "RSEVAL": "INVESTIGATOR",
    "VISITNUM": 5,
    "VISIT": "WEEK 45",
    "RSDTC": "2021-02-22",
    "RSDY": 315
  },
  {
    "STUDYID": "KN868",
    "DOMAIN": "RS",
    "USUBJID": "KN868-0002-0017",
    "RSSEQ": 6,
    "RSTESTCD": "OVRLRESP",
    "RSTEST": "Overall Response",
    "RSCAT": "RECIST 1.1",
    "RSORRES": "CR",
    "RSSTRESC": "CR",
    "RSEVAL": "INVESTIGATOR",
    "VISITNUM": 6,
    "VISIT": "WEEK 54",
    "RSDTC": "2021-04-25",
    "RSDY": 378
  },
  {
    "STUDYID": "KN868",
    "DOMAIN": "RS",
    "USUBJID": "KN868-0002-0017",
    "RSSEQ": 7,
    "RSTESTCD": "OVRLRESP",
    "RSTEST": "Overall Response",
    "RSCAT": "RECIST 1.1",
    "RSORRES": "CR",
    "RSSTRESC": "CR",
    "RSEVAL": "INVESTIGATOR",
    "VISITNUM": 7,
    "VISIT": "WEEK 63",
    "RSDTC": "2021-06-26",
    "RSDY": 441
  },
  {
    "STUDYID": "KN868",
    "DOMAIN": "RS",
    "USUBJID": "KN868-0002-0017",
    "RSSEQ": 8,
    "RSTESTCD": "OVRLRESP",
    "RSTEST": "Overall Response",
    "RSCAT": "RECIST 1.1",
    "RSORRES": "CR",
    "RSSTRESC": "CR",
    "RSEVAL": "INVESTIGATOR",
    "VISITNUM": 8,
    "VISIT": "WEEK 72",
    "RSDTC": "2021-08-25",
    "RSDY": 504
  },
  {
    "STUDYID": "KN868",
    "DOMAIN": "RS",
    "USUBJID": "KN868-0002-0017",
    "RSSEQ": 9,
    "RSTESTCD": "BESTRESP",
    "RSTEST": "Best Overall Response",
    "RSCAT": "RECIST 1.1",
    "RSORRES": "CR",
    "RSSTRESC": "CR",
    "RSEVAL": "INVESTIGATOR",
    "VISITNUM": 999,
    "VISIT": "BEST RESPONSE",
    "RSDTC": "2023-09-30"
  },
  {
    "STUDYID": "KN868",
    "DOMAIN": "RS",
    "USUBJID": "KN868-0002-0018",
    "RSSEQ": 1,
    "RSTESTCD": "OVRLRESP",
    "RSTEST": "Overall Response",
    "RSCAT": "RECIST 1.1",
    "RSORRES": "PR",
    "RSSTRESC": "PR",
    "RSEVAL": "INVESTIGATOR",
    "VISITNUM": 1,
    "VISIT": "WEEK 9",
    "RSDTC": "2021-07-29",
    "RSDY": 63
  },
  {
    "STUDYID": "KN868",
    "DOMAIN": "RS",
    "USUBJID": "KN868-0002-0018",
    "RSSEQ": 2,
    "RSTESTCD": "OVRLRESP",
    "RSTEST": "Overall Response",
    "RSCAT": "RECIST 1.1",
    "RSORRES": "PR",
    "RSSTRESC": "PR",
    "RSEVAL": "INVESTIGATOR",
    "VISITNUM": 2,
    "VISIT": "WEEK 18",
    "RSDTC": "2021-09-27",
    "RSDY": 126
  },
  {
    "STUDYID": "KN868",
    "DOMAIN": "RS",
    "USUBJID": "KN868-0002-0018",
    "RSSEQ": 3,
    "RSTESTCD": "OVRLRESP",
    "RSTEST": "Overall Response",
    "RSCAT": "RECIST 1.1",
    "RSORRES": "CR",
    "RSSTRESC": "CR",
    "RSEVAL": "INVESTIGATOR",
    "VISITNUM": 3,
    "VISIT": "WEEK 27",
    "RSDTC": "2021-11-28",
    "RSDY": 189
  },
  {
    "STUDYID": "KN868",
    "DOMAIN": "RS",
    "USUBJID": "KN868-0002-0018",
    "RSSEQ": 4,
    "RSTESTCD": "OVRLRESP",
    "RSTEST": "Overall Response",
    "RSCAT": "RECIST 1.1",
    "RSORRES": "CR",
    "RSSTRESC": "CR",
    "RSEVAL": "INVESTIGATOR",
    "VISITNUM": 4,
    "VISIT": "WEEK 36",
    "RSDTC": "2022-01-30",
    "RSDY": 252
  },
  {
    "STUDYID": "KN868",
    "DOMAIN": "RS",
    "USUBJID": "KN868-0002-0018",
    "RSSEQ": 5,
    "RSTESTCD": "OVRLRESP",
    "RSTEST": "Overall Response",
    "RSCAT": "RECIST 1.1",
    "RSORRES": "CR",
    "RSSTRESC": "CR",
    "RSEVAL": "INVESTIGATOR",
    "VISITNUM": 5,
    "VISIT": "WEEK 45",
    "RSDTC": "2022-04-01",
    "RSDY": 315
  },
  {
    "STUDYID": "KN868",
    "DOMAIN": "RS",
    "USUBJID": "KN868-0002-0018",
    "RSSEQ": 6,
    "RSTESTCD": "OVRLRESP",
    "RSTEST": "Overall Response",
    "RSCAT": "RECIST 1.1",
    "RSORRES": "CR",
    "RSSTRESC": "CR",
    "RSEVAL": "INVESTIGATOR",
    "VISITNUM": 6,
    "VISIT": "WEEK 54",
    "RSDTC": "2022-06-03",
    "RSDY": 378
  },
  {
    "STUDYID": "KN868",
    "DOMAIN": "RS",
    "USUBJID": "KN868-0002-0018",
    "RSSEQ": 7,
    "RSTESTCD": "OVRLRESP",
    "RSTEST": "Overall Response",
    "RSCAT": "RECIST 1.1",
    "RSORRES": "CR",
    "RSSTRESC": "CR",
    "RSEVAL": "INVESTIGATOR",
    "VISITNUM": 7,
    "VISIT": "WEEK 63",
    "RSDTC": "2022-08-09",
    "RSDY": 441
  },
  {
    "STUDYID": "KN868",
    "DOMAIN": "RS",
    "USUBJID": "KN868-0002-0018",
    "RSSEQ": 8,
    "RSTESTCD": "OVRLRESP",
    "RSTEST": "Overall Response",
    "RSCAT": "RECIST 1.1",
    "RSORRES": "CR",
    "RSSTRESC": "CR",
    "RSEVAL": "INVESTIGATOR",
    "VISITNUM": 8,
    "VISIT": "WEEK 72",
    "RSDTC": "2022-10-11",
    "RSDY": 504
  },
  {
    "STUDYID": "KN868",
    "DOMAIN": "RS",
    "USUBJID": "KN868-0002-0018",
    "RSSEQ": 9,
    "RSTESTCD": "BESTRESP",
    "RSTEST": "Best Overall Response",
    "RSCAT": "RECIST 1.1",
    "RSORRES": "CR",
    "RSSTRESC": "CR",
    "RSEVAL": "INVESTIGATOR",
    "VISITNUM": 999,
    "VISIT": "BEST RESPONSE",
    "RSDTC": "2023-09-30"
  },
  {
    "STUDYID": "KN868",
    "DOMAIN": "RS",
    "USUBJID": "KN868-0002-0019",
    "RSSEQ": 1,
    "RSTESTCD": "OVRLRESP",
    "RSTEST": "Overall Response",
    "RSCAT": "RECIST 1.1",
    "RSORRES": "SD",
    "RSSTRESC": "SD",
    "RSEVAL": "INVESTIGATOR",
    "VISITNUM": 1,
    "VISIT": "WEEK 9",
    "RSDTC": "2022-04-01",
    "RSDY": 63
  },
  {
    "STUDYID": "KN868",
    "DOMAIN": "RS",
    "USUBJID": "KN868-0002-0019",
    "RSSEQ": 2,
    "RSTESTCD": "OVRLRESP",
    "RSTEST": "Overall Response",
    "RSCAT": "RECIST 1.1",
    "RSORRES": "PD",
    "RSSTRESC": "PD",
    "RSEVAL": "INVESTIGATOR",
    "VISITNUM": 2,
    "VISIT": "WEEK 18",
    "RSDTC": "2022-06-03",
    "RSDY": 126
  },
  {
    "STUDYID": "KN868",
    "DOMAIN": "RS",
    "USUBJID": "KN868-0002-0019",
    "RSSEQ": 3,
    "RSTESTCD": "OVRLRESP",
    "RSTEST": "Overall Response",
    "RSCAT": "RECIST 1.1",
    "RSORRES": "PD",
    "RSSTRESC": "PD",
    "RSEVAL": "INVESTIGATOR",
    "VISITNUM": 3,
    "VISIT": "WEEK 27",
    "RSDTC": "2022-08-08",
    "RSDY": 189
  },
  {
    "STUDYID": "KN868",
    "DOMAIN": "RS",
    "USUBJID": "KN868-0002-0019",
    "RSSEQ": 4,
    "RSTESTCD": "OVRLRESP",
    "RSTEST": "Overall Response",
    "RSCAT": "RECIST 1.1",
    "RSORRES": "PD",
    "RSSTRESC": "PD",
    "RSEVAL": "INVESTIGATOR",
    "VISITNUM": 4,
    "VISIT": "WEEK 36",
    "RSDTC": "2022-10-10",
    "RSDY": 252
  },
  {
    "STUDYID": "KN868",
    "DOMAIN": "RS",
    "USUBJID": "KN868-0002-0019",
    "RSSEQ": 5,
    "RSTESTCD": "OVRLRESP",
    "RSTEST": "Overall Response",
    "RSCAT": "RECIST 1.1",
    "RSORRES": "PD",
    "RSSTRESC": "PD",
    "RSEVAL": "INVESTIGATOR",
    "VISITNUM": 5,
    "VISIT": "WEEK 45",
    "RSDTC": "2022-12-09",
    "RSDY": 315
  },
  {
    "STUDYID": "KN868",
    "DOMAIN": "RS",
    "USUBJID": "KN868-0002-0019",
    "RSSEQ": 6,
    "RSTESTCD": "OVRLRESP",
    "RSTEST": "Overall Response",
    "RSCAT": "RECIST 1.1",
    "RSORRES": "PD",
    "RSSTRESC": "PD",
    "RSEVAL": "INVESTIGATOR",
    "VISITNUM": 6,
    "VISIT": "WEEK 54",
    "RSDTC": "2023-02-10",
    "RSDY": 378
  },
  {
    "STUDYID": "KN868",
    "DOMAIN": "RS",
    "USUBJID": "KN868-0002-0019",
    "RSSEQ": 7,
    "RSTESTCD": "OVRLRESP",
    "RSTEST": "Overall Response",
    "RSCAT": "RECIST 1.1",
    "RSORRES": "PD",
    "RSSTRESC": "PD",
    "RSEVAL": "INVESTIGATOR",
    "VISITNUM": 7,
    "VISIT": "WEEK 63",
    "RSDTC": "2023-04-15",
    "RSDY": 441
  },
  {
    "STUDYID": "KN868",
    "DOMAIN": "RS",
    "USUBJID": "KN868-0002-0019",
    "RSSEQ": 8,
    "RSTESTCD": "OVRLRESP",
    "RSTEST": "Overall Response",
    "RSCAT": "RECIST 1.1",
    "RSORRES": "PD",
    "RSSTRESC": "PD",
    "RSEVAL": "INVESTIGATOR",
    "VISITNUM": 8,
    "VISIT": "WEEK 72",
    "RSDTC": "2023-06-13",
    "RSDY": 504
  },
  {
    "STUDYID": "KN868",
    "DOMAIN": "RS",
    "USUBJID": "KN868-0002-0019",
    "RSSEQ": 9,
    "RSTESTCD": "BESTRESP",
    "RSTEST": "Best Overall Response",
    "RSCAT": "RECIST 1.1",
    "RSORRES": "PD",
    "RSSTRESC": "PD",
    "RSEVAL": "INVESTIGATOR",
    "VISITNUM": 999,
    "VISIT": "BEST RESPONSE",
    "RSDTC": "2023-09-30"
  },
  {
    "STUDYID": "KN868",
    "DOMAIN": "RS",
    "USUBJID": "KN868-0002-0020",
    "RSSEQ": 1,
    "RSTESTCD": "OVRLRESP",
    "RSTEST": "Overall Response",
    "RSCAT": "RECIST 1.1",
    "RSORRES": "SD",
    "RSSTRESC": "SD",
    "RSEVAL": "INVESTIGATOR",
    "VISITNUM": 1,
    "VISIT": "WEEK 9",
    "RSDTC": "2020-05-31",
    "RSDY": 63
  },
  {
    "STUDYID": "KN868",
    "DOMAIN": "RS",
    "USUBJID": "KN868-0002-0020",
    "RSSEQ": 2,
    "RSTESTCD": "OVRLRESP",
    "RSTEST": "Overall Response",
    "RSCAT": "RECIST 1.1",
    "RSORRES": "SD",
    "RSSTRESC": "SD",
    "RSEVAL": "INVESTIGATOR",
    "VISITNUM": 2,
    "VISIT": "WEEK 18",
    "RSDTC": "2020-07-30",
    "RSDY": 126
  },
  {
    "STUDYID": "KN868",
    "DOMAIN": "RS",
    "USUBJID": "KN868-0002-0020",
    "RSSEQ": 3,
    "RSTESTCD": "OVRLRESP",
    "RSTEST": "Overall Response",
    "RSCAT": "RECIST 1.1",
    "RSORRES": "SD",
    "RSSTRESC": "SD",
    "RSEVAL": "INVESTIGATOR",
    "VISITNUM": 3,
    "VISIT": "WEEK 27",
    "RSDTC": "2020-09-29",
    "RSDY": 189
  },
  {
    "STUDYID": "KN868",
    "DOMAIN": "RS",
    "USUBJID": "KN868-0002-0020",
    "RSSEQ": 4,
    "RSTESTCD": "OVRLRESP",
    "RSTEST": "Overall Response",
    "RSCAT": "RECIST 1.1",
    "RSORRES": "SD",
    "RSSTRESC": "SD",
    "RSEVAL": "INVESTIGATOR",
    "VISITNUM": 4,
    "VISIT": "WEEK 36",
    "RSDTC": "2020-12-05",
    "RSDY": 252
  },
  {
    "STUDYID": "KN868",
    "DOMAIN": "RS",
    "USUBJID": "KN868-0002-0020",
    "RSSEQ": 5,
    "RSTESTCD": "OVRLRESP",
    "RSTEST": "Overall Response",
    "RSCAT": "RECIST 1.1",
    "RSORRES": "SD",
    "RSSTRESC": "SD",
    "RSEVAL": "INVESTIGATOR",
    "VISITNUM": 5,
    "VISIT": "WEEK 45",
    "RSDTC": "2021-02-05",
    "RSDY": 315
  },
  {
    "STUDYID": "KN868",
    "DOMAIN": "RS",
    "USUBJID": "KN868-0002-0020",
    "RSSEQ": 6,
    "RSTESTCD": "OVRLRESP",
    "RSTEST": "Overall Response",
    "RSCAT": "RECIST 1.1",
    "RSORRES": "SD",
    "RSSTRESC": "SD",
    "RSEVAL": "INVESTIGATOR",
    "VISITNUM": 6,
    "VISIT": "WEEK 54",
    "RSDTC": "2021-04-09",
    "RSDY": 378
  },
  {
    "STUDYID": "KN868",
    "DOMAIN": "RS",
    "USUBJID": "KN868-0002-0020",
    "RSSEQ": 7,
    "RSTESTCD": "OVRLRESP",
    "RSTEST": "Overall Response",
    "RSCAT": "RECIST 1.1",
    "RSORRES": "SD",
    "RSSTRESC": "SD",
    "RSEVAL": "INVESTIGATOR",
    "VISITNUM": 7,
    "VISIT": "WEEK 63",
    "RSDTC": "2021-06-10",
    "RSDY": 441
  },
  {
    "STUDYID": "KN868",
    "DOMAIN": "RS",
    "USUBJID": "KN868-0002-0020",
    "RSSEQ": 8,
    "RSTESTCD": "OVRLRESP",
    "RSTEST": "Overall Response",
    "RSCAT": "RECIST 1.1",
    "RSORRES": "SD",
    "RSSTRESC": "SD",
    "RSEVAL": "INVESTIGATOR",
    "VISITNUM": 8,
    "VISIT": "WEEK 72",
    "RSDTC": "2021-08-12",
    "RSDY": 504
  },
  {
    "STUDYID": "KN868",
    "DOMAIN": "RS",
    "USUBJID": "KN868-0002-0020",
    "RSSEQ": 9,
    "RSTESTCD": "BESTRESP",
    "RSTEST": "Best Overall Response",
    "RSCAT": "RECIST 1.1",
    "RSORRES": "SD",
    "RSSTRESC": "SD",
    "RSEVAL": "INVESTIGATOR",
    "VISITNUM": 999,
    "VISIT": "BEST RESPONSE",
    "RSDTC": "2023-09-30"
  },
  {
    "STUDYID": "KN868",
    "DOMAIN": "RS",
    "USUBJID": "KN868-0002-0021",
    "RSSEQ": 1,
    "RSTESTCD": "OVRLRESP",
    "RSTEST": "Overall Response",
    "RSCAT": "RECIST 1.1",
    "RSORRES": "SD",
    "RSSTRESC": "SD",
    "RSEVAL": "INVESTIGATOR",
    "VISITNUM": 1,
    "VISIT": "WEEK 9",
    "RSDTC": "2021-02-03",
    "RSDY": 63
  },
  {
    "STUDYID": "KN868",
    "DOMAIN": "RS",
    "USUBJID": "KN868-0002-0021",
    "RSSEQ": 2,
    "RSTESTCD": "OVRLRESP",
    "RSTEST": "Overall Response",
    "RSCAT": "RECIST 1.1",
    "RSORRES": "PR",
    "RSSTRESC": "PR",
    "RSEVAL": "INVESTIGATOR",
    "VISITNUM": 2,
    "VISIT": "WEEK 18",
    "RSDTC": "2021-04-07",
    "RSDY": 126
  },
  {
    "STUDYID": "KN868",
    "DOMAIN": "RS",
    "USUBJID": "KN868-0002-0021",
    "RSSEQ": 3,
    "RSTESTCD": "OVRLRESP",
    "RSTEST": "Overall Response",
    "RSCAT": "RECIST 1.1",
    "RSORRES": "CR",
    "RSSTRESC": "CR",
    "RSEVAL": "INVESTIGATOR",
    "VISITNUM": 3,
    "VISIT": "WEEK 27",
    "RSDTC": "2021-06-10",
    "RSDY": 189
  },
  {
    "STUDYID": "KN868",
    "DOMAIN": "RS",
    "USUBJID": "KN868-0002-0021",
    "RSSEQ": 4,
    "RSTESTCD": "OVRLRESP",
    "RSTEST": "Overall Response",
    "RSCAT": "RECIST 1.1",
    "RSORRES": "PR",
    "RSSTRESC": "PR",
    "RSEVAL": "INVESTIGATOR",
    "VISITNUM": 4,
    "VISIT": "WEEK 36",
    "RSDTC": "2021-08-13",
    "RSDY": 252
  },
  {
    "STUDYID": "KN868",
    "DOMAIN": "RS",
    "USUBJID": "KN868-0002-0021",
    "RSSEQ": 5,
    "RSTESTCD": "OVRLRESP",
    "RSTEST": "Overall Response",
    "RSCAT": "RECIST 1.1",
    "RSORRES": "PR",
    "RSSTRESC": "PR",
    "RSEVAL": "INVESTIGATOR",
    "VISITNUM": 5,
    "VISIT": "WEEK 45",
    "RSDTC": "2021-10-14",
    "RSDY": 315
  },
  {
    "STUDYID": "KN868",
    "DOMAIN": "RS",
    "USUBJID": "KN868-0002-0021",
    "RSSEQ": 6,
    "RSTESTCD": "OVRLRESP",
    "RSTEST": "Overall Response",
    "RSCAT": "RECIST 1.1",
    "RSORRES": "PR",
    "RSSTRESC": "PR",
    "RSEVAL": "INVESTIGATOR",
    "VISITNUM": 6,
    "VISIT": "WEEK 54",
    "RSDTC": "2021-12-17",
    "RSDY": 378
  },
  {
    "STUDYID": "KN868",
    "DOMAIN": "RS",
    "USUBJID": "KN868-0002-0021",
    "RSSEQ": 7,
    "RSTESTCD": "OVRLRESP",
    "RSTEST": "Overall Response",
    "RSCAT": "RECIST 1.1",
    "RSORRES": "PR",
    "RSSTRESC": "PR",
    "RSEVAL": "INVESTIGATOR",
    "VISITNUM": 7,
    "VISIT": "WEEK 63",
    "RSDTC": "2022-02-14",
    "RSDY": 441
  },
  {
    "STUDYID": "KN868",
    "DOMAIN": "RS",
    "USUBJID": "KN868-0002-0021",
    "RSSEQ": 8,
    "RSTESTCD": "OVRLRESP",
    "RSTEST": "Overall Response",
    "RSCAT": "RECIST 1.1",
    "RSORRES": "PR",
    "RSSTRESC": "PR",
    "RSEVAL": "INVESTIGATOR",
    "VISITNUM": 8,
    "VISIT": "WEEK 72",
    "RSDTC": "2022-04-20",
    "RSDY": 504
  },
  {
    "STUDYID": "KN868",
    "DOMAIN": "RS",
    "USUBJID": "KN868-0002-0021",
    "RSSEQ": 9,
    "RSTESTCD": "BESTRESP",
    "RSTEST": "Best Overall Response",
    "RSCAT": "RECIST 1.1",
    "RSORRES": "PR",
    "RSSTRESC": "PR",
    "RSEVAL": "INVESTIGATOR",
    "VISITNUM": 999,
    "VISIT": "BEST RESPONSE",
    "RSDTC": "2023-09-30"
  },
  {
    "STUDYID": "KN868",
    "DOMAIN": "RS",
    "USUBJID": "KN868-0002-0022",
    "RSSEQ": 1,
    "RSTESTCD": "OVRLRESP",
    "RSTEST": "Overall Response",
    "RSCAT": "RECIST 1.1",
    "RSORRES": "SD",
    "RSSTRESC": "SD",
    "RSEVAL": "INVESTIGATOR",
    "VISITNUM": 1,
    "VISIT": "WEEK 9",
    "RSDTC": "2020-07-30",
    "RSDY": 63
  },
  {
    "STUDYID": "KN868",
    "DOMAIN": "RS",
    "USUBJID": "KN868-0002-0022",
    "RSSEQ": 2,
    "RSTESTCD": "OVRLRESP",
    "RSTEST": "Overall Response",
    "RSCAT": "RECIST 1.1",
    "RSORRES": "PR",
    "RSSTRESC": "PR",
    "RSEVAL": "INVESTIGATOR",
    "VISITNUM": 2,
    "VISIT": "WEEK 18",
    "RSDTC": "2020-09-28",
    "RSDY": 126
  },
  {
    "STUDYID": "KN868",
    "DOMAIN": "RS",
    "USUBJID": "KN868-0002-0022",
    "RSSEQ": 3,
    "RSTESTCD": "OVRLRESP",
    "RSTEST": "Overall Response",
    "RSCAT": "RECIST 1.1",
    "RSORRES": "PR",
    "RSSTRESC": "PR",
    "RSEVAL": "INVESTIGATOR",
    "VISITNUM": 3,
    "VISIT": "WEEK 27",
    "RSDTC": "2020-11-29",
    "RSDY": 189
  },
  {
    "STUDYID": "KN868",
    "DOMAIN": "RS",
    "USUBJID": "KN868-0002-0022",
    "RSSEQ": 4,
    "RSTESTCD": "OVRLRESP",
    "RSTEST": "Overall Response",
    "RSCAT": "RECIST 1.1",
    "RSORRES": "CR",
    "RSSTRESC": "CR",
    "RSEVAL": "INVESTIGATOR",
    "VISITNUM": 4,
    "VISIT": "WEEK 36",
    "RSDTC": "2021-02-04",
    "RSDY": 252
  },
  {
    "STUDYID": "KN868",
    "DOMAIN": "RS",
    "USUBJID": "KN868-0002-0022",
    "RSSEQ": 5,
    "RSTESTCD": "OVRLRESP",
    "RSTEST": "Overall Response",
    "RSCAT": "RECIST 1.1",
    "RSORRES": "PR",
    "RSSTRESC": "PR",
    "RSEVAL": "INVESTIGATOR",
    "VISITNUM": 5,
    "VISIT": "WEEK 45",
    "RSDTC": "2021-04-08",
    "RSDY": 315
  },
  {
    "STUDYID": "KN868",
    "DOMAIN": "RS",
    "USUBJID": "KN868-0002-0022",
    "RSSEQ": 6,
    "RSTESTCD": "OVRLRESP",
    "RSTEST": "Overall Response",
    "RSCAT": "RECIST 1.1",
    "RSORRES": "CR",
    "RSSTRESC": "CR",
    "RSEVAL": "INVESTIGATOR",
    "VISITNUM": 6,
    "VISIT": "WEEK 54",
    "RSDTC": "2021-06-08",
    "RSDY": 378
  },
  {
    "STUDYID": "KN868",
    "DOMAIN": "RS",
    "USUBJID": "KN868-0002-0022",
    "RSSEQ": 7,
    "RSTESTCD": "OVRLRESP",
    "RSTEST": "Overall Response",
    "RSCAT": "RECIST 1.1",
    "RSORRES": "PR",
    "RSSTRESC": "PR",
    "RSEVAL": "INVESTIGATOR",
    "VISITNUM": 7,
    "VISIT": "WEEK 63",
    "RSDTC": "2021-08-11",
    "RSDY": 441
  },
  {
    "STUDYID": "KN868",
    "DOMAIN": "RS",
    "USUBJID": "KN868-0002-0022",
    "RSSEQ": 8,
    "RSTESTCD": "OVRLRESP",
    "RSTEST": "Overall Response",
    "RSCAT": "RECIST 1.1",
    "RSORRES": "PR",
    "RSSTRESC": "PR",
    "RSEVAL": "INVESTIGATOR",
    "VISITNUM": 8,
    "VISIT": "WEEK 72",
    "RSDTC": "2021-10-12",
    "RSDY": 504
  },
  {
    "STUDYID": "KN868",
    "DOMAIN": "RS",
    "USUBJID": "KN868-0002-0022",
    "RSSEQ": 9,
    "RSTESTCD": "BESTRESP",
    "RSTEST": "Best Overall Response",
    "RSCAT": "RECIST 1.1",
    "RSORRES": "PR",
    "RSSTRESC": "PR",
    "RSEVAL": "INVESTIGATOR",
    "VISITNUM": 999,
    "VISIT": "BEST RESPONSE",
    "RSDTC": "2023-09-30"
  },
  {
    "STUDYID": "KN868",
    "DOMAIN": "RS",
    "USUBJID": "KN868-0002-0023",
    "RSSEQ": 1,
    "RSTESTCD": "OVRLRESP",
    "RSTEST": "Overall Response",
    "RSCAT": "RECIST 1.1",
    "RSORRES": "SD",
    "RSSTRESC": "SD",
    "RSEVAL": "INVESTIGATOR",
    "VISITNUM": 1,
    "VISIT": "WEEK 9",
    "RSDTC": "2020-12-16",
    "RSDY": 63
  },
  {
    "STUDYID": "KN868",
    "DOMAIN": "RS",
    "USUBJID": "KN868-0002-0023",
    "RSSEQ": 2,
    "RSTESTCD": "OVRLRESP",
    "RSTEST": "Overall Response",
    "RSCAT": "RECIST 1.1",
    "RSORRES": "SD",
    "RSSTRESC": "SD",
    "RSEVAL": "INVESTIGATOR",
    "VISITNUM": 2,
    "VISIT": "WEEK 18",
    "RSDTC": "2021-02-14",
    "RSDY": 126
  },
  {
    "STUDYID": "KN868",
    "DOMAIN": "RS",
    "USUBJID": "KN868-0002-0023",
    "RSSEQ": 3,
    "RSTESTCD": "OVRLRESP",
    "RSTEST": "Overall Response",
    "RSCAT": "RECIST 1.1",
    "RSORRES": "SD",
    "RSSTRESC": "SD",
    "RSEVAL": "INVESTIGATOR",
    "VISITNUM": 3,
    "VISIT": "WEEK 27",
    "RSDTC": "2021-04-19",
    "RSDY": 189
  },
  {
    "STUDYID": "KN868",
    "DOMAIN": "RS",
    "USUBJID": "KN868-0002-0023",
    "RSSEQ": 4,
    "RSTESTCD": "OVRLRESP",
    "RSTEST": "Overall Response",
    "RSCAT": "RECIST 1.1",
    "RSORRES": "SD",
    "RSSTRESC": "SD",
    "RSEVAL": "INVESTIGATOR",
    "VISITNUM": 4,
    "VISIT": "WEEK 36",
    "RSDTC": "2021-06-20",
    "RSDY": 252
  },
  {
    "STUDYID": "KN868",
    "DOMAIN": "RS",
    "USUBJID": "KN868-0002-0023",
    "RSSEQ": 5,
    "RSTESTCD": "OVRLRESP",
    "RSTEST": "Overall Response",
    "RSCAT": "RECIST 1.1",
    "RSORRES": "SD",
    "RSSTRESC": "SD",
    "RSEVAL": "INVESTIGATOR",
    "VISITNUM": 5,
    "VISIT": "WEEK 45",
    "RSDTC": "2021-08-24",
    "RSDY": 315
  },
  {
    "STUDYID": "KN868",
    "DOMAIN": "RS",
    "USUBJID": "KN868-0002-0023",
    "RSSEQ": 6,
    "RSTESTCD": "OVRLRESP",
    "RSTEST": "Overall Response",
    "RSCAT": "RECIST 1.1",
    "RSORRES": "SD",
    "RSSTRESC": "SD",
    "RSEVAL": "INVESTIGATOR",
    "VISITNUM": 6,
    "VISIT": "WEEK 54",
    "RSDTC": "2021-10-22",
    "RSDY": 378
  },
  {
    "STUDYID": "KN868",
    "DOMAIN": "RS",
    "USUBJID": "KN868-0002-0023",
    "RSSEQ": 7,
    "RSTESTCD": "OVRLRESP",
    "RSTEST": "Overall Response",
    "RSCAT": "RECIST 1.1",
    "RSORRES": "SD",
    "RSSTRESC": "SD",
    "RSEVAL": "INVESTIGATOR",
    "VISITNUM": 7,
    "VISIT": "WEEK 63",
    "RSDTC": "2021-12-30",
    "RSDY": 441
  },
  {
    "STUDYID": "KN868",
    "DOMAIN": "RS",
    "USUBJID": "KN868-0002-0023",
    "RSSEQ": 8,
    "RSTESTCD": "OVRLRESP",
    "RSTEST": "Overall Response",
    "RSCAT": "RECIST 1.1",
    "RSORRES": "SD",
    "RSSTRESC": "SD",
    "RSEVAL": "INVESTIGATOR",
    "VISITNUM": 8,
    "VISIT": "WEEK 72",
    "RSDTC": "2022-03-02",
    "RSDY": 504
  },
  {
    "STUDYID": "KN868",
    "DOMAIN": "RS",
    "USUBJID": "KN868-0002-0023",
    "RSSEQ": 9,
    "RSTESTCD": "BESTRESP",
    "RSTEST": "Best Overall Response",
    "RSCAT": "RECIST 1.1",
    "RSORRES": "SD",
    "RSSTRESC": "SD",
    "RSEVAL": "INVESTIGATOR",
    "VISITNUM": 999,
    "VISIT": "BEST RESPONSE",
    "RSDTC": "2023-09-30"
  },
  {
    "STUDYID": "KN868",
    "DOMAIN": "RS",
    "USUBJID": "KN868-0002-0024",
    "RSSEQ": 1,
    "RSTESTCD": "OVRLRESP",
    "RSTEST": "Overall Response",
    "RSCAT": "RECIST 1.1",
    "RSORRES": "PR",
    "RSSTRESC": "PR",
    "RSEVAL": "INVESTIGATOR",
    "VISITNUM": 1,
    "VISIT": "WEEK 9",
    "RSDTC": "2021-01-19",
    "RSDY": 63
  },
  {
    "STUDYID": "KN868",
    "DOMAIN": "RS",
    "USUBJID": "KN868-0002-0024",
    "RSSEQ": 2,
    "RSTESTCD": "OVRLRESP",
    "RSTEST": "Overall Response",
    "RSCAT": "RECIST 1.1",
    "RSORRES": "PR",
    "RSSTRESC": "PR",
    "RSEVAL": "INVESTIGATOR",
    "VISITNUM": 2,
    "VISIT": "WEEK 18",
    "RSDTC": "2021-03-17",
    "RSDY": 126
  },
  {
    "STUDYID": "KN868",
    "DOMAIN": "RS",
    "USUBJID": "KN868-0002-0024",
    "RSSEQ": 3,
    "RSTESTCD": "OVRLRESP",
    "RSTEST": "Overall Response",
    "RSCAT": "RECIST 1.1",
    "RSORRES": "PR",
    "RSSTRESC": "PR",
    "RSEVAL": "INVESTIGATOR",
    "VISITNUM": 3,
    "VISIT": "WEEK 27",
    "RSDTC": "2021-05-22",
    "RSDY": 189
  },
  {
    "STUDYID": "KN868",
    "DOMAIN": "RS",
    "USUBJID": "KN868-0002-0024",
    "RSSEQ": 4,
    "RSTESTCD": "OVRLRESP",
    "RSTEST": "Overall Response",
    "RSCAT": "RECIST 1.1",
    "RSORRES": "PR",
    "RSSTRESC": "PR",
    "RSEVAL": "INVESTIGATOR",
    "VISITNUM": 4,
    "VISIT": "WEEK 36",
    "RSDTC": "2021-07-23",
    "RSDY": 252
  },
  {
    "STUDYID": "KN868",
    "DOMAIN": "RS",
    "USUBJID": "KN868-0002-0024",
    "RSSEQ": 5,
    "RSTESTCD": "OVRLRESP",
    "RSTEST": "Overall Response",
    "RSCAT": "RECIST 1.1",
    "RSORRES": "PR",
    "RSSTRESC": "PR",
    "RSEVAL": "INVESTIGATOR",
    "VISITNUM": 5,
    "VISIT": "WEEK 45",
    "RSDTC": "2021-09-24",
    "RSDY": 315
  },
  {
    "STUDYID": "KN868",
    "DOMAIN": "RS",
    "USUBJID": "KN868-0002-0024",
    "RSSEQ": 6,
    "RSTESTCD": "OVRLRESP",
    "RSTEST": "Overall Response",
    "RSCAT": "RECIST 1.1",
    "RSORRES": "PR",
    "RSSTRESC": "PR",
    "RSEVAL": "INVESTIGATOR",
    "VISITNUM": 6,
    "VISIT": "WEEK 54",
    "RSDTC": "2021-11-24",
    "RSDY": 378
  },
  {
    "STUDYID": "KN868",
    "DOMAIN": "RS",
    "USUBJID": "KN868-0002-0024",
    "RSSEQ": 7,
    "RSTESTCD": "OVRLRESP",
    "RSTEST": "Overall Response",
    "RSCAT": "RECIST 1.1",
    "RSORRES": "PR",
    "RSSTRESC": "PR",
    "RSEVAL": "INVESTIGATOR",
    "VISITNUM": 7,
    "VISIT": "WEEK 63",
    "RSDTC": "2022-01-26",
    "RSDY": 441
  },
  {
    "STUDYID": "KN868",
    "DOMAIN": "RS",
    "USUBJID": "KN868-0002-0024",
    "RSSEQ": 8,
    "RSTESTCD": "OVRLRESP",
    "RSTEST": "Overall Response",
    "RSCAT": "RECIST 1.1",
    "RSORRES": "CR",
    "RSSTRESC": "CR",
    "RSEVAL": "INVESTIGATOR",
    "VISITNUM": 8,
    "VISIT": "WEEK 72",
    "RSDTC": "2022-04-04",
    "RSDY": 504
  },
  {
    "STUDYID": "KN868",
    "DOMAIN": "RS",
    "USUBJID": "KN868-0002-0024",
    "RSSEQ": 9,
    "RSTESTCD": "BESTRESP",
    "RSTEST": "Best Overall Response",
    "RSCAT": "RECIST 1.1",
    "RSORRES": "PR",
    "RSSTRESC": "PR",
    "RSEVAL": "INVESTIGATOR",
    "VISITNUM": 999,
    "VISIT": "BEST RESPONSE",
    "RSDTC": "2023-09-30"
  },
  {
    "STUDYID": "KN868",
    "DOMAIN": "RS",
    "USUBJID": "KN868-0002-0025",
    "RSSEQ": 1,
    "RSTESTCD": "OVRLRESP",
    "RSTEST": "Overall Response",
    "RSCAT": "RECIST 1.1",
    "RSORRES": "SD",
    "RSSTRESC": "SD",
    "RSEVAL": "INVESTIGATOR",
    "VISITNUM": 1,
    "VISIT": "WEEK 9",
    "RSDTC": "2020-06-30",
    "RSDY": 63
  },
  {
    "STUDYID": "KN868",
    "DOMAIN": "RS",
    "USUBJID": "KN868-0002-0025",
    "RSSEQ": 2,
    "RSTESTCD": "OVRLRESP",
    "RSTEST": "Overall Response",
    "RSCAT": "RECIST 1.1",
    "RSORRES": "PD",
    "RSSTRESC": "PD",
    "RSEVAL": "INVESTIGATOR",
    "VISITNUM": 2,
    "VISIT": "WEEK 18",
    "RSDTC": "2020-09-01",
    "RSDY": 126
  },
  {
    "STUDYID": "KN868",
    "DOMAIN": "RS",
    "USUBJID": "KN868-0002-0025",
    "RSSEQ": 3,
    "RSTESTCD": "OVRLRESP",
    "RSTEST": "Overall Response",
    "RSCAT": "RECIST 1.1",
    "RSORRES": "PD",
    "RSSTRESC": "PD",
    "RSEVAL": "INVESTIGATOR",
    "VISITNUM": 3,
    "VISIT": "WEEK 27",
    "RSDTC": "2020-11-04",
    "RSDY": 189
  },
  {
    "STUDYID": "KN868",
    "DOMAIN": "RS",
    "USUBJID": "KN868-0002-0025",
    "RSSEQ": 4,
    "RSTESTCD": "OVRLRESP",
    "RSTEST": "Overall Response",
    "RSCAT": "RECIST 1.1",
    "RSORRES": "PD",
    "RSSTRESC": "PD",
    "RSEVAL": "INVESTIGATOR",
    "VISITNUM": 4,
    "VISIT": "WEEK 36",
    "RSDTC": "2021-01-05",
    "RSDY": 252
  },
  {
    "STUDYID": "KN868",
    "DOMAIN": "RS",
    "USUBJID": "KN868-0002-0025",
    "RSSEQ": 5,
    "RSTESTCD": "OVRLRESP",
    "RSTEST": "Overall Response",
    "RSCAT": "RECIST 1.1",
    "RSORRES": "PD",
    "RSSTRESC": "PD",
    "RSEVAL": "INVESTIGATOR",
    "VISITNUM": 5,
    "VISIT": "WEEK 45",
    "RSDTC": "2021-03-08",
    "RSDY": 315
  },
  {
    "STUDYID": "KN868",
    "DOMAIN": "RS",
    "USUBJID": "KN868-0002-0025",
    "RSSEQ": 6,
    "RSTESTCD": "OVRLRESP",
    "RSTEST": "Overall Response",
    "RSCAT": "RECIST 1.1",
    "RSORRES": "PD",
    "RSSTRESC": "PD",
    "RSEVAL": "INVESTIGATOR",
    "VISITNUM": 6,
    "VISIT": "WEEK 54",
    "RSDTC": "2021-05-13",
    "RSDY": 378
  },
  {
    "STUDYID": "KN868",
    "DOMAIN": "RS",
    "USUBJID": "KN868-0002-0025",
    "RSSEQ": 7,
    "RSTESTCD": "OVRLRESP",
    "RSTEST": "Overall Response",
    "RSCAT": "RECIST 1.1",
    "RSORRES": "PD",
    "RSSTRESC": "PD",
    "RSEVAL": "INVESTIGATOR",
    "VISITNUM": 7,
    "VISIT": "WEEK 63",
    "RSDTC": "2021-07-17",
    "RSDY": 441
  },
  {
    "STUDYID": "KN868",
    "DOMAIN": "RS",
    "USUBJID": "KN868-0002-0025",
    "RSSEQ": 8,
    "RSTESTCD": "OVRLRESP",
    "RSTEST": "Overall Response",
    "RSCAT": "RECIST 1.1",
    "RSORRES": "PD",
    "RSSTRESC": "PD",
    "RSEVAL": "INVESTIGATOR",
    "VISITNUM": 8,
    "VISIT": "WEEK 72",
    "RSDTC": "2021-09-15",
    "RSDY": 504
  },
  {
    "STUDYID": "KN868",
    "DOMAIN": "RS",
    "USUBJID": "KN868-0002-0025",
    "RSSEQ": 9,
    "RSTESTCD": "BESTRESP",
    "RSTEST": "Best Overall Response",
    "RSCAT": "RECIST 1.1",
    "RSORRES": "PD",
    "RSSTRESC": "PD",
    "RSEVAL": "INVESTIGATOR",
    "VISITNUM": 999,
    "VISIT": "BEST RESPONSE",
    "RSDTC": "2023-09-30"
  },
  {
    "STUDYID": "KN868",
    "DOMAIN": "RS",
    "USUBJID": "KN868-0003-0001",
    "RSSEQ": 1,
    "RSTESTCD": "OVRLRESP",
    "RSTEST": "Overall Response",
    "RSCAT": "RECIST 1.1",
    "RSORRES": "PR",
    "RSSTRESC": "PR",
    "RSEVAL": "INVESTIGATOR",
    "VISITNUM": 1,
    "VISIT": "WEEK 9",
    "RSDTC": "2021-10-12",
    "RSDY": 63
  },
  {
    "STUDYID": "KN868",
    "DOMAIN": "RS",
    "USUBJID": "KN868-0003-0001",
    "RSSEQ": 2,
    "RSTESTCD": "OVRLRESP",
    "RSTEST": "Overall Response",
    "RSCAT": "RECIST 1.1",
    "RSORRES": "CR",
    "RSSTRESC": "CR",
    "RSEVAL": "INVESTIGATOR",
    "VISITNUM": 2,
    "VISIT": "WEEK 18",
    "RSDTC": "2021-12-12",
    "RSDY": 126
  },
  {
    "STUDYID": "KN868",
    "DOMAIN": "RS",
    "USUBJID": "KN868-0003-0001",
    "RSSEQ": 3,
    "RSTESTCD": "OVRLRESP",
    "RSTEST": "Overall Response",
    "RSCAT": "RECIST 1.1",
    "RSORRES": "CR",
    "RSSTRESC": "CR",
    "RSEVAL": "INVESTIGATOR",
    "VISITNUM": 3,
    "VISIT": "WEEK 27",
    "RSDTC": "2022-02-10",
    "RSDY": 189
  },
  {
    "STUDYID": "KN868",
    "DOMAIN": "RS",
    "USUBJID": "KN868-0003-0001",
    "RSSEQ": 4,
    "RSTESTCD": "OVRLRESP",
    "RSTEST": "Overall Response",
    "RSCAT": "RECIST 1.1",
    "RSORRES": "CR",
    "RSSTRESC": "CR",
    "RSEVAL": "INVESTIGATOR",
    "VISITNUM": 4,
    "VISIT": "WEEK 36",
    "RSDTC": "2022-04-16",
    "RSDY": 252
  },
  {
    "STUDYID": "KN868",
    "DOMAIN": "RS",
    "USUBJID": "KN868-0003-0001",
    "RSSEQ": 5,
    "RSTESTCD": "OVRLRESP",
    "RSTEST": "Overall Response",
    "RSCAT": "RECIST 1.1",
    "RSORRES": "CR",
    "RSSTRESC": "CR",
    "RSEVAL": "INVESTIGATOR",
    "VISITNUM": 5,
    "VISIT": "WEEK 45",
    "RSDTC": "2022-06-21",
    "RSDY": 315
  },
  {
    "STUDYID": "KN868",
    "DOMAIN": "RS",
    "USUBJID": "KN868-0003-0001",
    "RSSEQ": 6,
    "RSTESTCD": "OVRLRESP",
    "RSTEST": "Overall Response",
    "RSCAT": "RECIST 1.1",
    "RSORRES": "CR",
    "RSSTRESC": "CR",
    "RSEVAL": "INVESTIGATOR",
    "VISITNUM": 6,
    "VISIT": "WEEK 54",
    "RSDTC": "2022-08-18",
    "RSDY": 378
  },
  {
    "STUDYID": "KN868",
    "DOMAIN": "RS",
    "USUBJID": "KN868-0003-0001",
    "RSSEQ": 7,
    "RSTESTCD": "OVRLRESP",
    "RSTEST": "Overall Response",
    "RSCAT": "RECIST 1.1",
    "RSORRES": "CR",
    "RSSTRESC": "CR",
    "RSEVAL": "INVESTIGATOR",
    "VISITNUM": 7,
    "VISIT": "WEEK 63",
    "RSDTC": "2022-10-20",
    "RSDY": 441
  },
  {
    "STUDYID": "KN868",
    "DOMAIN": "RS",
    "USUBJID": "KN868-0003-0001",
    "RSSEQ": 8,
    "RSTESTCD": "OVRLRESP",
    "RSTEST": "Overall Response",
    "RSCAT": "RECIST 1.1",
    "RSORRES": "CR",
    "RSSTRESC": "CR",
    "RSEVAL": "INVESTIGATOR",
    "VISITNUM": 8,
    "VISIT": "WEEK 72",
    "RSDTC": "2022-12-21",
    "RSDY": 504
  },
  {
    "STUDYID": "KN868",
    "DOMAIN": "RS",
    "USUBJID": "KN868-0003-0001",
    "RSSEQ": 9,
    "RSTESTCD": "BESTRESP",
    "RSTEST": "Best Overall Response",
    "RSCAT": "RECIST 1.1",
    "RSORRES": "CR",
    "RSSTRESC": "CR",
    "RSEVAL": "INVESTIGATOR",
    "VISITNUM": 999,
    "VISIT": "BEST RESPONSE",
    "RSDTC": "2023-09-30"
  },
  {
    "STUDYID": "KN868",
    "DOMAIN": "RS",
    "USUBJID": "KN868-0003-0002",
    "RSSEQ": 1,
    "RSTESTCD": "OVRLRESP",
    "RSTEST": "Overall Response",
    "RSCAT": "RECIST 1.1",
    "RSORRES": "PR",
    "RSSTRESC": "PR",
    "RSEVAL": "INVESTIGATOR",
    "VISITNUM": 1,
    "VISIT": "WEEK 9",
    "RSDTC": "2021-02-18",
    "RSDY": 63
  },
  {
    "STUDYID": "KN868",
    "DOMAIN": "RS",
    "USUBJID": "KN868-0003-0002",
    "RSSEQ": 2,
    "RSTESTCD": "OVRLRESP",
    "RSTEST": "Overall Response",
    "RSCAT": "RECIST 1.1",
    "RSORRES": "PR",
    "RSSTRESC": "PR",
    "RSEVAL": "INVESTIGATOR",
    "VISITNUM": 2,
    "VISIT": "WEEK 18",
    "RSDTC": "2021-04-23",
    "RSDY": 126
  },
  {
    "STUDYID": "KN868",
    "DOMAIN": "RS",
    "USUBJID": "KN868-0003-0002",
    "RSSEQ": 3,
    "RSTESTCD": "OVRLRESP",
    "RSTEST": "Overall Response",
    "RSCAT": "RECIST 1.1",
    "RSORRES": "PR",
    "RSSTRESC": "PR",
    "RSEVAL": "INVESTIGATOR",
    "VISITNUM": 3,
    "VISIT": "WEEK 27",
    "RSDTC": "2021-06-22",
    "RSDY": 189
  },
  {
    "STUDYID": "KN868",
    "DOMAIN": "RS",
    "USUBJID": "KN868-0003-0002",
    "RSSEQ": 4,
    "RSTESTCD": "OVRLRESP",
    "RSTEST": "Overall Response",
    "RSCAT": "RECIST 1.1",
    "RSORRES": "PR",
    "RSSTRESC": "PR",
    "RSEVAL": "INVESTIGATOR",
    "VISITNUM": 4,
    "VISIT": "WEEK 36",
    "RSDTC": "2021-08-26",
    "RSDY": 252
  },
  {
    "STUDYID": "KN868",
    "DOMAIN": "RS",
    "USUBJID": "KN868-0003-0002",
    "RSSEQ": 5,
    "RSTESTCD": "OVRLRESP",
    "RSTEST": "Overall Response",
    "RSCAT": "RECIST 1.1",
    "RSORRES": "PR",
    "RSSTRESC": "PR",
    "RSEVAL": "INVESTIGATOR",
    "VISITNUM": 5,
    "VISIT": "WEEK 45",
    "RSDTC": "2021-10-25",
    "RSDY": 315
  },
  {
    "STUDYID": "KN868",
    "DOMAIN": "RS",
    "USUBJID": "KN868-0003-0002",
    "RSSEQ": 6,
    "RSTESTCD": "OVRLRESP",
    "RSTEST": "Overall Response",
    "RSCAT": "RECIST 1.1",
    "RSORRES": "CR",
    "RSSTRESC": "CR",
    "RSEVAL": "INVESTIGATOR",
    "VISITNUM": 6,
    "VISIT": "WEEK 54",
    "RSDTC": "2022-01-02",
    "RSDY": 378
  },
  {
    "STUDYID": "KN868",
    "DOMAIN": "RS",
    "USUBJID": "KN868-0003-0002",
    "RSSEQ": 7,
    "RSTESTCD": "OVRLRESP",
    "RSTEST": "Overall Response",
    "RSCAT": "RECIST 1.1",
    "RSORRES": "PR",
    "RSSTRESC": "PR",
    "RSEVAL": "INVESTIGATOR",
    "VISITNUM": 7,
    "VISIT": "WEEK 63",
    "RSDTC": "2022-03-04",
    "RSDY": 441
  },
  {
    "STUDYID": "KN868",
    "DOMAIN": "RS",
    "USUBJID": "KN868-0003-0002",
    "RSSEQ": 8,
    "RSTESTCD": "OVRLRESP",
    "RSTEST": "Overall Response",
    "RSCAT": "RECIST 1.1",
    "RSORRES": "PR",
    "RSSTRESC": "PR",
    "RSEVAL": "INVESTIGATOR",
    "VISITNUM": 8,
    "VISIT": "WEEK 72",
    "RSDTC": "2022-05-03",
    "RSDY": 504
  },
  {
    "STUDYID": "KN868",
    "DOMAIN": "RS",
    "USUBJID": "KN868-0003-0002",
    "RSSEQ": 9,
    "RSTESTCD": "BESTRESP",
    "RSTEST": "Best Overall Response",
    "RSCAT": "RECIST 1.1",
    "RSORRES": "PR",
    "RSSTRESC": "PR",
    "RSEVAL": "INVESTIGATOR",
    "VISITNUM": 999,
    "VISIT": "BEST RESPONSE",
    "RSDTC": "2023-09-30"
  },
  {
    "STUDYID": "KN868",
    "DOMAIN": "RS",
    "USUBJID": "KN868-0003-0003",
    "RSSEQ": 1,
    "RSTESTCD": "OVRLRESP",
    "RSTEST": "Overall Response",
    "RSCAT": "RECIST 1.1",
    "RSORRES": "SD",
    "RSSTRESC": "SD",
    "RSEVAL": "INVESTIGATOR",
    "VISITNUM": 1,
    "VISIT": "WEEK 9",
    "RSDTC": "2022-04-06",
    "RSDY": 63
  },
  {
    "STUDYID": "KN868",
    "DOMAIN": "RS",
    "USUBJID": "KN868-0003-0003",
    "RSSEQ": 2,
    "RSTESTCD": "OVRLRESP",
    "RSTEST": "Overall Response",
    "RSCAT": "RECIST 1.1",
    "RSORRES": "SD",
    "RSSTRESC": "SD",
    "RSEVAL": "INVESTIGATOR",
    "VISITNUM": 2,
    "VISIT": "WEEK 18",
    "RSDTC": "2022-06-08",
    "RSDY": 126
  },
  {
    "STUDYID": "KN868",
    "DOMAIN": "RS",
    "USUBJID": "KN868-0003-0003",
    "RSSEQ": 3,
    "RSTESTCD": "OVRLRESP",
    "RSTEST": "Overall Response",
    "RSCAT": "RECIST 1.1",
    "RSORRES": "SD",
    "RSSTRESC": "SD",
    "RSEVAL": "INVESTIGATOR",
    "VISITNUM": 3,
    "VISIT": "WEEK 27",
    "RSDTC": "2022-08-09",
    "RSDY": 189
  },
  {
    "STUDYID": "KN868",
    "DOMAIN": "RS",
    "USUBJID": "KN868-0003-0003",
    "RSSEQ": 4,
    "RSTESTCD": "OVRLRESP",
    "RSTEST": "Overall Response",
    "RSCAT": "RECIST 1.1",
    "RSORRES": "SD",
    "RSSTRESC": "SD",
    "RSEVAL": "INVESTIGATOR",
    "VISITNUM": 4,
    "VISIT": "WEEK 36",
    "RSDTC": "2022-10-13",
    "RSDY": 252
  },
  {
    "STUDYID": "KN868",
    "DOMAIN": "RS",
    "USUBJID": "KN868-0003-0003",
    "RSSEQ": 5,
    "RSTESTCD": "OVRLRESP",
    "RSTEST": "Overall Response",
    "RSCAT": "RECIST 1.1",
    "RSORRES": "SD",
    "RSSTRESC": "SD",
    "RSEVAL": "INVESTIGATOR",
    "VISITNUM": 5,
    "VISIT": "WEEK 45",
    "RSDTC": "2022-12-13",
    "RSDY": 315
  },
  {
    "STUDYID": "KN868",
    "DOMAIN": "RS",
    "USUBJID": "KN868-0003-0003",
    "RSSEQ": 6,
    "RSTESTCD": "OVRLRESP",
    "RSTEST": "Overall Response",
    "RSCAT": "RECIST 1.1",
    "RSORRES": "SD",
    "RSSTRESC": "SD",
    "RSEVAL": "INVESTIGATOR",
    "VISITNUM": 6,
    "VISIT": "WEEK 54",
    "RSDTC": "2023-02-18",
    "RSDY": 378
  },
  {
    "STUDYID": "KN868",
    "DOMAIN": "RS",
    "USUBJID": "KN868-0003-0003",
    "RSSEQ": 7,
    "RSTESTCD": "OVRLRESP",
    "RSTEST": "Overall Response",
    "RSCAT": "RECIST 1.1",
    "RSORRES": "SD",
    "RSSTRESC": "SD",
    "RSEVAL": "INVESTIGATOR",
    "VISITNUM": 7,
    "VISIT": "WEEK 63",
    "RSDTC": "2023-04-21",
    "RSDY": 441
  },
  {
    "STUDYID": "KN868",
    "DOMAIN": "RS",
    "USUBJID": "KN868-0003-0003",
    "RSSEQ": 8,
    "RSTESTCD": "OVRLRESP",
    "RSTEST": "Overall Response",
    "RSCAT": "RECIST 1.1",
    "RSORRES": "SD",
    "RSSTRESC": "SD",
    "RSEVAL": "INVESTIGATOR",
    "VISITNUM": 8,
    "VISIT": "WEEK 72",
    "RSDTC": "2023-06-22",
    "RSDY": 504
  },
  {
    "STUDYID": "KN868",
    "DOMAIN": "RS",
    "USUBJID": "KN868-0003-0003",
    "RSSEQ": 9,
    "RSTESTCD": "BESTRESP",
    "RSTEST": "Best Overall Response",
    "RSCAT": "RECIST 1.1",
    "RSORRES": "SD",
    "RSSTRESC": "SD",
    "RSEVAL": "INVESTIGATOR",
    "VISITNUM": 999,
    "VISIT": "BEST RESPONSE",
    "RSDTC": "2023-09-30"
  },
  {
    "STUDYID": "KN868",
    "DOMAIN": "RS",
    "USUBJID": "KN868-0003-0004",
    "RSSEQ": 1,
    "RSTESTCD": "OVRLRESP",
    "RSTEST": "Overall Response",
    "RSCAT": "RECIST 1.1",
    "RSORRES": "SD",
    "RSSTRESC": "SD",
    "RSEVAL": "INVESTIGATOR",
    "VISITNUM": 1,
    "VISIT": "WEEK 9",
    "RSDTC": "2021-10-13",
    "RSDY": 63
  },
  {
    "STUDYID": "KN868",
    "DOMAIN": "RS",
    "USUBJID": "KN868-0003-0004",
    "RSSEQ": 2,
    "RSTESTCD": "OVRLRESP",
    "RSTEST": "Overall Response",
    "RSCAT": "RECIST 1.1",
    "RSORRES": "PR",
    "RSSTRESC": "PR",
    "RSEVAL": "INVESTIGATOR",
    "VISITNUM": 2,
    "VISIT": "WEEK 18",
    "RSDTC": "2021-12-13",
    "RSDY": 126
  },
  {
    "STUDYID": "KN868",
    "DOMAIN": "RS",
    "USUBJID": "KN868-0003-0004",
    "RSSEQ": 3,
    "RSTESTCD": "OVRLRESP",
    "RSTEST": "Overall Response",
    "RSCAT": "RECIST 1.1",
    "RSORRES": "PR",
    "RSSTRESC": "PR",
    "RSEVAL": "INVESTIGATOR",
    "VISITNUM": 3,
    "VISIT": "WEEK 27",
    "RSDTC": "2022-02-12",
    "RSDY": 189
  },
  {
    "STUDYID": "KN868",
    "DOMAIN": "RS",
    "USUBJID": "KN868-0003-0004",
    "RSSEQ": 4,
    "RSTESTCD": "OVRLRESP",
    "RSTEST": "Overall Response",
    "RSCAT": "RECIST 1.1",
    "RSORRES": "PR",
    "RSSTRESC": "PR",
    "RSEVAL": "INVESTIGATOR",
    "VISITNUM": 4,
    "VISIT": "WEEK 36",
    "RSDTC": "2022-04-18",
    "RSDY": 252
  },
  {
    "STUDYID": "KN868",
    "DOMAIN": "RS",
    "USUBJID": "KN868-0003-0004",
    "RSSEQ": 5,
    "RSTESTCD": "OVRLRESP",
    "RSTEST": "Overall Response",
    "RSCAT": "RECIST 1.1",
    "RSORRES": "PR",
    "RSSTRESC": "PR",
    "RSEVAL": "INVESTIGATOR",
    "VISITNUM": 5,
    "VISIT": "WEEK 45",
    "RSDTC": "2022-06-17",
    "RSDY": 315
  },
  {
    "STUDYID": "KN868",
    "DOMAIN": "RS",
    "USUBJID": "KN868-0003-0004",
    "RSSEQ": 6,
    "RSTESTCD": "OVRLRESP",
    "RSTEST": "Overall Response",
    "RSCAT": "RECIST 1.1",
    "RSORRES": "PR",
    "RSSTRESC": "PR",
    "RSEVAL": "INVESTIGATOR",
    "VISITNUM": 6,
    "VISIT": "WEEK 54",
    "RSDTC": "2022-08-24",
    "RSDY": 378
  },
  {
    "STUDYID": "KN868",
    "DOMAIN": "RS",
    "USUBJID": "KN868-0003-0004",
    "RSSEQ": 7,
    "RSTESTCD": "OVRLRESP",
    "RSTEST": "Overall Response",
    "RSCAT": "RECIST 1.1",
    "RSORRES": "PR",
    "RSSTRESC": "PR",
    "RSEVAL": "INVESTIGATOR",
    "VISITNUM": 7,
    "VISIT": "WEEK 63",
    "RSDTC": "2022-10-21",
    "RSDY": 441
  },
  {
    "STUDYID": "KN868",
    "DOMAIN": "RS",
    "USUBJID": "KN868-0003-0004",
    "RSSEQ": 8,
    "RSTESTCD": "OVRLRESP",
    "RSTEST": "Overall Response",
    "RSCAT": "RECIST 1.1",
    "RSORRES": "PR",
    "RSSTRESC": "PR",
    "RSEVAL": "INVESTIGATOR",
    "VISITNUM": 8,
    "VISIT": "WEEK 72",
    "RSDTC": "2022-12-27",
    "RSDY": 504
  },
  {
    "STUDYID": "KN868",
    "DOMAIN": "RS",
    "USUBJID": "KN868-0003-0004",
    "RSSEQ": 9,
    "RSTESTCD": "BESTRESP",
    "RSTEST": "Best Overall Response",
    "RSCAT": "RECIST 1.1",
    "RSORRES": "PR",
    "RSSTRESC": "PR",
    "RSEVAL": "INVESTIGATOR",
    "VISITNUM": 999,
    "VISIT": "BEST RESPONSE",
    "RSDTC": "2023-09-30"
  },
  {
    "STUDYID": "KN868",
    "DOMAIN": "RS",
    "USUBJID": "KN868-0003-0005",
    "RSSEQ": 1,
    "RSTESTCD": "OVRLRESP",
    "RSTEST": "Overall Response",
    "RSCAT": "RECIST 1.1",
    "RSORRES": "SD",
    "RSSTRESC": "SD",
    "RSEVAL": "INVESTIGATOR",
    "VISITNUM": 1,
    "VISIT": "WEEK 9",
    "RSDTC": "2021-07-05",
    "RSDY": 63
  },
  {
    "STUDYID": "KN868",
    "DOMAIN": "RS",
    "USUBJID": "KN868-0003-0005",
    "RSSEQ": 2,
    "RSTESTCD": "OVRLRESP",
    "RSTEST": "Overall Response",
    "RSCAT": "RECIST 1.1",
    "RSORRES": "SD",
    "RSSTRESC": "SD",
    "RSEVAL": "INVESTIGATOR",
    "VISITNUM": 2,
    "VISIT": "WEEK 18",
    "RSDTC": "2021-09-07",
    "RSDY": 126
  },
  {
    "STUDYID": "KN868",
    "DOMAIN": "RS",
    "USUBJID": "KN868-0003-0005",
    "RSSEQ": 3,
    "RSTESTCD": "OVRLRESP",
    "RSTEST": "Overall Response",
    "RSCAT": "RECIST 1.1",
    "RSORRES": "SD",
    "RSSTRESC": "SD",
    "RSEVAL": "INVESTIGATOR",
    "VISITNUM": 3,
    "VISIT": "WEEK 27",
    "RSDTC": "2021-11-08",
    "RSDY": 189
  },
  {
    "STUDYID": "KN868",
    "DOMAIN": "RS",
    "USUBJID": "KN868-0003-0005",
    "RSSEQ": 4,
    "RSTESTCD": "OVRLRESP",
    "RSTEST": "Overall Response",
    "RSCAT": "RECIST 1.1",
    "RSORRES": "SD",
    "RSSTRESC": "SD",
    "RSEVAL": "INVESTIGATOR",
    "VISITNUM": 4,
    "VISIT": "WEEK 36",
    "RSDTC": "2022-01-11",
    "RSDY": 252
  },
  {
    "STUDYID": "KN868",
    "DOMAIN": "RS",
    "USUBJID": "KN868-0003-0005",
    "RSSEQ": 5,
    "RSTESTCD": "OVRLRESP",
    "RSTEST": "Overall Response",
    "RSCAT": "RECIST 1.1",
    "RSORRES": "SD",
    "RSSTRESC": "SD",
    "RSEVAL": "INVESTIGATOR",
    "VISITNUM": 5,
    "VISIT": "WEEK 45",
    "RSDTC": "2022-03-13",
    "RSDY": 315
  },
  {
    "STUDYID": "KN868",
    "DOMAIN": "RS",
    "USUBJID": "KN868-0003-0005",
    "RSSEQ": 6,
    "RSTESTCD": "OVRLRESP",
    "RSTEST": "Overall Response",
    "RSCAT": "RECIST 1.1",
    "RSORRES": "SD",
    "RSSTRESC": "SD",
    "RSEVAL": "INVESTIGATOR",
    "VISITNUM": 6,
    "VISIT": "WEEK 54",
    "RSDTC": "2022-05-17",
    "RSDY": 378
  },
  {
    "STUDYID": "KN868",
    "DOMAIN": "RS",
    "USUBJID": "KN868-0003-0005",
    "RSSEQ": 7,
    "RSTESTCD": "OVRLRESP",
    "RSTEST": "Overall Response",
    "RSCAT": "RECIST 1.1",
    "RSORRES": "SD",
    "RSSTRESC": "SD",
    "RSEVAL": "INVESTIGATOR",
    "VISITNUM": 7,
    "VISIT": "WEEK 63",
    "RSDTC": "2022-07-16",
    "RSDY": 441
  },
  {
    "STUDYID": "KN868",
    "DOMAIN": "RS",
    "USUBJID": "KN868-0003-0005",
    "RSSEQ": 8,
    "RSTESTCD": "OVRLRESP",
    "RSTEST": "Overall Response",
    "RSCAT": "RECIST 1.1",
    "RSORRES": "SD",
    "RSSTRESC": "SD",
    "RSEVAL": "INVESTIGATOR",
    "VISITNUM": 8,
    "VISIT": "WEEK 72",
    "RSDTC": "2022-09-18",
    "RSDY": 504
  },
  {
    "STUDYID": "KN868",
    "DOMAIN": "RS",
    "USUBJID": "KN868-0003-0005",
    "RSSEQ": 9,
    "RSTESTCD": "BESTRESP",
    "RSTEST": "Best Overall Response",
    "RSCAT": "RECIST 1.1",
    "RSORRES": "SD",
    "RSSTRESC": "SD",
    "RSEVAL": "INVESTIGATOR",
    "VISITNUM": 999,
    "VISIT": "BEST RESPONSE",
    "RSDTC": "2023-09-30"
  },
  {
    "STUDYID": "KN868",
    "DOMAIN": "RS",
    "USUBJID": "KN868-0003-0006",
    "RSSEQ": 1,
    "RSTESTCD": "OVRLRESP",
    "RSTEST": "Overall Response",
    "RSCAT": "RECIST 1.1",
    "RSORRES": "SD",
    "RSSTRESC": "SD",
    "RSEVAL": "INVESTIGATOR",
    "VISITNUM": 1,
    "VISIT": "WEEK 9",
    "RSDTC": "2020-07-04",
    "RSDY": 63
  },
  {
    "STUDYID": "KN868",
    "DOMAIN": "RS",
    "USUBJID": "KN868-0003-0006",
    "RSSEQ": 2,
    "RSTESTCD": "OVRLRESP",
    "RSTEST": "Overall Response",
    "RSCAT": "RECIST 1.1",
    "RSORRES": "PR",
    "RSSTRESC": "PR",
    "RSEVAL": "INVESTIGATOR",
    "VISITNUM": 2,
    "VISIT": "WEEK 18",
    "RSDTC": "2020-09-03",
    "RSDY": 126
  },
  {
    "STUDYID": "KN868",
    "DOMAIN": "RS",
    "USUBJID": "KN868-0003-0006",
    "RSSEQ": 3,
    "RSTESTCD": "OVRLRESP",
    "RSTEST": "Overall Response",
    "RSCAT": "RECIST 1.1",
    "RSORRES": "PR",
    "RSSTRESC": "PR",
    "RSEVAL": "INVESTIGATOR",
    "VISITNUM": 3,
    "VISIT": "WEEK 27",
    "RSDTC": "2020-11-06",
    "RSDY": 189
  },
  {
    "STUDYID": "KN868",
    "DOMAIN": "RS",
    "USUBJID": "KN868-0003-0006",
    "RSSEQ": 4,
    "RSTESTCD": "OVRLRESP",
    "RSTEST": "Overall Response",
    "RSCAT": "RECIST 1.1",
    "RSORRES": "CR",
    "RSSTRESC": "CR",
    "RSEVAL": "INVESTIGATOR",
    "VISITNUM": 4,
    "VISIT": "WEEK 36",
    "RSDTC": "2021-01-10",
    "RSDY": 252
  },
  {
    "STUDYID": "KN868",
    "DOMAIN": "RS",
    "USUBJID": "KN868-0003-0006",
    "RSSEQ": 5,
    "RSTESTCD": "OVRLRESP",
    "RSTEST": "Overall Response",
    "RSCAT": "RECIST 1.1",
    "RSORRES": "CR",
    "RSSTRESC": "CR",
    "RSEVAL": "INVESTIGATOR",
    "VISITNUM": 5,
    "VISIT": "WEEK 45",
    "RSDTC": "2021-03-10",
    "RSDY": 315
  },
  {
    "STUDYID": "KN868",
    "DOMAIN": "RS",
    "USUBJID": "KN868-0003-0006",
    "RSSEQ": 6,
    "RSTESTCD": "OVRLRESP",
    "RSTEST": "Overall Response",
    "RSCAT": "RECIST 1.1",
    "RSORRES": "PR",
    "RSSTRESC": "PR",
    "RSEVAL": "INVESTIGATOR",
    "VISITNUM": 6,
    "VISIT": "WEEK 54",
    "RSDTC": "2021-05-17",
    "RSDY": 378
  },
  {
    "STUDYID": "KN868",
    "DOMAIN": "RS",
    "USUBJID": "KN868-0003-0006",
    "RSSEQ": 7,
    "RSTESTCD": "OVRLRESP",
    "RSTEST": "Overall Response",
    "RSCAT": "RECIST 1.1",
    "RSORRES": "PR",
    "RSSTRESC": "PR",
    "RSEVAL": "INVESTIGATOR",
    "VISITNUM": 7,
    "VISIT": "WEEK 63",
    "RSDTC": "2021-07-19",
    "RSDY": 441
  },
  {
    "STUDYID": "KN868",
    "DOMAIN": "RS",
    "USUBJID": "KN868-0003-0006",
    "RSSEQ": 8,
    "RSTESTCD": "OVRLRESP",
    "RSTEST": "Overall Response",
    "RSCAT": "RECIST 1.1",
    "RSORRES": "PR",
    "RSSTRESC": "PR",
    "RSEVAL": "INVESTIGATOR",
    "VISITNUM": 8,
    "VISIT": "WEEK 72",
    "RSDTC": "2021-09-20",
    "RSDY": 504
  },
  {
    "STUDYID": "KN868",
    "DOMAIN": "RS",
    "USUBJID": "KN868-0003-0006",
    "RSSEQ": 9,
    "RSTESTCD": "BESTRESP",
    "RSTEST": "Best Overall Response",
    "RSCAT": "RECIST 1.1",
    "RSORRES": "PR",
    "RSSTRESC": "PR",
    "RSEVAL": "INVESTIGATOR",
    "VISITNUM": 999,
    "VISIT": "BEST RESPONSE",
    "RSDTC": "2023-09-30"
  },
  {
    "STUDYID": "KN868",
    "DOMAIN": "RS",
    "USUBJID": "KN868-0003-0007",
    "RSSEQ": 1,
    "RSTESTCD": "OVRLRESP",
    "RSTEST": "Overall Response",
    "RSCAT": "RECIST 1.1",
    "RSORRES": "SD",
    "RSSTRESC": "SD",
    "RSEVAL": "INVESTIGATOR",
    "VISITNUM": 1,
    "VISIT": "WEEK 9",
    "RSDTC": "2020-07-23",
    "RSDY": 63
  },
  {
    "STUDYID": "KN868",
    "DOMAIN": "RS",
    "USUBJID": "KN868-0003-0007",
    "RSSEQ": 2,
    "RSTESTCD": "OVRLRESP",
    "RSTEST": "Overall Response",
    "RSCAT": "RECIST 1.1",
    "RSORRES": "SD",
    "RSSTRESC": "SD",
    "RSEVAL": "INVESTIGATOR",
    "VISITNUM": 2,
    "VISIT": "WEEK 18",
    "RSDTC": "2020-09-24",
    "RSDY": 126
  },
  {
    "STUDYID": "KN868",
    "DOMAIN": "RS",
    "USUBJID": "KN868-0003-0007",
    "RSSEQ": 3,
    "RSTESTCD": "OVRLRESP",
    "RSTEST": "Overall Response",
    "RSCAT": "RECIST 1.1",
    "RSORRES": "SD",
    "RSSTRESC": "SD",
    "RSEVAL": "INVESTIGATOR",
    "VISITNUM": 3,
    "VISIT": "WEEK 27",
    "RSDTC": "2020-11-28",
    "RSDY": 189
  },
  {
    "STUDYID": "KN868",
    "DOMAIN": "RS",
    "USUBJID": "KN868-0003-0007",
    "RSSEQ": 4,
    "RSTESTCD": "OVRLRESP",
    "RSTEST": "Overall Response",
    "RSCAT": "RECIST 1.1",
    "RSORRES": "SD",
    "RSSTRESC": "SD",
    "RSEVAL": "INVESTIGATOR",
    "VISITNUM": 4,
    "VISIT": "WEEK 36",
    "RSDTC": "2021-01-29",
    "RSDY": 252
  },
  {
    "STUDYID": "KN868",
    "DOMAIN": "RS",
    "USUBJID": "KN868-0003-0007",
    "RSSEQ": 5,
    "RSTESTCD": "OVRLRESP",
    "RSTEST": "Overall Response",
    "RSCAT": "RECIST 1.1",
    "RSORRES": "SD",
    "RSSTRESC": "SD",
    "RSEVAL": "INVESTIGATOR",
    "VISITNUM": 5,
    "VISIT": "WEEK 45",
    "RSDTC": "2021-04-05",
    "RSDY": 315
  },
  {
    "STUDYID": "KN868",
    "DOMAIN": "RS",
    "USUBJID": "KN868-0003-0007",
    "RSSEQ": 6,
    "RSTESTCD": "OVRLRESP",
    "RSTEST": "Overall Response",
    "RSCAT": "RECIST 1.1",
    "RSORRES": "SD",
    "RSSTRESC": "SD",
    "RSEVAL": "INVESTIGATOR",
    "VISITNUM": 6,
    "VISIT": "WEEK 54",
    "RSDTC": "2021-06-04",
    "RSDY": 378
  },
  {
    "STUDYID": "KN868",
    "DOMAIN": "RS",
    "USUBJID": "KN868-0003-0007",
    "RSSEQ": 7,
    "RSTESTCD": "OVRLRESP",
    "RSTEST": "Overall Response",
    "RSCAT": "RECIST 1.1",
    "RSORRES": "SD",
    "RSSTRESC": "SD",
    "RSEVAL": "INVESTIGATOR",
    "VISITNUM": 7,
    "VISIT": "WEEK 63",
    "RSDTC": "2021-08-09",
    "RSDY": 441
  },
  {
    "STUDYID": "KN868",
    "DOMAIN": "RS",
    "USUBJID": "KN868-0003-0007",
    "RSSEQ": 8,
    "RSTESTCD": "OVRLRESP",
    "RSTEST": "Overall Response",
    "RSCAT": "RECIST 1.1",
    "RSORRES": "SD",
    "RSSTRESC": "SD",
    "RSEVAL": "INVESTIGATOR",
    "VISITNUM": 8,
    "VISIT": "WEEK 72",
    "RSDTC": "2021-10-13",
    "RSDY": 504
  },
  {
    "STUDYID": "KN868",
    "DOMAIN": "RS",
    "USUBJID": "KN868-0003-0007",
    "RSSEQ": 9,
    "RSTESTCD": "BESTRESP",
    "RSTEST": "Best Overall Response",
    "RSCAT": "RECIST 1.1",
    "RSORRES": "SD",
    "RSSTRESC": "SD",
    "RSEVAL": "INVESTIGATOR",
    "VISITNUM": 999,
    "VISIT": "BEST RESPONSE",
    "RSDTC": "2023-09-30"
  },
  {
    "STUDYID": "KN868",
    "DOMAIN": "RS",
    "USUBJID": "KN868-0003-0008",
    "RSSEQ": 1,
    "RSTESTCD": "OVRLRESP",
    "RSTEST": "Overall Response",
    "RSCAT": "RECIST 1.1",
    "RSORRES": "SD",
    "RSSTRESC": "SD",
    "RSEVAL": "INVESTIGATOR",
    "VISITNUM": 1,
    "VISIT": "WEEK 9",
    "RSDTC": "2020-06-08",
    "RSDY": 63
  },
  {
    "STUDYID": "KN868",
    "DOMAIN": "RS",
    "USUBJID": "KN868-0003-0008",
    "RSSEQ": 2,
    "RSTESTCD": "OVRLRESP",
    "RSTEST": "Overall Response",
    "RSCAT": "RECIST 1.1",
    "RSORRES": "PD",
    "RSSTRESC": "PD",
    "RSEVAL": "INVESTIGATOR",
    "VISITNUM": 2,
    "VISIT": "WEEK 18",
    "RSDTC": "2020-08-08",
    "RSDY": 126
  },
  {
    "STUDYID": "KN868",
    "DOMAIN": "RS",
    "USUBJID": "KN868-0003-0008",
    "RSSEQ": 3,
    "RSTESTCD": "OVRLRESP",
    "RSTEST": "Overall Response",
    "RSCAT": "RECIST 1.1",
    "RSORRES": "PD",
    "RSSTRESC": "PD",
    "RSEVAL": "INVESTIGATOR",
    "VISITNUM": 3,
    "VISIT": "WEEK 27",
    "RSDTC": "2020-10-13",
    "RSDY": 189
  },
  {
    "STUDYID": "KN868",
    "DOMAIN": "RS",
    "USUBJID": "KN868-0003-0008",
    "RSSEQ": 4,
    "RSTESTCD": "OVRLRESP",
    "RSTEST": "Overall Response",
    "RSCAT": "RECIST 1.1",
    "RSORRES": "PD",
    "RSSTRESC": "PD",
    "RSEVAL": "INVESTIGATOR",
    "VISITNUM": 4,
    "VISIT": "WEEK 36",
    "RSDTC": "2020-12-14",
    "RSDY": 252
  },
  {
    "STUDYID": "KN868",
    "DOMAIN": "RS",
    "USUBJID": "KN868-0003-0008",
    "RSSEQ": 5,
    "RSTESTCD": "OVRLRESP",
    "RSTEST": "Overall Response",
    "RSCAT": "RECIST 1.1",
    "RSORRES": "PD",
    "RSSTRESC": "PD",
    "RSEVAL": "INVESTIGATOR",
    "VISITNUM": 5,
    "VISIT": "WEEK 45",
    "RSDTC": "2021-02-13",
    "RSDY": 315
  },
  {
    "STUDYID": "KN868",
    "DOMAIN": "RS",
    "USUBJID": "KN868-0003-0008",
    "RSSEQ": 6,
    "RSTESTCD": "OVRLRESP",
    "RSTEST": "Overall Response",
    "RSCAT": "RECIST 1.1",
    "RSORRES": "PD",
    "RSSTRESC": "PD",
    "RSEVAL": "INVESTIGATOR",
    "VISITNUM": 6,
    "VISIT": "WEEK 54",
    "RSDTC": "2021-04-17",
    "RSDY": 378
  },
  {
    "STUDYID": "KN868",
    "DOMAIN": "RS",
    "USUBJID": "KN868-0003-0008",
    "RSSEQ": 7,
    "RSTESTCD": "OVRLRESP",
    "RSTEST": "Overall Response",
    "RSCAT": "RECIST 1.1",
    "RSORRES": "PD",
    "RSSTRESC": "PD",
    "RSEVAL": "INVESTIGATOR",
    "VISITNUM": 7,
    "VISIT": "WEEK 63",
    "RSDTC": "2021-06-20",
    "RSDY": 441
  },
  {
    "STUDYID": "KN868",
    "DOMAIN": "RS",
    "USUBJID": "KN868-0003-0008",
    "RSSEQ": 8,
    "RSTESTCD": "OVRLRESP",
    "RSTEST": "Overall Response",
    "RSCAT": "RECIST 1.1",
    "RSORRES": "PD",
    "RSSTRESC": "PD",
    "RSEVAL": "INVESTIGATOR",
    "VISITNUM": 8,
    "VISIT": "WEEK 72",
    "RSDTC": "2021-08-24",
    "RSDY": 504
  },
  {
    "STUDYID": "KN868",
    "DOMAIN": "RS",
    "USUBJID": "KN868-0003-0008",
    "RSSEQ": 9,
    "RSTESTCD": "BESTRESP",
    "RSTEST": "Best Overall Response",
    "RSCAT": "RECIST 1.1",
    "RSORRES": "PD",
    "RSSTRESC": "PD",
    "RSEVAL": "INVESTIGATOR",
    "VISITNUM": 999,
    "VISIT": "BEST RESPONSE",
    "RSDTC": "2023-09-30"
  },
  {
    "STUDYID": "KN868",
    "DOMAIN": "RS",
    "USUBJID": "KN868-0003-0009",
    "RSSEQ": 1,
    "RSTESTCD": "OVRLRESP",
    "RSTEST": "Overall Response",
    "RSCAT": "RECIST 1.1",
    "RSORRES": "PR",
    "RSSTRESC": "PR",
    "RSEVAL": "INVESTIGATOR",
    "VISITNUM": 1,
    "VISIT": "WEEK 9",
    "RSDTC": "2022-02-18",
    "RSDY": 63
  },
  {
    "STUDYID": "KN868",
    "DOMAIN": "RS",
    "USUBJID": "KN868-0003-0009",
    "RSSEQ": 2,
    "RSTESTCD": "OVRLRESP",
    "RSTEST": "Overall Response",
    "RSCAT": "RECIST 1.1",
    "RSORRES": "PR",
    "RSSTRESC": "PR",
    "RSEVAL": "INVESTIGATOR",
    "VISITNUM": 2,
    "VISIT": "WEEK 18",
    "RSDTC": "2022-04-20",
    "RSDY": 126
  },
  {
    "STUDYID": "KN868",
    "DOMAIN": "RS",
    "USUBJID": "KN868-0003-0009",
    "RSSEQ": 3,
    "RSTESTCD": "OVRLRESP",
    "RSTEST": "Overall Response",
    "RSCAT": "RECIST 1.1",
    "RSORRES": "CR",
    "RSSTRESC": "CR",
    "RSEVAL": "INVESTIGATOR",
    "VISITNUM": 3,
    "VISIT": "WEEK 27",
    "RSDTC": "2022-06-25",
    "RSDY": 189
  },
  {
    "STUDYID": "KN868",
    "DOMAIN": "RS",
    "USUBJID": "KN868-0003-0009",
    "RSSEQ": 4,
    "RSTESTCD": "OVRLRESP",
    "RSTEST": "Overall Response",
    "RSCAT": "RECIST 1.1",
    "RSORRES": "CR",
    "RSSTRESC": "CR",
    "RSEVAL": "INVESTIGATOR",
    "VISITNUM": 4,
    "VISIT": "WEEK 36",
    "RSDTC": "2022-08-22",
    "RSDY": 252
  },
  {
    "STUDYID": "KN868",
    "DOMAIN": "RS",
    "USUBJID": "KN868-0003-0009",
    "RSSEQ": 5,
    "RSTESTCD": "OVRLRESP",
    "RSTEST": "Overall Response",
    "RSCAT": "RECIST 1.1",
    "RSORRES": "CR",
    "RSSTRESC": "CR",
    "RSEVAL": "INVESTIGATOR",
    "VISITNUM": 5,
    "VISIT": "WEEK 45",
    "RSDTC": "2022-10-30",
    "RSDY": 315
  },
  {
    "STUDYID": "KN868",
    "DOMAIN": "RS",
    "USUBJID": "KN868-0003-0009",
    "RSSEQ": 6,
    "RSTESTCD": "OVRLRESP",
    "RSTEST": "Overall Response",
    "RSCAT": "RECIST 1.1",
    "RSORRES": "CR",
    "RSSTRESC": "CR",
    "RSEVAL": "INVESTIGATOR",
    "VISITNUM": 6,
    "VISIT": "WEEK 54",
    "RSDTC": "2022-12-30",
    "RSDY": 378
  },
  {
    "STUDYID": "KN868",
    "DOMAIN": "RS",
    "USUBJID": "KN868-0003-0009",
    "RSSEQ": 7,
    "RSTESTCD": "OVRLRESP",
    "RSTEST": "Overall Response",
    "RSCAT": "RECIST 1.1",
    "RSORRES": "CR",
    "RSSTRESC": "CR",
    "RSEVAL": "INVESTIGATOR",
    "VISITNUM": 7,
    "VISIT": "WEEK 63",
    "RSDTC": "2023-03-04",
    "RSDY": 441
  },
  {
    "STUDYID": "KN868",
    "DOMAIN": "RS",
    "USUBJID": "KN868-0003-0009",
    "RSSEQ": 8,
    "RSTESTCD": "OVRLRESP",
    "RSTEST": "Overall Response",
    "RSCAT": "RECIST 1.1",
    "RSORRES": "CR",
    "RSSTRESC": "CR",
    "RSEVAL": "INVESTIGATOR",
    "VISITNUM": 8,
    "VISIT": "WEEK 72",
    "RSDTC": "2023-05-03",
    "RSDY": 504
  },
  {
    "STUDYID": "KN868",
    "DOMAIN": "RS",
    "USUBJID": "KN868-0003-0009",
    "RSSEQ": 9,
    "RSTESTCD": "BESTRESP",
    "RSTEST": "Best Overall Response",
    "RSCAT": "RECIST 1.1",
    "RSORRES": "CR",
    "RSSTRESC": "CR",
    "RSEVAL": "INVESTIGATOR",
    "VISITNUM": 999,
    "VISIT": "BEST RESPONSE",
    "RSDTC": "2023-09-30"
  },
  {
    "STUDYID": "KN868",
    "DOMAIN": "RS",
    "USUBJID": "KN868-0003-0010",
    "RSSEQ": 1,
    "RSTESTCD": "OVRLRESP",
    "RSTEST": "Overall Response",
    "RSCAT": "RECIST 1.1",
    "RSORRES": "SD",
    "RSSTRESC": "SD",
    "RSEVAL": "INVESTIGATOR",
    "VISITNUM": 1,
    "VISIT": "WEEK 9",
    "RSDTC": "2022-04-06",
    "RSDY": 63
  },
  {
    "STUDYID": "KN868",
    "DOMAIN": "RS",
    "USUBJID": "KN868-0003-0010",
    "RSSEQ": 2,
    "RSTESTCD": "OVRLRESP",
    "RSTEST": "Overall Response",
    "RSCAT": "RECIST 1.1",
    "RSORRES": "PR",
    "RSSTRESC": "PR",
    "RSEVAL": "INVESTIGATOR",
    "VISITNUM": 2,
    "VISIT": "WEEK 18",
    "RSDTC": "2022-06-08",
    "RSDY": 126
  },
  {
    "STUDYID": "KN868",
    "DOMAIN": "RS",
    "USUBJID": "KN868-0003-0010",
    "RSSEQ": 3,
    "RSTESTCD": "OVRLRESP",
    "RSTEST": "Overall Response",
    "RSCAT": "RECIST 1.1",
    "RSORRES": "PR",
    "RSSTRESC": "PR",
    "RSEVAL": "INVESTIGATOR",
    "VISITNUM": 3,
    "VISIT": "WEEK 27",
    "RSDTC": "2022-08-06",
    "RSDY": 189
  },
  {
    "STUDYID": "KN868",
    "DOMAIN": "RS",
    "USUBJID": "KN868-0003-0010",
    "RSSEQ": 4,
    "RSTESTCD": "OVRLRESP",
    "RSTEST": "Overall Response",
    "RSCAT": "RECIST 1.1",
    "RSORRES": "PR",
    "RSSTRESC": "PR",
    "RSEVAL": "INVESTIGATOR",
    "VISITNUM": 4,
    "VISIT": "WEEK 36",
    "RSDTC": "2022-10-07",
    "RSDY": 252
  },
  {
    "STUDYID": "KN868",
    "DOMAIN": "RS",
    "USUBJID": "KN868-0003-0010",
    "RSSEQ": 5,
    "RSTESTCD": "OVRLRESP",
    "RSTEST": "Overall Response",
    "RSCAT": "RECIST 1.1",
    "RSORRES": "PR",
    "RSSTRESC": "PR",
    "RSEVAL": "INVESTIGATOR",
    "VISITNUM": 5,
    "VISIT": "WEEK 45",
    "RSDTC": "2022-12-14",
    "RSDY": 315
  },
  {
    "STUDYID": "KN868",
    "DOMAIN": "RS",
    "USUBJID": "KN868-0003-0010",
    "RSSEQ": 6,
    "RSTESTCD": "OVRLRESP",
    "RSTEST": "Overall Response",
    "RSCAT": "RECIST 1.1",
    "RSORRES": "CR",
    "RSSTRESC": "CR",
    "RSEVAL": "INVESTIGATOR",
    "VISITNUM": 6,
    "VISIT": "WEEK 54",
    "RSDTC": "2023-02-10",
    "RSDY": 378
  },
  {
    "STUDYID": "KN868",
    "DOMAIN": "RS",
    "USUBJID": "KN868-0003-0010",
    "RSSEQ": 7,
    "RSTESTCD": "OVRLRESP",
    "RSTEST": "Overall Response",
    "RSCAT": "RECIST 1.1",
    "RSORRES": "PR",
    "RSSTRESC": "PR",
    "RSEVAL": "INVESTIGATOR",
    "VISITNUM": 7,
    "VISIT": "WEEK 63",
    "RSDTC": "2023-04-15",
    "RSDY": 441
  },
  {
    "STUDYID": "KN868",
    "DOMAIN": "RS",
    "USUBJID": "KN868-0003-0010",
    "RSSEQ": 8,
    "RSTESTCD": "OVRLRESP",
    "RSTEST": "Overall Response",
    "RSCAT": "RECIST 1.1",
    "RSORRES": "PR",
    "RSSTRESC": "PR",
    "RSEVAL": "INVESTIGATOR",
    "VISITNUM": 8,
    "VISIT": "WEEK 72",
    "RSDTC": "2023-06-18",
    "RSDY": 504
  },
  {
    "STUDYID": "KN868",
    "DOMAIN": "RS",
    "USUBJID": "KN868-0003-0010",
    "RSSEQ": 9,
    "RSTESTCD": "BESTRESP",
    "RSTEST": "Best Overall Response",
    "RSCAT": "RECIST 1.1",
    "RSORRES": "PR",
    "RSSTRESC": "PR",
    "RSEVAL": "INVESTIGATOR",
    "VISITNUM": 999,
    "VISIT": "BEST RESPONSE",
    "RSDTC": "2023-09-30"
  },
  {
    "STUDYID": "KN868",
    "DOMAIN": "RS",
    "USUBJID": "KN868-0003-0011",
    "RSSEQ": 1,
    "RSTESTCD": "OVRLRESP",
    "RSTEST": "Overall Response",
    "RSCAT": "RECIST 1.1",
    "RSORRES": "PR",
    "RSSTRESC": "PR",
    "RSEVAL": "INVESTIGATOR",
    "VISITNUM": 1,
    "VISIT": "WEEK 9",
    "RSDTC": "2021-07-25",
    "RSDY": 63
  },
  {
    "STUDYID": "KN868",
    "DOMAIN": "RS",
    "USUBJID": "KN868-0003-0011",
    "RSSEQ": 2,
    "RSTESTCD": "OVRLRESP",
    "RSTEST": "Overall Response",
    "RSCAT": "RECIST 1.1",
    "RSORRES": "PR",
    "RSSTRESC": "PR",
    "RSEVAL": "INVESTIGATOR",
    "VISITNUM": 2,
    "VISIT": "WEEK 18",
    "RSDTC": "2021-09-26",
    "RSDY": 126
  },
  {
    "STUDYID": "KN868",
    "DOMAIN": "RS",
    "USUBJID": "KN868-0003-0011",
    "RSSEQ": 3,
    "RSTESTCD": "OVRLRESP",
    "RSTEST": "Overall Response",
    "RSCAT": "RECIST 1.1",
    "RSORRES": "PR",
    "RSSTRESC": "PR",
    "RSEVAL": "INVESTIGATOR",
    "VISITNUM": 3,
    "VISIT": "WEEK 27",
    "RSDTC": "2021-11-26",
    "RSDY": 189
  },
  {
    "STUDYID": "KN868",
    "DOMAIN": "RS",
    "USUBJID": "KN868-0003-0011",
    "RSSEQ": 4,
    "RSTESTCD": "OVRLRESP",
    "RSTEST": "Overall Response",
    "RSCAT": "RECIST 1.1",
    "RSORRES": "CR",
    "RSSTRESC": "CR",
    "RSEVAL": "INVESTIGATOR",
    "VISITNUM": 4,
    "VISIT": "WEEK 36",
    "RSDTC": "2022-02-01",
    "RSDY": 252
  },
  {
    "STUDYID": "KN868",
    "DOMAIN": "RS",
    "USUBJID": "KN868-0003-0011",
    "RSSEQ": 5,
    "RSTESTCD": "OVRLRESP",
    "RSTEST": "Overall Response",
    "RSCAT": "RECIST 1.1",
    "RSORRES": "PR",
    "RSSTRESC": "PR",
    "RSEVAL": "INVESTIGATOR",
    "VISITNUM": 5,
    "VISIT": "WEEK 45",
    "RSDTC": "2022-04-02",
    "RSDY": 315
  },
  {
    "STUDYID": "KN868",
    "DOMAIN": "RS",
    "USUBJID": "KN868-0003-0011",
    "RSSEQ": 6,
    "RSTESTCD": "OVRLRESP",
    "RSTEST": "Overall Response",
    "RSCAT": "RECIST 1.1",
    "RSORRES": "PR",
    "RSSTRESC": "PR",
    "RSEVAL": "INVESTIGATOR",
    "VISITNUM": 6,
    "VISIT": "WEEK 54",
    "RSDTC": "2022-06-07",
    "RSDY": 378
  },
  {
    "STUDYID": "KN868",
    "DOMAIN": "RS",
    "USUBJID": "KN868-0003-0011",
    "RSSEQ": 7,
    "RSTESTCD": "OVRLRESP",
    "RSTEST": "Overall Response",
    "RSCAT": "RECIST 1.1",
    "RSORRES": "PR",
    "RSSTRESC": "PR",
    "RSEVAL": "INVESTIGATOR",
    "VISITNUM": 7,
    "VISIT": "WEEK 63",
    "RSDTC": "2022-08-05",
    "RSDY": 441
  },
  {
    "STUDYID": "KN868",
    "DOMAIN": "RS",
    "USUBJID": "KN868-0003-0011",
    "RSSEQ": 8,
    "RSTESTCD": "OVRLRESP",
    "RSTEST": "Overall Response",
    "RSCAT": "RECIST 1.1",
    "RSORRES": "CR",
    "RSSTRESC": "CR",
    "RSEVAL": "INVESTIGATOR",
    "VISITNUM": 8,
    "VISIT": "WEEK 72",
    "RSDTC": "2022-10-05",
    "RSDY": 504
  },
  {
    "STUDYID": "KN868",
    "DOMAIN": "RS",
    "USUBJID": "KN868-0003-0011",
    "RSSEQ": 9,
    "RSTESTCD": "BESTRESP",
    "RSTEST": "Best Overall Response",
    "RSCAT": "RECIST 1.1",
    "RSORRES": "PR",
    "RSSTRESC": "PR",
    "RSEVAL": "INVESTIGATOR",
    "VISITNUM": 999,
    "VISIT": "BEST RESPONSE",
    "RSDTC": "2023-09-30"
  },
  {
    "STUDYID": "KN868",
    "DOMAIN": "RS",
    "USUBJID": "KN868-0003-0012",
    "RSSEQ": 1,
    "RSTESTCD": "OVRLRESP",
    "RSTEST": "Overall Response",
    "RSCAT": "RECIST 1.1",
    "RSORRES": "SD",
    "RSSTRESC": "SD",
    "RSEVAL": "INVESTIGATOR",
    "VISITNUM": 1,
    "VISIT": "WEEK 9",
    "RSDTC": "2020-12-14",
    "RSDY": 63
  },
  {
    "STUDYID": "KN868",
    "DOMAIN": "RS",
    "USUBJID": "KN868-0003-0012",
    "RSSEQ": 2,
    "RSTESTCD": "OVRLRESP",
    "RSTEST": "Overall Response",
    "RSCAT": "RECIST 1.1",
    "RSORRES": "PD",
    "RSSTRESC": "PD",
    "RSEVAL": "INVESTIGATOR",
    "VISITNUM": 2,
    "VISIT": "WEEK 18",
    "RSDTC": "2021-02-17",
    "RSDY": 126
  },
  {
    "STUDYID": "KN868",
    "DOMAIN": "RS",
    "USUBJID": "KN868-0003-0012",
    "RSSEQ": 3,
    "RSTESTCD": "OVRLRESP",
    "RSTEST": "Overall Response",
    "RSCAT": "RECIST 1.1",
    "RSORRES": "PD",
    "RSSTRESC": "PD",
    "RSEVAL": "INVESTIGATOR",
    "VISITNUM": 3,
    "VISIT": "WEEK 27",
    "RSDTC": "2021-04-20",
    "RSDY": 189
  },
  {
    "STUDYID": "KN868",
    "DOMAIN": "RS",
    "USUBJID": "KN868-0003-0012",
    "RSSEQ": 4,
    "RSTESTCD": "OVRLRESP",
    "RSTEST": "Overall Response",
    "RSCAT": "RECIST 1.1",
    "RSORRES": "PD",
    "RSSTRESC": "PD",
    "RSEVAL": "INVESTIGATOR",
    "VISITNUM": 4,
    "VISIT": "WEEK 36",
    "RSDTC": "2021-06-22",
    "RSDY": 252
  },
  {
    "STUDYID": "KN868",
    "DOMAIN": "RS",
    "USUBJID": "KN868-0003-0012",
    "RSSEQ": 5,
    "RSTESTCD": "OVRLRESP",
    "RSTEST": "Overall Response",
    "RSCAT": "RECIST 1.1",
    "RSORRES": "PD",
    "RSSTRESC": "PD",
    "RSEVAL": "INVESTIGATOR",
    "VISITNUM": 5,
    "VISIT": "WEEK 45",
    "RSDTC": "2021-08-21",
    "RSDY": 315
  },
  {
    "STUDYID": "KN868",
    "DOMAIN": "RS",
    "USUBJID": "KN868-0003-0012",
    "RSSEQ": 6,
    "RSTESTCD": "OVRLRESP",
    "RSTEST": "Overall Response",
    "RSCAT": "RECIST 1.1",
    "RSORRES": "PD",
    "RSSTRESC": "PD",
    "RSEVAL": "INVESTIGATOR",
    "VISITNUM": 6,
    "VISIT": "WEEK 54",
    "RSDTC": "2021-10-23",
    "RSDY": 378
  },
  {
    "STUDYID": "KN868",
    "DOMAIN": "RS",
    "USUBJID": "KN868-0003-0012",
    "RSSEQ": 7,
    "RSTESTCD": "OVRLRESP",
    "RSTEST": "Overall Response",
    "RSCAT": "RECIST 1.1",
    "RSORRES": "PD",
    "RSSTRESC": "PD",
    "RSEVAL": "INVESTIGATOR",
    "VISITNUM": 7,
    "VISIT": "WEEK 63",
    "RSDTC": "2021-12-27",
    "RSDY": 441
  },
  {
    "STUDYID": "KN868",
    "DOMAIN": "RS",
    "USUBJID": "KN868-0003-0012",
    "RSSEQ": 8,
    "RSTESTCD": "OVRLRESP",
    "RSTEST": "Overall Response",
    "RSCAT": "RECIST 1.1",
    "RSORRES": "PD",
    "RSSTRESC": "PD",
    "RSEVAL": "INVESTIGATOR",
    "VISITNUM": 8,
    "VISIT": "WEEK 72",
    "RSDTC": "2022-02-26",
    "RSDY": 504
  },
  {
    "STUDYID": "KN868",
    "DOMAIN": "RS",
    "USUBJID": "KN868-0003-0012",
    "RSSEQ": 9,
    "RSTESTCD": "BESTRESP",
    "RSTEST": "Best Overall Response",
    "RSCAT": "RECIST 1.1",
    "RSORRES": "PD",
    "RSSTRESC": "PD",
    "RSEVAL": "INVESTIGATOR",
    "VISITNUM": 999,
    "VISIT": "BEST RESPONSE",
    "RSDTC": "2023-09-30"
  },
  {
    "STUDYID": "KN868",
    "DOMAIN": "RS",
    "USUBJID": "KN868-0003-0013",
    "RSSEQ": 1,
    "RSTESTCD": "OVRLRESP",
    "RSTEST": "Overall Response",
    "RSCAT": "RECIST 1.1",
    "RSORRES": "SD",
    "RSSTRESC": "SD",
    "RSEVAL": "INVESTIGATOR",
    "VISITNUM": 1,
    "VISIT": "WEEK 9",
    "RSDTC": "2021-05-21",
    "RSDY": 63
  },
  {
    "STUDYID": "KN868",
    "DOMAIN": "RS",
    "USUBJID": "KN868-0003-0013",
    "RSSEQ": 2,
    "RSTESTCD": "OVRLRESP",
    "RSTEST": "Overall Response",
    "RSCAT": "RECIST 1.1",
    "RSORRES": "SD",
    "RSSTRESC": "SD",
    "RSEVAL": "INVESTIGATOR",
    "VISITNUM": 2,
    "VISIT": "WEEK 18",
    "RSDTC": "2021-07-23",
    "RSDY": 126
  },
  {
    "STUDYID": "KN868",
    "DOMAIN": "RS",
    "USUBJID": "KN868-0003-0013",
    "RSSEQ": 3,
    "RSTESTCD": "OVRLRESP",
    "RSTEST": "Overall Response",
    "RSCAT": "RECIST 1.1",
    "RSORRES": "SD",
    "RSSTRESC": "SD",
    "RSEVAL": "INVESTIGATOR",
    "VISITNUM": 3,
    "VISIT": "WEEK 27",
    "RSDTC": "2021-09-26",
    "RSDY": 189
  },
  {
    "STUDYID": "KN868",
    "DOMAIN": "RS",
    "USUBJID": "KN868-0003-0013",
    "RSSEQ": 4,
    "RSTESTCD": "OVRLRESP",
    "RSTEST": "Overall Response",
    "RSCAT": "RECIST 1.1",
    "RSORRES": "SD",
    "RSSTRESC": "SD",
    "RSEVAL": "INVESTIGATOR",
    "VISITNUM": 4,
    "VISIT": "WEEK 36",
    "RSDTC": "2021-11-26",
    "RSDY": 252
  },
  {
    "STUDYID": "KN868",
    "DOMAIN": "RS",
    "USUBJID": "KN868-0003-0013",
    "RSSEQ": 5,
    "RSTESTCD": "OVRLRESP",
    "RSTEST": "Overall Response",
    "RSCAT": "RECIST 1.1",
    "RSORRES": "SD",
    "RSSTRESC": "SD",
    "RSEVAL": "INVESTIGATOR",
    "VISITNUM": 5,
    "VISIT": "WEEK 45",
    "RSDTC": "2022-01-29",
    "RSDY": 315
  },
  {
    "STUDYID": "KN868",
    "DOMAIN": "RS",
    "USUBJID": "KN868-0003-0013",
    "RSSEQ": 6,
    "RSTESTCD": "OVRLRESP",
    "RSTEST": "Overall Response",
    "RSCAT": "RECIST 1.1",
    "RSORRES": "SD",
    "RSSTRESC": "SD",
    "RSEVAL": "INVESTIGATOR",
    "VISITNUM": 6,
    "VISIT": "WEEK 54",
    "RSDTC": "2022-04-02",
    "RSDY": 378
  },
  {
    "STUDYID": "KN868",
    "DOMAIN": "RS",
    "USUBJID": "KN868-0003-0013",
    "RSSEQ": 7,
    "RSTESTCD": "OVRLRESP",
    "RSTEST": "Overall Response",
    "RSCAT": "RECIST 1.1",
    "RSORRES": "SD",
    "RSSTRESC": "SD",
    "RSEVAL": "INVESTIGATOR",
    "VISITNUM": 7,
    "VISIT": "WEEK 63",
    "RSDTC": "2022-06-06",
    "RSDY": 441
  },
  {
    "STUDYID": "KN868",
    "DOMAIN": "RS",
    "USUBJID": "KN868-0003-0013",
    "RSSEQ": 8,
    "RSTESTCD": "OVRLRESP",
    "RSTEST": "Overall Response",
    "RSCAT": "RECIST 1.1",
    "RSORRES": "SD",
    "RSSTRESC": "SD",
    "RSEVAL": "INVESTIGATOR",
    "VISITNUM": 8,
    "VISIT": "WEEK 72",
    "RSDTC": "2022-08-04",
    "RSDY": 504
  },
  {
    "STUDYID": "KN868",
    "DOMAIN": "RS",
    "USUBJID": "KN868-0003-0013",
    "RSSEQ": 9,
    "RSTESTCD": "BESTRESP",
    "RSTEST": "Best Overall Response",
    "RSCAT": "RECIST 1.1",
    "RSORRES": "SD",
    "RSSTRESC": "SD",
    "RSEVAL": "INVESTIGATOR",
    "VISITNUM": 999,
    "VISIT": "BEST RESPONSE",
    "RSDTC": "2023-09-30"
  },
  {
    "STUDYID": "KN868",
    "DOMAIN": "RS",
    "USUBJID": "KN868-0003-0014",
    "RSSEQ": 1,
    "RSTESTCD": "OVRLRESP",
    "RSTEST": "Overall Response",
    "RSCAT": "RECIST 1.1",
    "RSORRES": "SD",
    "RSSTRESC": "SD",
    "RSEVAL": "INVESTIGATOR",
    "VISITNUM": 1,
    "VISIT": "WEEK 9",
    "RSDTC": "2021-01-17",
    "RSDY": 63
  },
  {
    "STUDYID": "KN868",
    "DOMAIN": "RS",
    "USUBJID": "KN868-0003-0014",
    "RSSEQ": 2,
    "RSTESTCD": "OVRLRESP",
    "RSTEST": "Overall Response",
    "RSCAT": "RECIST 1.1",
    "RSORRES": "SD",
    "RSSTRESC": "SD",
    "RSEVAL": "INVESTIGATOR",
    "VISITNUM": 2,
    "VISIT": "WEEK 18",
    "RSDTC": "2021-03-20",
    "RSDY": 126
  },
  {
    "STUDYID": "KN868",
    "DOMAIN": "RS",
    "USUBJID": "KN868-0003-0014",
    "RSSEQ": 3,
    "RSTESTCD": "OVRLRESP",
    "RSTEST": "Overall Response",
    "RSCAT": "RECIST 1.1",
    "RSORRES": "SD",
    "RSSTRESC": "SD",
    "RSEVAL": "INVESTIGATOR",
    "VISITNUM": 3,
    "VISIT": "WEEK 27",
    "RSDTC": "2021-05-23",
    "RSDY": 189
  },
  {
    "STUDYID": "KN868",
    "DOMAIN": "RS",
    "USUBJID": "KN868-0003-0014",
    "RSSEQ": 4,
    "RSTESTCD": "OVRLRESP",
    "RSTEST": "Overall Response",
    "RSCAT": "RECIST 1.1",
    "RSORRES": "SD",
    "RSSTRESC": "SD",
    "RSEVAL": "INVESTIGATOR",
    "VISITNUM": 4,
    "VISIT": "WEEK 36",
