[
  {
    "STUDYID": "CDISCPILOT01",
    "DOMAIN": "SV",
    "USUBJID": "01-701-001",
    "SVSEQ": 1,
    "VISITNUM": 1,
    "VISIT": "SCREENING",
    "VISITDY": -14,
    "SVSTDTC": "2013-06-01",
    "SVENDTC": "2013-06-01"
  },
  {
    "STUDYID": "CDISCPILOT01",
    "DOMAIN": "SV",
    "USUBJID": "01-701-001",
    "SVSEQ": 2,
    "VISITNUM": 2,
    "VISIT": "BASELINE",
    "VISITDY": 1,
    "SVSTDTC": "2013-06-17",
    "SVENDTC": "2013-06-17"
  },
  {
    "STUDYID": "CDISCPILOT01",
    "DOMAIN": "SV",
    "USUBJID": "01-701-001",
    "SVSEQ": 3,
    "VISITNUM": 3,
    "VISIT": "WEEK 2",
    "VISITDY": 15,
    "SVSTDTC": "2013-07-01",
    "SVENDTC": "2013-07-01"
  },
  {
    "STUDYID": "CDISCPILOT01",
    "DOMAIN": "SV",
    "USUBJID": "01-701-001",
    "SVSEQ": 4,
    "VISITNUM": 4,
    "VISIT": "WEEK 4",
    "VISITDY": 29,
    "SVSTDTC": "2013-07-15",
    "SVENDTC": "2013-07-15"
  },
  {
    "STUDYID": "CDISCPILOT01",
    "DOMAIN": "SV",
    "USUBJID": "01-701-001",
    "SVSEQ": 5,
    "VISITNUM": 5,
    "VISIT": "WEEK 8",
    "VISITDY": 57,
    "SVSTDTC": "2013-08-13",
    "SVENDTC": "2013-08-13"
  },
  {
    "STUDYID": "CDISCPILOT01",
    "DOMAIN": "SV",
    "USUBJID": "01-701-001",
    "SVSEQ": 6,
    "VISITNUM": 6,
    "VISIT": "WEEK 12",
    "VISITDY": 85,
    "SVSTDTC": "2013-09-11",
    "SVENDTC": "2013-09-11"
  },
  {
    "STUDYID": "CDISCPILOT01",
    "DOMAIN": "SV",
    "USUBJID": "01-701-001",
    "SVSEQ": 7,
    "VISITNUM": 7,
    "VISIT": "WEEK 16",
    "VISITDY": 113,
    "SVSTDTC": "2013-10-08",
    "SVENDTC": "2013-10-08"
  },
  {
    "STUDYID": "CDISCPILOT01",
    "DOMAIN": "SV",
    "USUBJID": "01-701-001",
    "SVSEQ": 8,
    "VISITNUM": 8,
    "VISIT": "WEEK 20",
    "VISITDY": 141,
    "SVSTDTC": "2013-11-08",
    "SVENDTC": "2013-11-08"
  },
  {
    "STUDYID": "CDISCPILOT01",
    "DOMAIN": "SV",
    "USUBJID": "01-701-001",
    "SVSEQ": 9,
    "VISITNUM": 9,
    "VISIT": "WEEK 24",
    "VISITDY": 169,
    "SVSTDTC": "2013-12-04",
    "SVENDTC": "2013-12-04"
  },
  {
    "STUDYID": "CDISCPILOT01",
    "DOMAIN": "SV",
    "USUBJID": "01-701-001",
    "SVSEQ": 10,
    "VISITNUM": 10,
    "VISIT": "END OF TREATMENT",
    "VISITDY": 169,
    "SVSTDTC": "2013-12-06",
    "SVENDTC": "2013-12-06"
  },
  {
    "STUDYID": "CDISCPILOT01",
    "DOMAIN": "SV",
    "USUBJID": "01-701-001",
    "SVSEQ": 11,
    "VISITNUM": 11,
    "VISIT": "WEEK 26",
    "VISITDY": 183,
    "SVSTDTC": "2013-12-17",
    "SVENDTC": "2013-12-17"
  },
  {
    "STUDYID": "CDISCPILOT01",
    "DOMAIN": "SV",
    "USUBJID": "01-701-002",
    "SVSEQ": 1,
    "VISITNUM": 1,
    "VISIT": "SCREENING",
    "VISITDY": -14,
    "SVSTDTC": "2013-03-15",
    "SVENDTC": "2013-03-15"
  },
  {
    "STUDYID": "CDISCPILOT01",
    "DOMAIN": "SV",
    "USUBJID": "01-701-002",
    "SVSEQ": 2,
    "VISITNUM": 2,
    "VISIT": "BASELINE",
    "VISITDY": 1,
    "SVSTDTC": "2013-04-03",
    "SVENDTC": "2013-04-03"
  },
  {
    "STUDYID": "CDISCPILOT01",
    "DOMAIN": "SV",
    "USUBJID": "01-701-002",
    "SVSEQ": 3,
    "VISITNUM": 3,
    "VISIT": "WEEK 2",
    "VISITDY": 15,
    "SVSTDTC": "2013-04-14",
    "SVENDTC": "2013-04-14"
  },
  {
    "STUDYID": "CDISCPILOT01",
    "DOMAIN": "SV",
    "USUBJID": "01-701-002",
    "SVSEQ": 4,
    "VISITNUM": 4,
    "VISIT": "WEEK 4",
    "VISITDY": 29,
    "SVSTDTC": "2013-04-26",
    "SVENDTC": "2013-04-26"
  },
  {
    "STUDYID": "CDISCPILOT01",
    "DOMAIN": "SV",
    "USUBJID": "01-701-002",
    "SVSEQ": 5,
    "VISITNUM": 5,
    "VISIT": "WEEK 8",
    "VISITDY": 57,
    "SVSTDTC": "2013-05-26",
    "SVENDTC": "2013-05-26"
  },
  {
    "STUDYID": "CDISCPILOT01",
    "DOMAIN": "SV",
    "USUBJID": "01-701-002",
    "SVSEQ": 6,
    "VISITNUM": 6,
    "VISIT": "WEEK 12",
    "VISITDY": 85,
    "SVSTDTC": "2013-06-26",
    "SVENDTC": "2013-06-26"
  },
  {
    "STUDYID": "CDISCPILOT01",
    "DOMAIN": "SV",
    "USUBJID": "01-701-002",
    "SVSEQ": 7,
    "VISITNUM": 7,
    "VISIT": "WEEK 16",
    "VISITDY": 113,
    "SVSTDTC": "2013-07-25",
    "SVENDTC": "2013-07-25"
  },
  {
    "STUDYID": "CDISCPILOT01",
    "DOMAIN": "SV",
    "USUBJID": "01-701-002",
    "SVSEQ": 8,
    "VISITNUM": 8,
    "VISIT": "WEEK 20",
    "VISITDY": 141,
    "SVSTDTC": "2013-08-16",
    "SVENDTC": "2013-08-16"
  },
  {
    "STUDYID": "CDISCPILOT01",
    "DOMAIN": "SV",
    "USUBJID": "01-701-002",
    "SVSEQ": 9,
    "VISITNUM": 9,
    "VISIT": "WEEK 24",
    "VISITDY": 169,
    "SVSTDTC": "2013-09-17",
    "SVENDTC": "2013-09-17"
  },
  {
    "STUDYID": "CDISCPILOT01",
    "DOMAIN": "SV",
    "USUBJID": "01-701-002",
    "SVSEQ": 10,
    "VISITNUM": 10,
    "VISIT": "END OF TREATMENT",
    "VISITDY": 169,
    "SVSTDTC": "2013-09-17",
    "SVENDTC": "2013-09-17"
  },
  {
    "STUDYID": "CDISCPILOT01",
    "DOMAIN": "SV",
    "USUBJID": "01-701-002",
    "SVSEQ": 11,
    "VISITNUM": 11,
    "VISIT": "WEEK 26",
    "VISITDY": 183,
    "SVSTDTC": "2013-09-29",
    "SVENDTC": "2013-09-29"
  },
  {
    "STUDYID": "CDISCPILOT01",
    "DOMAIN": "SV",
    "USUBJID": "01-701-003",
    "SVSEQ": 1,
    "VISITNUM": 1,
    "VISIT": "SCREENING",
    "VISITDY": -14,
    "SVSTDTC": "2012-12-22",
    "SVENDTC": "2012-12-22"
  },
  {
    "STUDYID": "CDISCPILOT01",
    "DOMAIN": "SV",
    "USUBJID": "01-701-003",
    "SVSEQ": 2,
    "VISITNUM": 2,
    "VISIT": "BASELINE",
    "VISITDY": 1,
    "SVSTDTC": "2013-01-04",
    "SVENDTC": "2013-01-04"
  },
  {
    "STUDYID": "CDISCPILOT01",
    "DOMAIN": "SV",
    "USUBJID": "01-701-003",
    "SVSEQ": 3,
    "VISITNUM": 3,
    "VISIT": "WEEK 2",
    "VISITDY": 15,
    "SVSTDTC": "2013-01-16",
    "SVENDTC": "2013-01-16"
  },
  {
    "STUDYID": "CDISCPILOT01",
    "DOMAIN": "SV",
    "USUBJID": "01-701-003",
    "SVSEQ": 4,
    "VISITNUM": 4,
    "VISIT": "WEEK 4",
    "VISITDY": 29,
    "SVSTDTC": "2013-01-29",
    "SVENDTC": "2013-01-29"
  },
  {
    "STUDYID": "CDISCPILOT01",
    "DOMAIN": "SV",
    "USUBJID": "01-701-003",
    "SVSEQ": 5,
    "VISITNUM": 5,
    "VISIT": "WEEK 8",
    "VISITDY": 57,
    "SVSTDTC": "2013-02-24",
    "SVENDTC": "2013-02-24"
  },
  {
    "STUDYID": "CDISCPILOT01",
    "DOMAIN": "SV",
    "USUBJID": "01-701-003",
    "SVSEQ": 6,
    "VISITNUM": 6,
    "VISIT": "WEEK 12",
    "VISITDY": 85,
    "SVSTDTC": "2013-03-26",
    "SVENDTC": "2013-03-26"
  },
  {
    "STUDYID": "CDISCPILOT01",
    "DOMAIN": "SV",
    "USUBJID": "01-701-003",
    "SVSEQ": 7,
    "VISITNUM": 7,
    "VISIT": "WEEK 16",
    "VISITDY": 113,
    "SVSTDTC": "2013-04-23",
    "SVENDTC": "2013-04-23"
  },
  {
    "STUDYID": "CDISCPILOT01",
    "DOMAIN": "SV",
    "USUBJID": "01-701-003",
    "SVSEQ": 8,
    "VISITNUM": 8,
    "VISIT": "WEEK 20",
    "VISITDY": 141,
    "SVSTDTC": "2013-05-23",
    "SVENDTC": "2013-05-23"
  },
  {
    "STUDYID": "CDISCPILOT01",
    "DOMAIN": "SV",
    "USUBJID": "01-701-003",
    "SVSEQ": 9,
    "VISITNUM": 9,
    "VISIT": "WEEK 24",
    "VISITDY": 169,
    "SVSTDTC": "2013-06-16",
    "SVENDTC": "2013-06-16"
  },
  {
    "STUDYID": "CDISCPILOT01",
    "DOMAIN": "SV",
    "USUBJID": "01-701-003",
    "SVSEQ": 10,
    "VISITNUM": 10,
    "VISIT": "END OF TREATMENT",
    "VISITDY": 169,
    "SVSTDTC": "2013-06-21",
    "SVENDTC": "2013-06-21"
  },
  {
    "STUDYID": "CDISCPILOT01",
    "DOMAIN": "SV",
    "USUBJID": "01-701-003",
    "SVSEQ": 11,
    "VISITNUM": 11,
    "VISIT": "WEEK 26",
    "VISITDY": 183,
    "SVSTDTC": "2013-06-30",
    "SVENDTC": "2013-06-30"
  },
  {
    "STUDYID": "CDISCPILOT01",
    "DOMAIN": "SV",
    "USUBJID": "01-701-004",
    "SVSEQ": 1,
    "VISITNUM": 1,
    "VISIT": "SCREENING",
    "VISITDY": -14,
    "SVSTDTC": "2013-08-11",
    "SVENDTC": "2013-08-11"
  },
  {
    "STUDYID": "CDISCPILOT01",
    "DOMAIN": "SV",
    "USUBJID": "01-701-004",
    "SVSEQ": 2,
    "VISITNUM": 2,
    "VISIT": "BASELINE",
    "VISITDY": 1,
    "SVSTDTC": "2013-08-27",
    "SVENDTC": "2013-08-27"
  },
  {
    "STUDYID": "CDISCPILOT01",
    "DOMAIN": "SV",
    "USUBJID": "01-701-004",
    "SVSEQ": 3,
    "VISITNUM": 3,
    "VISIT": "WEEK 2",
    "VISITDY": 15,
    "SVSTDTC": "2013-09-05",
    "SVENDTC": "2013-09-05"
  },
  {
    "STUDYID": "CDISCPILOT01",
    "DOMAIN": "SV",
    "USUBJID": "01-701-004",
    "SVSEQ": 4,
    "VISITNUM": 4,
    "VISIT": "WEEK 4",
    "VISITDY": 29,
    "SVSTDTC": "2013-09-20",
    "SVENDTC": "2013-09-20"
  },
  {
    "STUDYID": "CDISCPILOT01",
    "DOMAIN": "SV",
    "USUBJID": "01-701-004",
    "SVSEQ": 5,
    "VISITNUM": 5,
    "VISIT": "WEEK 8",
    "VISITDY": 57,
    "SVSTDTC": "2013-10-20",
    "SVENDTC": "2013-10-20"
  },
  {
    "STUDYID": "CDISCPILOT01",
    "DOMAIN": "SV",
    "USUBJID": "01-701-004",
    "SVSEQ": 6,
    "VISITNUM": 6,
    "VISIT": "WEEK 12",
    "VISITDY": 85,
    "SVSTDTC": "2013-11-17",
    "SVENDTC": "2013-11-17"
  },
  {
    "STUDYID": "CDISCPILOT01",
    "DOMAIN": "SV",
    "USUBJID": "01-701-004",
    "SVSEQ": 7,
    "VISITNUM": 10,
    "VISIT": "END OF TREATMENT",
    "VISITDY": 86,
    "SVSTDTC": "2013-11-21",
    "SVENDTC": "2013-11-21"
  },
  {
    "STUDYID": "CDISCPILOT01",
    "DOMAIN": "SV",
    "USUBJID": "01-701-005",
    "SVSEQ": 1,
    "VISITNUM": 1,
    "VISIT": "SCREENING",
    "VISITDY": -14,
    "SVSTDTC": "2013-01-26",
    "SVENDTC": "2013-01-26"
  },
  {
    "STUDYID": "CDISCPILOT01",
    "DOMAIN": "SV",
    "USUBJID": "01-701-005",
    "SVSEQ": 2,
    "VISITNUM": 2,
    "VISIT": "BASELINE",
    "VISITDY": 1,
    "SVSTDTC": "2013-02-05",
    "SVENDTC": "2013-02-05"
  },
  {
    "STUDYID": "CDISCPILOT01",
    "DOMAIN": "SV",
    "USUBJID": "01-701-005",
    "SVSEQ": 3,
    "VISITNUM": 3,
    "VISIT": "WEEK 2",
    "VISITDY": 15,
    "SVSTDTC": "2013-02-19",
    "SVENDTC": "2013-02-19"
  },
  {
    "STUDYID": "CDISCPILOT01",
    "DOMAIN": "SV",
    "USUBJID": "01-701-005",
    "SVSEQ": 4,
    "VISITNUM": 4,
    "VISIT": "WEEK 4",
    "VISITDY": 29,
    "SVSTDTC": "2013-03-10",
    "SVENDTC": "2013-03-10"
  },
  {
    "STUDYID": "CDISCPILOT01",
    "DOMAIN": "SV",
    "USUBJID": "01-701-005",
    "SVSEQ": 5,
    "VISITNUM": 5,
    "VISIT": "WEEK 8",
    "VISITDY": 57,
    "SVSTDTC": "2013-04-02",
    "SVENDTC": "2013-04-02"
  },
  {
    "STUDYID": "CDISCPILOT01",
    "DOMAIN": "SV",
    "USUBJID": "01-701-005",
    "SVSEQ": 6,
    "VISITNUM": 6,
    "VISIT": "WEEK 12",
    "VISITDY": 85,
    "SVSTDTC": "2013-05-02",
    "SVENDTC": "2013-05-02"
  },
  {
    "STUDYID": "CDISCPILOT01",
    "DOMAIN": "SV",
    "USUBJID": "01-701-005",
    "SVSEQ": 7,
    "VISITNUM": 7,
    "VISIT": "WEEK 16",
    "VISITDY": 113,
    "SVSTDTC": "2013-05-28",
    "SVENDTC": "2013-05-28"
  },
  {
    "STUDYID": "CDISCPILOT01",
    "DOMAIN": "SV",
    "USUBJID": "01-701-005",
    "SVSEQ": 8,
    "VISITNUM": 8,
    "VISIT": "WEEK 20",
    "VISITDY": 141,
    "SVSTDTC": "2013-06-25",
    "SVENDTC": "2013-06-25"
  },
  {
    "STUDYID": "CDISCPILOT01",
    "DOMAIN": "SV",
    "USUBJID": "01-701-005",
    "SVSEQ": 9,
    "VISITNUM": 9,
    "VISIT": "WEEK 24",
    "VISITDY": 169,
    "SVSTDTC": "2013-07-28",
    "SVENDTC": "2013-07-28"
  },
  {
    "STUDYID": "CDISCPILOT01",
    "DOMAIN": "SV",
    "USUBJID": "01-701-005",
    "SVSEQ": 10,
    "VISITNUM": 10,
    "VISIT": "END OF TREATMENT",
    "VISITDY": 169,
    "SVSTDTC": "2013-07-24",
    "SVENDTC": "2013-07-24"
  },
  {
    "STUDYID": "CDISCPILOT01",
    "DOMAIN": "SV",
    "USUBJID": "01-701-005",
    "SVSEQ": 11,
    "VISITNUM": 11,
    "VISIT": "WEEK 26",
    "VISITDY": 183,
    "SVSTDTC": "2013-08-07",
    "SVENDTC": "2013-08-07"
  },
  {
    "STUDYID": "CDISCPILOT01",
    "DOMAIN": "SV",
    "USUBJID": "01-701-006",
    "SVSEQ": 1,
    "VISITNUM": 1,
    "VISIT": "SCREENING",
    "VISITDY": -14,
    "SVSTDTC": "2013-06-06",
    "SVENDTC": "2013-06-06"
  },
  {
    "STUDYID": "CDISCPILOT01",
    "DOMAIN": "SV",
    "USUBJID": "01-701-006",
    "SVSEQ": 2,
    "VISITNUM": 2,
    "VISIT": "BASELINE",
    "VISITDY": 1,
    "SVSTDTC": "2013-06-25",
    "SVENDTC": "2013-06-25"
  },
  {
    "STUDYID": "CDISCPILOT01",
    "DOMAIN": "SV",
    "USUBJID": "01-701-006",
    "SVSEQ": 3,
    "VISITNUM": 3,
    "VISIT": "WEEK 2",
    "VISITDY": 15,
    "SVSTDTC": "2013-07-14",
    "SVENDTC": "2013-07-14"
  },
  {
    "STUDYID": "CDISCPILOT01",
    "DOMAIN": "SV",
    "USUBJID": "01-701-006",
    "SVSEQ": 4,
    "VISITNUM": 4,
    "VISIT": "WEEK 4",
    "VISITDY": 29,
    "SVSTDTC": "2013-07-22",
    "SVENDTC": "2013-07-22"
  },
  {
    "STUDYID": "CDISCPILOT01",
    "DOMAIN": "SV",
    "USUBJID": "01-701-006",
    "SVSEQ": 5,
    "VISITNUM": 5,
    "VISIT": "WEEK 8",
    "VISITDY": 57,
    "SVSTDTC": "2013-08-20",
    "SVENDTC": "2013-08-20"
  },
  {
    "STUDYID": "CDISCPILOT01",
    "DOMAIN": "SV",
    "USUBJID": "01-701-006",
    "SVSEQ": 6,
    "VISITNUM": 6,
    "VISIT": "WEEK 12",
    "VISITDY": 85,
    "SVSTDTC": "2013-09-18",
    "SVENDTC": "2013-09-18"
  },
  {
    "STUDYID": "CDISCPILOT01",
    "DOMAIN": "SV",
    "USUBJID": "01-701-006",
    "SVSEQ": 7,
    "VISITNUM": 7,
    "VISIT": "WEEK 16",
    "VISITDY": 113,
    "SVSTDTC": "2013-10-14",
    "SVENDTC": "2013-10-14"
  },
  {
    "STUDYID": "CDISCPILOT01",
    "DOMAIN": "SV",
    "USUBJID": "01-701-006",
    "SVSEQ": 8,
    "VISITNUM": 8,
    "VISIT": "WEEK 20",
    "VISITDY": 141,
    "SVSTDTC": "2013-11-12",
    "SVENDTC": "2013-11-12"
  },
  {
    "STUDYID": "CDISCPILOT01",
    "DOMAIN": "SV",
    "USUBJID": "01-701-006",
    "SVSEQ": 9,
    "VISITNUM": 9,
    "VISIT": "WEEK 24",
    "VISITDY": 169,
    "SVSTDTC": "2013-12-12",
    "SVENDTC": "2013-12-12"
  },
  {
    "STUDYID": "CDISCPILOT01",
    "DOMAIN": "SV",
    "USUBJID": "01-701-006",
    "SVSEQ": 10,
    "VISITNUM": 10,
    "VISIT": "END OF TREATMENT",
    "VISITDY": 169,
    "SVSTDTC": "2013-12-15",
    "SVENDTC": "2013-12-15"
  },
  {
    "STUDYID": "CDISCPILOT01",
    "DOMAIN": "SV",
    "USUBJID": "01-701-006",
    "SVSEQ": 11,
    "VISITNUM": 11,
    "VISIT": "WEEK 26",
    "VISITDY": 183,
    "SVSTDTC": "2013-12-23",
    "SVENDTC": "2013-12-23"
  },
  {
    "STUDYID": "CDISCPILOT01",
    "DOMAIN": "SV",
    "USUBJID": "01-701-007",
    "SVSEQ": 1,
    "VISITNUM": 1,
    "VISIT": "SCREENING",
    "VISITDY": -14,
    "SVSTDTC": "2013-06-26",
    "SVENDTC": "2013-06-26"
  },
  {
    "STUDYID": "CDISCPILOT01",
    "DOMAIN": "SV",
    "USUBJID": "01-701-007",
    "SVSEQ": 2,
    "VISITNUM": 2,
    "VISIT": "BASELINE",
    "VISITDY": 1,
    "SVSTDTC": "2013-07-18",
    "SVENDTC": "2013-07-18"
  },
  {
    "STUDYID": "CDISCPILOT01",
    "DOMAIN": "SV",
    "USUBJID": "01-701-007",
    "SVSEQ": 3,
    "VISITNUM": 3,
    "VISIT": "WEEK 2",
    "VISITDY": 15,
    "SVSTDTC": "2013-07-27",
    "SVENDTC": "2013-07-27"
  },
  {
    "STUDYID": "CDISCPILOT01",
    "DOMAIN": "SV",
    "USUBJID": "01-701-007",
    "SVSEQ": 4,
    "VISITNUM": 4,
    "VISIT": "WEEK 4",
    "VISITDY": 29,
    "SVSTDTC": "2013-08-14",
    "SVENDTC": "2013-08-14"
  },
  {
    "STUDYID": "CDISCPILOT01",
    "DOMAIN": "SV",
    "USUBJID": "01-701-007",
    "SVSEQ": 5,
    "VISITNUM": 5,
    "VISIT": "WEEK 8",
    "VISITDY": 57,
    "SVSTDTC": "2013-09-07",
    "SVENDTC": "2013-09-07"
  },
  {
    "STUDYID": "CDISCPILOT01",
    "DOMAIN": "SV",
    "USUBJID": "01-701-007",
    "SVSEQ": 6,
    "VISITNUM": 6,
    "VISIT": "WEEK 12",
    "VISITDY": 85,
    "SVSTDTC": "2013-10-09",
    "SVENDTC": "2013-10-09"
  },
  {
    "STUDYID": "CDISCPILOT01",
    "DOMAIN": "SV",
    "USUBJID": "01-701-007",
    "SVSEQ": 7,
    "VISITNUM": 7,
    "VISIT": "WEEK 16",
    "VISITDY": 113,
    "SVSTDTC": "2013-11-04",
    "SVENDTC": "2013-11-04"
  },
  {
    "STUDYID": "CDISCPILOT01",
    "DOMAIN": "SV",
    "USUBJID": "01-701-007",
    "SVSEQ": 8,
    "VISITNUM": 8,
    "VISIT": "WEEK 20",
    "VISITDY": 141,
    "SVSTDTC": "2013-12-02",
    "SVENDTC": "2013-12-02"
  },
  {
    "STUDYID": "CDISCPILOT01",
    "DOMAIN": "SV",
    "USUBJID": "01-701-007",
    "SVSEQ": 9,
    "VISITNUM": 9,
    "VISIT": "WEEK 24",
    "VISITDY": 169,
    "SVSTDTC": "2014-01-02",
    "SVENDTC": "2014-01-02"
  },
  {
    "STUDYID": "CDISCPILOT01",
    "DOMAIN": "SV",
    "USUBJID": "01-701-007",
    "SVSEQ": 10,
    "VISITNUM": 10,
    "VISIT": "END OF TREATMENT",
    "VISITDY": 169,
    "SVSTDTC": "2014-01-02",
    "SVENDTC": "2014-01-02"
  },
  {
    "STUDYID": "CDISCPILOT01",
    "DOMAIN": "SV",
    "USUBJID": "01-701-007",
    "SVSEQ": 11,
    "VISITNUM": 11,
    "VISIT": "WEEK 26",
    "VISITDY": 183,
    "SVSTDTC": "2014-01-13",
    "SVENDTC": "2014-01-13"
  },
  {
    "STUDYID": "CDISCPILOT01",
    "DOMAIN": "SV",
    "USUBJID": "01-701-008",
    "SVSEQ": 1,
    "VISITNUM": 1,
    "VISIT": "SCREENING",
    "VISITDY": -14,
    "SVSTDTC": "2013-11-02",
    "SVENDTC": "2013-11-02"
  },
  {
    "STUDYID": "CDISCPILOT01",
    "DOMAIN": "SV",
    "USUBJID": "01-701-008",
    "SVSEQ": 2,
    "VISITNUM": 2,
    "VISIT": "BASELINE",
    "VISITDY": 1,
    "SVSTDTC": "2013-11-26",
    "SVENDTC": "2013-11-26"
  },
  {
    "STUDYID": "CDISCPILOT01",
    "DOMAIN": "SV",
    "USUBJID": "01-701-008",
    "SVSEQ": 3,
    "VISITNUM": 3,
    "VISIT": "WEEK 2",
    "VISITDY": 15,
    "SVSTDTC": "2013-12-08",
    "SVENDTC": "2013-12-08"
  },
  {
    "STUDYID": "CDISCPILOT01",
    "DOMAIN": "SV",
    "USUBJID": "01-701-008",
    "SVSEQ": 4,
    "VISITNUM": 4,
    "VISIT": "WEEK 4",
    "VISITDY": 29,
    "SVSTDTC": "2013-12-25",
    "SVENDTC": "2013-12-25"
  },
  {
    "STUDYID": "CDISCPILOT01",
    "DOMAIN": "SV",
    "USUBJID": "01-701-008",
    "SVSEQ": 5,
    "VISITNUM": 5,
    "VISIT": "WEEK 8",
    "VISITDY": 57,
    "SVSTDTC": "2014-01-19",
    "SVENDTC": "2014-01-19"
  },
  {
    "STUDYID": "CDISCPILOT01",
    "DOMAIN": "SV",
    "USUBJID": "01-701-008",
    "SVSEQ": 6,
    "VISITNUM": 6,
    "VISIT": "WEEK 12",
    "VISITDY": 85,
    "SVSTDTC": "2014-02-16",
    "SVENDTC": "2014-02-16"
  },
  {
    "STUDYID": "CDISCPILOT01",
    "DOMAIN": "SV",
    "USUBJID": "01-701-008",
    "SVSEQ": 7,
    "VISITNUM": 7,
    "VISIT": "WEEK 16",
    "VISITDY": 113,
    "SVSTDTC": "2014-03-15",
    "SVENDTC": "2014-03-15"
  },
  {
    "STUDYID": "CDISCPILOT01",
    "DOMAIN": "SV",
    "USUBJID": "01-701-008",
    "SVSEQ": 8,
    "VISITNUM": 8,
    "VISIT": "WEEK 20",
    "VISITDY": 141,
    "SVSTDTC": "2014-04-14",
    "SVENDTC": "2014-04-14"
  },
  {
    "STUDYID": "CDISCPILOT01",
    "DOMAIN": "SV",
    "USUBJID": "01-701-008",
    "SVSEQ": 9,
    "VISITNUM": 9,
    "VISIT": "WEEK 24",
    "VISITDY": 169,
    "SVSTDTC": "2014-05-10",
    "SVENDTC": "2014-05-10"
  },
  {
    "STUDYID": "CDISCPILOT01",
    "DOMAIN": "SV",
    "USUBJID": "01-701-008",
    "SVSEQ": 10,
    "VISITNUM": 10,
    "VISIT": "END OF TREATMENT",
    "VISITDY": 169,
    "SVSTDTC": "2014-05-14",
    "SVENDTC": "2014-05-14"
  },
  {
    "STUDYID": "CDISCPILOT01",
    "DOMAIN": "SV",
    "USUBJID": "01-701-008",
    "SVSEQ": 11,
    "VISITNUM": 11,
    "VISIT": "WEEK 26",
    "VISITDY": 183,
    "SVSTDTC": "2014-05-28",
    "SVENDTC": "2014-05-28"
  },
  {
    "STUDYID": "CDISCPILOT01",
    "DOMAIN": "SV",
    "USUBJID": "01-701-009",
    "SVSEQ": 1,
    "VISITNUM": 1,
    "VISIT": "SCREENING",
    "VISITDY": -14,
    "SVSTDTC": "2013-05-24",
    "SVENDTC": "2013-05-24"
  },
  {
    "STUDYID": "CDISCPILOT01",
    "DOMAIN": "SV",
    "USUBJID": "01-701-009",
    "SVSEQ": 2,
    "VISITNUM": 2,
    "VISIT": "BASELINE",
    "VISITDY": 1,
    "SVSTDTC": "2013-06-07",
    "SVENDTC": "2013-06-07"
  },
  {
    "STUDYID": "CDISCPILOT01",
    "DOMAIN": "SV",
    "USUBJID": "01-701-009",
    "SVSEQ": 3,
    "VISITNUM": 3,
    "VISIT": "WEEK 2",
    "VISITDY": 15,
    "SVSTDTC": "2013-06-24",
    "SVENDTC": "2013-06-24"
  },
  {
    "STUDYID": "CDISCPILOT01",
    "DOMAIN": "SV",
    "USUBJID": "01-701-009",
    "SVSEQ": 4,
    "VISITNUM": 4,
    "VISIT": "WEEK 4",
    "VISITDY": 29,
    "SVSTDTC": "2013-07-07",
    "SVENDTC": "2013-07-07"
  },
  {
    "STUDYID": "CDISCPILOT01",
    "DOMAIN": "SV",
    "USUBJID": "01-701-009",
    "SVSEQ": 5,
    "VISITNUM": 10,
    "VISIT": "END OF TREATMENT",
    "VISITDY": 32,
    "SVSTDTC": "2013-07-12",
    "SVENDTC": "2013-07-12"
  },
  {
    "STUDYID": "CDISCPILOT01",
    "DOMAIN": "SV",
    "USUBJID": "01-701-010",
    "SVSEQ": 1,
    "VISITNUM": 1,
    "VISIT": "SCREENING",
    "VISITDY": -14,
    "SVSTDTC": "2013-11-24",
    "SVENDTC": "2013-11-24"
  },
  {
    "STUDYID": "CDISCPILOT01",
    "DOMAIN": "SV",
    "USUBJID": "01-701-010",
    "SVSEQ": 2,
    "VISITNUM": 2,
    "VISIT": "BASELINE",
    "VISITDY": 1,
    "SVSTDTC": "2013-12-02",
    "SVENDTC": "2013-12-02"
  },
  {
    "STUDYID": "CDISCPILOT01",
    "DOMAIN": "SV",
    "USUBJID": "01-701-010",
    "SVSEQ": 3,
    "VISITNUM": 3,
    "VISIT": "WEEK 2",
    "VISITDY": 15,
    "SVSTDTC": "2013-12-16",
    "SVENDTC": "2013-12-16"
  },
  {
    "STUDYID": "CDISCPILOT01",
    "DOMAIN": "SV",
    "USUBJID": "01-701-010",
    "SVSEQ": 4,
    "VISITNUM": 4,
    "VISIT": "WEEK 4",
    "VISITDY": 29,
    "SVSTDTC": "2014-01-02",
    "SVENDTC": "2014-01-02"
  },
  {
    "STUDYID": "CDISCPILOT01",
    "DOMAIN": "SV",
    "USUBJID": "01-701-010",
    "SVSEQ": 5,
    "VISITNUM": 5,
    "VISIT": "WEEK 8",
    "VISITDY": 57,
    "SVSTDTC": "2014-01-30",
    "SVENDTC": "2014-01-30"
  },
  {
    "STUDYID": "CDISCPILOT01",
    "DOMAIN": "SV",
    "USUBJID": "01-701-010",
    "SVSEQ": 6,
    "VISITNUM": 6,
    "VISIT": "WEEK 12",
    "VISITDY": 85,
    "SVSTDTC": "2014-02-25",
    "SVENDTC": "2014-02-25"
  },
  {
    "STUDYID": "CDISCPILOT01",
    "DOMAIN": "SV",
    "USUBJID": "01-701-010",
    "SVSEQ": 7,
    "VISITNUM": 7,
    "VISIT": "WEEK 16",
    "VISITDY": 113,
    "SVSTDTC": "2014-03-25",
    "SVENDTC": "2014-03-25"
  },
  {
    "STUDYID": "CDISCPILOT01",
    "DOMAIN": "SV",
    "USUBJID": "01-701-010",
    "SVSEQ": 8,
    "VISITNUM": 8,
    "VISIT": "WEEK 20",
    "VISITDY": 141,
    "SVSTDTC": "2014-04-22",
    "SVENDTC": "2014-04-22"
  },
  {
    "STUDYID": "CDISCPILOT01",
    "DOMAIN": "SV",
    "USUBJID": "01-701-010",
    "SVSEQ": 9,
    "VISITNUM": 9,
    "VISIT": "WEEK 24",
    "VISITDY": 169,
    "SVSTDTC": "2014-05-23",
    "SVENDTC": "2014-05-23"
  },
  {
    "STUDYID": "CDISCPILOT01",
    "DOMAIN": "SV",
    "USUBJID": "01-701-010",
    "SVSEQ": 10,
    "VISITNUM": 10,
    "VISIT": "END OF TREATMENT",
    "VISITDY": 173,
    "SVSTDTC": "2014-05-27",
    "SVENDTC": "2014-05-27"
  },
  {
    "STUDYID": "CDISCPILOT01",
    "DOMAIN": "SV",
    "USUBJID": "01-701-010",
    "SVSEQ": 11,
    "VISITNUM": 11,
    "VISIT": "WEEK 26",
    "VISITDY": 183,
    "SVSTDTC": "2014-06-05",
    "SVENDTC": "2014-06-05"
  },
  {
    "STUDYID": "CDISCPILOT01",
    "DOMAIN": "SV",
    "USUBJID": "01-701-011",
    "SVSEQ": 1,
    "VISITNUM": 1,
    "VISIT": "SCREENING",
    "VISITDY": -14,
    "SVSTDTC": "2013-07-23",
    "SVENDTC": "2013-07-23"
  },
  {
    "STUDYID": "CDISCPILOT01",
    "DOMAIN": "SV",
    "USUBJID": "01-701-011",
    "SVSEQ": 2,
    "VISITNUM": 2,
    "VISIT": "BASELINE",
    "VISITDY": 1,
    "SVSTDTC": "2013-07-31",
    "SVENDTC": "2013-07-31"
  },
  {
    "STUDYID": "CDISCPILOT01",
    "DOMAIN": "SV",
    "USUBJID": "01-701-011",
    "SVSEQ": 3,
    "VISITNUM": 3,
    "VISIT": "WEEK 2",
    "VISITDY": 15,
    "SVSTDTC": "2013-08-15",
    "SVENDTC": "2013-08-15"
  },
  {
    "STUDYID": "CDISCPILOT01",
    "DOMAIN": "SV",
    "USUBJID": "01-701-011",
    "SVSEQ": 4,
    "VISITNUM": 4,
    "VISIT": "WEEK 4",
    "VISITDY": 29,
    "SVSTDTC": "2013-09-01",
    "SVENDTC": "2013-09-01"
  },
  {
    "STUDYID": "CDISCPILOT01",
    "DOMAIN": "SV",
    "USUBJID": "01-701-011",
    "SVSEQ": 5,
    "VISITNUM": 5,
    "VISIT": "WEEK 8",
    "VISITDY": 57,
    "SVSTDTC": "2013-09-23",
    "SVENDTC": "2013-09-23"
  },
  {
    "STUDYID": "CDISCPILOT01",
    "DOMAIN": "SV",
    "USUBJID": "01-701-011",
    "SVSEQ": 6,
    "VISITNUM": 6,
    "VISIT": "WEEK 12",
    "VISITDY": 85,
    "SVSTDTC": "2013-10-23",
    "SVENDTC": "2013-10-23"
  },
  {
    "STUDYID": "CDISCPILOT01",
    "DOMAIN": "SV",
    "USUBJID": "01-701-011",
    "SVSEQ": 7,
    "VISITNUM": 7,
    "VISIT": "WEEK 16",
    "VISITDY": 113,
    "SVSTDTC": "2013-11-23",
    "SVENDTC": "2013-11-23"
  },
  {
    "STUDYID": "CDISCPILOT01",
    "DOMAIN": "SV",
    "USUBJID": "01-701-011",
    "SVSEQ": 8,
    "VISITNUM": 8,
    "VISIT": "WEEK 20",
    "VISITDY": 141,
    "SVSTDTC": "2013-12-21",
    "SVENDTC": "2013-12-21"
  },
  {
    "STUDYID": "CDISCPILOT01",
    "DOMAIN": "SV",
    "USUBJID": "01-701-011",
    "SVSEQ": 9,
    "VISITNUM": 9,
    "VISIT": "WEEK 24",
    "VISITDY": 169,
    "SVSTDTC": "2014-01-17",
    "SVENDTC": "2014-01-17"
  },
  {
    "STUDYID": "CDISCPILOT01",
    "DOMAIN": "SV",
    "USUBJID": "01-701-011",
    "SVSEQ": 10,
    "VISITNUM": 10,
    "VISIT": "END OF TREATMENT",
    "VISITDY": 169,
    "SVSTDTC": "2014-01-16",
    "SVENDTC": "2014-01-16"
  },
  {
    "STUDYID": "CDISCPILOT01",
    "DOMAIN": "SV",
    "USUBJID": "01-701-011",
    "SVSEQ": 11,
    "VISITNUM": 11,
    "VISIT": "WEEK 26",
    "VISITDY": 183,
    "SVSTDTC": "2014-01-29",
    "SVENDTC": "2014-01-29"
  },
  {
    "STUDYID": "CDISCPILOT01",
    "DOMAIN": "SV",
    "USUBJID": "01-701-012",
    "SVSEQ": 1,
    "VISITNUM": 1,
    "VISIT": "SCREENING",
    "VISITDY": -14,
    "SVSTDTC": "2013-02-21",
    "SVENDTC": "2013-02-21"
  },
  {
    "STUDYID": "CDISCPILOT01",
    "DOMAIN": "SV",
    "USUBJID": "01-701-012",
    "SVSEQ": 2,
    "VISITNUM": 2,
    "VISIT": "BASELINE",
    "VISITDY": 1,
    "SVSTDTC": "2013-03-07",
    "SVENDTC": "2013-03-07"
  },
  {
    "STUDYID": "CDISCPILOT01",
    "DOMAIN": "SV",
    "USUBJID": "01-701-012",
    "SVSEQ": 3,
    "VISITNUM": 3,
    "VISIT": "WEEK 2",
    "VISITDY": 15,
    "SVSTDTC": "2013-03-24",
    "SVENDTC": "2013-03-24"
  },
  {
    "STUDYID": "CDISCPILOT01",
    "DOMAIN": "SV",
    "USUBJID": "01-701-012",
    "SVSEQ": 4,
    "VISITNUM": 4,
    "VISIT": "WEEK 4",
    "VISITDY": 29,
    "SVSTDTC": "2013-04-08",
    "SVENDTC": "2013-04-08"
  },
  {
    "STUDYID": "CDISCPILOT01",
    "DOMAIN": "SV",
    "USUBJID": "01-701-012",
    "SVSEQ": 5,
    "VISITNUM": 5,
    "VISIT": "WEEK 8",
    "VISITDY": 57,
    "SVSTDTC": "2013-05-05",
    "SVENDTC": "2013-05-05"
  },
  {
    "STUDYID": "CDISCPILOT01",
    "DOMAIN": "SV",
    "USUBJID": "01-701-012",
    "SVSEQ": 6,
    "VISITNUM": 6,
    "VISIT": "WEEK 12",
    "VISITDY": 85,
    "SVSTDTC": "2013-06-02",
    "SVENDTC": "2013-06-02"
  },
  {
    "STUDYID": "CDISCPILOT01",
    "DOMAIN": "SV",
    "USUBJID": "01-701-012",
    "SVSEQ": 7,
    "VISITNUM": 7,
    "VISIT": "WEEK 16",
    "VISITDY": 113,
    "SVSTDTC": "2013-07-02",
    "SVENDTC": "2013-07-02"
  },
  {
    "STUDYID": "CDISCPILOT01",
    "DOMAIN": "SV",
    "USUBJID": "01-701-012",
    "SVSEQ": 8,
    "VISITNUM": 8,
    "VISIT": "WEEK 20",
    "VISITDY": 141,
    "SVSTDTC": "2013-07-28",
    "SVENDTC": "2013-07-28"
  },
  {
    "STUDYID": "CDISCPILOT01",
    "DOMAIN": "SV",
    "USUBJID": "01-701-012",
    "SVSEQ": 9,
    "VISITNUM": 9,
    "VISIT": "WEEK 24",
    "VISITDY": 169,
    "SVSTDTC": "2013-08-22",
    "SVENDTC": "2013-08-22"
  },
  {
    "STUDYID": "CDISCPILOT01",
    "DOMAIN": "SV",
    "USUBJID": "01-701-012",
    "SVSEQ": 10,
    "VISITNUM": 10,
    "VISIT": "END OF TREATMENT",
    "VISITDY": 169,
    "SVSTDTC": "2013-08-25",
    "SVENDTC": "2013-08-25"
  },
  {
    "STUDYID": "CDISCPILOT01",
    "DOMAIN": "SV",
    "USUBJID": "01-701-012",
    "SVSEQ": 11,
    "VISITNUM": 11,
    "VISIT": "WEEK 26",
    "VISITDY": 183,
    "SVSTDTC": "2013-09-04",
    "SVENDTC": "2013-09-04"
  },
  {
    "STUDYID": "CDISCPILOT01",
    "DOMAIN": "SV",
    "USUBJID": "01-701-013",
    "SVSEQ": 1,
    "VISITNUM": 1,
    "VISIT": "SCREENING",
    "VISITDY": -14,
    "SVSTDTC": "2013-10-05",
    "SVENDTC": "2013-10-05"
  },
  {
    "STUDYID": "CDISCPILOT01",
    "DOMAIN": "SV",
    "USUBJID": "01-701-013",
    "SVSEQ": 2,
    "VISITNUM": 2,
    "VISIT": "BASELINE",
    "VISITDY": 1,
    "SVSTDTC": "2013-10-25",
    "SVENDTC": "2013-10-25"
  },
  {
    "STUDYID": "CDISCPILOT01",
    "DOMAIN": "SV",
    "USUBJID": "01-701-013",
    "SVSEQ": 3,
    "VISITNUM": 3,
    "VISIT": "WEEK 2",
    "VISITDY": 15,
    "SVSTDTC": "2013-11-03",
    "SVENDTC": "2013-11-03"
  },
  {
    "STUDYID": "CDISCPILOT01",
    "DOMAIN": "SV",
    "USUBJID": "01-701-013",
    "SVSEQ": 4,
    "VISITNUM": 4,
    "VISIT": "WEEK 4",
    "VISITDY": 29,
    "SVSTDTC": "2013-11-19",
    "SVENDTC": "2013-11-19"
  },
  {
    "STUDYID": "CDISCPILOT01",
    "DOMAIN": "SV",
    "USUBJID": "01-701-013",
    "SVSEQ": 5,
    "VISITNUM": 5,
    "VISIT": "WEEK 8",
    "VISITDY": 57,
    "SVSTDTC": "2013-12-19",
    "SVENDTC": "2013-12-19"
  },
  {
    "STUDYID": "CDISCPILOT01",
    "DOMAIN": "SV",
    "USUBJID": "01-701-013",
    "SVSEQ": 6,
    "VISITNUM": 10,
    "VISIT": "END OF TREATMENT",
    "VISITDY": 59,
    "SVSTDTC": "2013-12-22",
    "SVENDTC": "2013-12-22"
  },
  {
    "STUDYID": "CDISCPILOT01",
    "DOMAIN": "SV",
    "USUBJID": "01-701-014",
    "SVSEQ": 1,
    "VISITNUM": 1,
    "VISIT": "SCREENING",
    "VISITDY": -14,
    "SVSTDTC": "2013-11-22",
    "SVENDTC": "2013-11-22"
  },
  {
    "STUDYID": "CDISCPILOT01",
    "DOMAIN": "SV",
    "USUBJID": "01-701-014",
    "SVSEQ": 2,
    "VISITNUM": 2,
    "VISIT": "BASELINE",
    "VISITDY": 1,
    "SVSTDTC": "2013-12-09",
    "SVENDTC": "2013-12-09"
  },
  {
    "STUDYID": "CDISCPILOT01",
    "DOMAIN": "SV",
    "USUBJID": "01-701-014",
    "SVSEQ": 3,
    "VISITNUM": 3,
    "VISIT": "WEEK 2",
    "VISITDY": 15,
    "SVSTDTC": "2013-12-19",
    "SVENDTC": "2013-12-19"
  },
  {
    "STUDYID": "CDISCPILOT01",
    "DOMAIN": "SV",
    "USUBJID": "01-701-014",
    "SVSEQ": 4,
    "VISITNUM": 4,
    "VISIT": "WEEK 4",
    "VISITDY": 29,
    "SVSTDTC": "2014-01-07",
    "SVENDTC": "2014-01-07"
  },
  {
    "STUDYID": "CDISCPILOT01",
    "DOMAIN": "SV",
    "USUBJID": "01-701-014",
    "SVSEQ": 5,
    "VISITNUM": 5,
    "VISIT": "WEEK 8",
    "VISITDY": 57,
    "SVSTDTC": "2014-02-01",
    "SVENDTC": "2014-02-01"
  },
  {
    "STUDYID": "CDISCPILOT01",
    "DOMAIN": "SV",
    "USUBJID": "01-701-014",
    "SVSEQ": 6,
    "VISITNUM": 6,
    "VISIT": "WEEK 12",
    "VISITDY": 85,
    "SVSTDTC": "2014-03-02",
    "SVENDTC": "2014-03-02"
  },
  {
    "STUDYID": "CDISCPILOT01",
    "DOMAIN": "SV",
    "USUBJID": "01-701-014",
    "SVSEQ": 7,
    "VISITNUM": 7,
    "VISIT": "WEEK 16",
    "VISITDY": 113,
    "SVSTDTC": "2014-03-28",
    "SVENDTC": "2014-03-28"
  },
  {
    "STUDYID": "CDISCPILOT01",
    "DOMAIN": "SV",
    "USUBJID": "01-701-014",
    "SVSEQ": 8,
    "VISITNUM": 8,
    "VISIT": "WEEK 20",
    "VISITDY": 141,
    "SVSTDTC": "2014-04-25",
    "SVENDTC": "2014-04-25"
  },
  {
    "STUDYID": "CDISCPILOT01",
    "DOMAIN": "SV",
    "USUBJID": "01-701-014",
    "SVSEQ": 9,
    "VISITNUM": 10,
    "VISIT": "END OF TREATMENT",
    "VISITDY": 148,
    "SVSTDTC": "2014-05-06",
    "SVENDTC": "2014-05-06"
  },
  {
    "STUDYID": "CDISCPILOT01",
    "DOMAIN": "SV",
    "USUBJID": "01-701-014",
    "SVSEQ": 10,
    "VISITNUM": 11,
    "VISIT": "WEEK 26",
    "VISITDY": 183,
    "SVSTDTC": "2014-06-06",
    "SVENDTC": "2014-06-06"
  },
  {
    "STUDYID": "CDISCPILOT01",
    "DOMAIN": "SV",
    "USUBJID": "01-701-015",
    "SVSEQ": 1,
    "VISITNUM": 1,
    "VISIT": "SCREENING",
    "VISITDY": -14,
    "SVSTDTC": "2013-06-16",
    "SVENDTC": "2013-06-16"
  },
  {
    "STUDYID": "CDISCPILOT01",
    "DOMAIN": "SV",
    "USUBJID": "01-701-015",
    "SVSEQ": 2,
    "VISITNUM": 2,
    "VISIT": "BASELINE",
    "VISITDY": 1,
    "SVSTDTC": "2013-07-01",
    "SVENDTC": "2013-07-01"
  },
  {
    "STUDYID": "CDISCPILOT01",
    "DOMAIN": "SV",
    "USUBJID": "01-701-015",
    "SVSEQ": 3,
    "VISITNUM": 3,
    "VISIT": "WEEK 2",
    "VISITDY": 15,
    "SVSTDTC": "2013-07-13",
    "SVENDTC": "2013-07-13"
  },
  {
    "STUDYID": "CDISCPILOT01",
    "DOMAIN": "SV",
    "USUBJID": "01-701-015",
    "SVSEQ": 4,
    "VISITNUM": 4,
    "VISIT": "WEEK 4",
    "VISITDY": 29,
    "SVSTDTC": "2013-07-27",
    "SVENDTC": "2013-07-27"
  },
  {
    "STUDYID": "CDISCPILOT01",
    "DOMAIN": "SV",
    "USUBJID": "01-701-015",
    "SVSEQ": 5,
    "VISITNUM": 5,
    "VISIT": "WEEK 8",
    "VISITDY": 57,
    "SVSTDTC": "2013-08-24",
    "SVENDTC": "2013-08-24"
  },
  {
    "STUDYID": "CDISCPILOT01",
    "DOMAIN": "SV",
    "USUBJID": "01-701-015",
    "SVSEQ": 6,
    "VISITNUM": 6,
    "VISIT": "WEEK 12",
    "VISITDY": 85,
    "SVSTDTC": "2013-09-25",
    "SVENDTC": "2013-09-25"
  },
  {
    "STUDYID": "CDISCPILOT01",
    "DOMAIN": "SV",
    "USUBJID": "01-701-015",
    "SVSEQ": 7,
    "VISITNUM": 7,
    "VISIT": "WEEK 16",
    "VISITDY": 113,
    "SVSTDTC": "2013-10-22",
    "SVENDTC": "2013-10-22"
  },
  {
    "STUDYID": "CDISCPILOT01",
    "DOMAIN": "SV",
    "USUBJID": "01-701-015",
    "SVSEQ": 8,
    "VISITNUM": 8,
    "VISIT": "WEEK 20",
    "VISITDY": 141,
    "SVSTDTC": "2013-11-17",
    "SVENDTC": "2013-11-17"
  },
  {
    "STUDYID": "CDISCPILOT01",
    "DOMAIN": "SV",
    "USUBJID": "01-701-015",
    "SVSEQ": 9,
    "VISITNUM": 9,
    "VISIT": "WEEK 24",
    "VISITDY": 169,
    "SVSTDTC": "2013-12-14",
    "SVENDTC": "2013-12-14"
  },
  {
    "STUDYID": "CDISCPILOT01",
    "DOMAIN": "SV",
    "USUBJID": "01-701-015",
    "SVSEQ": 10,
    "VISITNUM": 10,
    "VISIT": "END OF TREATMENT",
    "VISITDY": 169,
    "SVSTDTC": "2013-12-18",
    "SVENDTC": "2013-12-18"
  },
  {
    "STUDYID": "CDISCPILOT01",
    "DOMAIN": "SV",
    "USUBJID": "01-701-015",
    "SVSEQ": 11,
    "VISITNUM": 11,
    "VISIT": "WEEK 26",
    "VISITDY": 183,
    "SVSTDTC": "2013-12-29",
    "SVENDTC": "2013-12-29"
  },
  {
    "STUDYID": "CDISCPILOT01",
    "DOMAIN": "SV",
    "USUBJID": "01-701-016",
    "SVSEQ": 1,
    "VISITNUM": 1,
    "VISIT": "SCREENING",
    "VISITDY": -14,
    "SVSTDTC": "2013-08-24",
    "SVENDTC": "2013-08-24"
  },
  {
    "STUDYID": "CDISCPILOT01",
    "DOMAIN": "SV",
    "USUBJID": "01-701-016",
    "SVSEQ": 2,
    "VISITNUM": 2,
    "VISIT": "BASELINE",
    "VISITDY": 1,
    "SVSTDTC": "2013-09-15",
    "SVENDTC": "2013-09-15"
  },
  {
    "STUDYID": "CDISCPILOT01",
    "DOMAIN": "SV",
    "USUBJID": "01-701-016",
    "SVSEQ": 3,
    "VISITNUM": 3,
    "VISIT": "WEEK 2",
    "VISITDY": 15,
    "SVSTDTC": "2013-09-28",
    "SVENDTC": "2013-09-28"
  },
  {
    "STUDYID": "CDISCPILOT01",
    "DOMAIN": "SV",
    "USUBJID": "01-701-016",
    "SVSEQ": 4,
    "VISITNUM": 4,
    "VISIT": "WEEK 4",
    "VISITDY": 29,
    "SVSTDTC": "2013-10-09",
    "SVENDTC": "2013-10-09"
  },
  {
    "STUDYID": "CDISCPILOT01",
    "DOMAIN": "SV",
    "USUBJID": "01-701-016",
    "SVSEQ": 5,
    "VISITNUM": 5,
    "VISIT": "WEEK 8",
    "VISITDY": 57,
    "SVSTDTC": "2013-11-10",
    "SVENDTC": "2013-11-10"
  },
  {
    "STUDYID": "CDISCPILOT01",
    "DOMAIN": "SV",
    "USUBJID": "01-701-016",
    "SVSEQ": 6,
    "VISITNUM": 6,
    "VISIT": "WEEK 12",
    "VISITDY": 85,
    "SVSTDTC": "2013-12-07",
    "SVENDTC": "2013-12-07"
  },
  {
    "STUDYID": "CDISCPILOT01",
    "DOMAIN": "SV",
    "USUBJID": "01-701-016",
    "SVSEQ": 7,
    "VISITNUM": 7,
    "VISIT": "WEEK 16",
    "VISITDY": 113,
    "SVSTDTC": "2014-01-04",
    "SVENDTC": "2014-01-04"
  },
  {
    "STUDYID": "CDISCPILOT01",
    "DOMAIN": "SV",
    "USUBJID": "01-701-016",
    "SVSEQ": 8,
    "VISITNUM": 8,
    "VISIT": "WEEK 20",
    "VISITDY": 141,
    "SVSTDTC": "2014-01-29",
    "SVENDTC": "2014-01-29"
  },
  {
    "STUDYID": "CDISCPILOT01",
    "DOMAIN": "SV",
    "USUBJID": "01-701-016",
    "SVSEQ": 9,
    "VISITNUM": 9,
    "VISIT": "WEEK 24",
    "VISITDY": 169,
    "SVSTDTC": "2014-03-02",
    "SVENDTC": "2014-03-02"
  },
  {
    "STUDYID": "CDISCPILOT01",
    "DOMAIN": "SV",
    "USUBJID": "01-701-016",
    "SVSEQ": 10,
    "VISITNUM": 10,
    "VISIT": "END OF TREATMENT",
    "VISITDY": 169,
    "SVSTDTC": "2014-03-04",
    "SVENDTC": "2014-03-04"
  },
  {
    "STUDYID": "CDISCPILOT01",
    "DOMAIN": "SV",
    "USUBJID": "01-701-016",
    "SVSEQ": 11,
    "VISITNUM": 11,
    "VISIT": "WEEK 26",
    "VISITDY": 183,
    "SVSTDTC": "2014-03-18",
    "SVENDTC": "2014-03-18"
  },
  {
    "STUDYID": "CDISCPILOT01",
    "DOMAIN": "SV",
    "USUBJID": "01-701-017",
    "SVSEQ": 1,
    "VISITNUM": 1,
    "VISIT": "SCREENING",
    "VISITDY": -14,
    "SVSTDTC": "2013-05-08",
    "SVENDTC": "2013-05-08"
  },
  {
    "STUDYID": "CDISCPILOT01",
    "DOMAIN": "SV",
    "USUBJID": "01-701-017",
    "SVSEQ": 2,
    "VISITNUM": 2,
    "VISIT": "BASELINE",
    "VISITDY": 1,
    "SVSTDTC": "2013-05-27",
    "SVENDTC": "2013-05-27"
  },
  {
    "STUDYID": "CDISCPILOT01",
    "DOMAIN": "SV",
    "USUBJID": "01-701-017",
    "SVSEQ": 3,
    "VISITNUM": 3,
    "VISIT": "WEEK 2",
    "VISITDY": 15,
    "SVSTDTC": "2013-06-15",
    "SVENDTC": "2013-06-15"
  },
  {
    "STUDYID": "CDISCPILOT01",
    "DOMAIN": "SV",
    "USUBJID": "01-701-017",
    "SVSEQ": 4,
    "VISITNUM": 4,
    "VISIT": "WEEK 4",
    "VISITDY": 29,
    "SVSTDTC": "2013-06-29",
    "SVENDTC": "2013-06-29"
  },
  {
    "STUDYID": "CDISCPILOT01",
    "DOMAIN": "SV",
    "USUBJID": "01-701-017",
    "SVSEQ": 5,
    "VISITNUM": 5,
    "VISIT": "WEEK 8",
    "VISITDY": 57,
    "SVSTDTC": "2013-07-26",
    "SVENDTC": "2013-07-26"
  },
  {
    "STUDYID": "CDISCPILOT01",
    "DOMAIN": "SV",
    "USUBJID": "01-701-017",
    "SVSEQ": 6,
    "VISITNUM": 6,
    "VISIT": "WEEK 12",
    "VISITDY": 85,
    "SVSTDTC": "2013-08-19",
    "SVENDTC": "2013-08-19"
  },
  {
    "STUDYID": "CDISCPILOT01",
    "DOMAIN": "SV",
    "USUBJID": "01-701-017",
    "SVSEQ": 7,
    "VISITNUM": 7,
    "VISIT": "WEEK 16",
    "VISITDY": 113,
    "SVSTDTC": "2013-09-21",
    "SVENDTC": "2013-09-21"
  },
  {
    "STUDYID": "CDISCPILOT01",
    "DOMAIN": "SV",
    "USUBJID": "01-701-017",
    "SVSEQ": 8,
    "VISITNUM": 8,
    "VISIT": "WEEK 20",
    "VISITDY": 141,
    "SVSTDTC": "2013-10-18",
    "SVENDTC": "2013-10-18"
  },
  {
    "STUDYID": "CDISCPILOT01",
    "DOMAIN": "SV",
    "USUBJID": "01-701-017",
    "SVSEQ": 9,
    "VISITNUM": 9,
    "VISIT": "WEEK 24",
    "VISITDY": 169,
    "SVSTDTC": "2013-11-12",
    "SVENDTC": "2013-11-12"
  },
  {
    "STUDYID": "CDISCPILOT01",
    "DOMAIN": "SV",
    "USUBJID": "01-701-017",
    "SVSEQ": 10,
    "VISITNUM": 10,
    "VISIT": "END OF TREATMENT",
    "VISITDY": 169,
    "SVSTDTC": "2013-11-15",
    "SVENDTC": "2013-11-15"
  },
  {
    "STUDYID": "CDISCPILOT01",
    "DOMAIN": "SV",
    "USUBJID": "01-701-017",
    "SVSEQ": 11,
    "VISITNUM": 11,
    "VISIT": "WEEK 26",
    "VISITDY": 183,
    "SVSTDTC": "2013-11-28",
    "SVENDTC": "2013-11-28"
  },
  {
    "STUDYID": "CDISCPILOT01",
    "DOMAIN": "SV",
    "USUBJID": "01-701-018",
    "SVSEQ": 1,
    "VISITNUM": 1,
    "VISIT": "SCREENING",
    "VISITDY": -14,
    "SVSTDTC": "2013-03-30",
    "SVENDTC": "2013-03-30"
  },
  {
    "STUDYID": "CDISCPILOT01",
    "DOMAIN": "SV",
    "USUBJID": "01-701-018",
    "SVSEQ": 2,
    "VISITNUM": 2,
    "VISIT": "BASELINE",
    "VISITDY": 1,
    "SVSTDTC": "2013-04-14",
    "SVENDTC": "2013-04-14"
  },
  {
    "STUDYID": "CDISCPILOT01",
    "DOMAIN": "SV",
    "USUBJID": "01-701-018",
    "SVSEQ": 3,
    "VISITNUM": 3,
    "VISIT": "WEEK 2",
    "VISITDY": 15,
    "SVSTDTC": "2013-04-28",
    "SVENDTC": "2013-04-28"
  },
  {
    "STUDYID": "CDISCPILOT01",
    "DOMAIN": "SV",
    "USUBJID": "01-701-018",
    "SVSEQ": 4,
    "VISITNUM": 4,
    "VISIT": "WEEK 4",
    "VISITDY": 29,
    "SVSTDTC": "2013-05-14",
    "SVENDTC": "2013-05-14"
  },
  {
    "STUDYID": "CDISCPILOT01",
    "DOMAIN": "SV",
    "USUBJID": "01-701-018",
    "SVSEQ": 5,
    "VISITNUM": 5,
    "VISIT": "WEEK 8",
    "VISITDY": 57,
    "SVSTDTC": "2013-06-11",
    "SVENDTC": "2013-06-11"
  },
  {
    "STUDYID": "CDISCPILOT01",
    "DOMAIN": "SV",
    "USUBJID": "01-701-018",
    "SVSEQ": 6,
    "VISITNUM": 6,
    "VISIT": "WEEK 12",
    "VISITDY": 85,
    "SVSTDTC": "2013-07-09",
    "SVENDTC": "2013-07-09"
  },
  {
    "STUDYID": "CDISCPILOT01",
    "DOMAIN": "SV",
    "USUBJID": "01-701-018",
    "SVSEQ": 7,
    "VISITNUM": 7,
    "VISIT": "WEEK 16",
    "VISITDY": 113,
    "SVSTDTC": "2013-08-02",
    "SVENDTC": "2013-08-02"
  },
  {
    "STUDYID": "CDISCPILOT01",
    "DOMAIN": "SV",
    "USUBJID": "01-701-018",
    "SVSEQ": 8,
    "VISITNUM": 8,
    "VISIT": "WEEK 20",
    "VISITDY": 141,
    "SVSTDTC": "2013-09-01",
    "SVENDTC": "2013-09-01"
  },
  {
    "STUDYID": "CDISCPILOT01",
    "DOMAIN": "SV",
    "USUBJID": "01-701-018",
    "SVSEQ": 9,
    "VISITNUM": 9,
    "VISIT": "WEEK 24",
    "VISITDY": 169,
    "SVSTDTC": "2013-09-28",
    "SVENDTC": "2013-09-28"
  },
  {
    "STUDYID": "CDISCPILOT01",
    "DOMAIN": "SV",
    "USUBJID": "01-701-018",
    "SVSEQ": 10,
    "VISITNUM": 10,
    "VISIT": "END OF TREATMENT",
    "VISITDY": 169,
    "SVSTDTC": "2013-09-30",
    "SVENDTC": "2013-09-30"
  },
  {
    "STUDYID": "CDISCPILOT01",
    "DOMAIN": "SV",
    "USUBJID": "01-701-018",
    "SVSEQ": 11,
    "VISITNUM": 11,
    "VISIT": "WEEK 26",
    "VISITDY": 183,
    "SVSTDTC": "2013-10-13",
    "SVENDTC": "2013-10-13"
  },
  {
    "STUDYID": "CDISCPILOT01",
    "DOMAIN": "SV",
    "USUBJID": "01-701-019",
    "SVSEQ": 1,
    "VISITNUM": 1,
    "VISIT": "SCREENING",
    "VISITDY": -14,
    "SVSTDTC": "2013-03-28",
    "SVENDTC": "2013-03-28"
  },
  {
    "STUDYID": "CDISCPILOT01",
    "DOMAIN": "SV",
    "USUBJID": "01-701-019",
    "SVSEQ": 2,
    "VISITNUM": 2,
    "VISIT": "BASELINE",
    "VISITDY": 1,
    "SVSTDTC": "2013-04-12",
    "SVENDTC": "2013-04-12"
  },
  {
    "STUDYID": "CDISCPILOT01",
    "DOMAIN": "SV",
    "USUBJID": "01-701-019",
    "SVSEQ": 3,
    "VISITNUM": 3,
    "VISIT": "WEEK 2",
    "VISITDY": 15,
    "SVSTDTC": "2013-05-02",
    "SVENDTC": "2013-05-02"
  },
  {
    "STUDYID": "CDISCPILOT01",
    "DOMAIN": "SV",
    "USUBJID": "01-701-019",
    "SVSEQ": 4,
    "VISITNUM": 10,
    "VISIT": "END OF TREATMENT",
    "VISITDY": 17,
    "SVSTDTC": "2013-04-29",
    "SVENDTC": "2013-04-29"
  },
  {
    "STUDYID": "CDISCPILOT01",
    "DOMAIN": "SV",
    "USUBJID": "01-701-020",
    "SVSEQ": 1,
    "VISITNUM": 1,
    "VISIT": "SCREENING",
    "VISITDY": -14,
    "SVSTDTC": "2013-03-31",
    "SVENDTC": "2013-03-31"
  },
  {
    "STUDYID": "CDISCPILOT01",
    "DOMAIN": "SV",
    "USUBJID": "01-701-020",
    "SVSEQ": 2,
    "VISITNUM": 2,
    "VISIT": "BASELINE",
    "VISITDY": 1,
    "SVSTDTC": "2013-04-09",
    "SVENDTC": "2013-04-09"
  },
  {
    "STUDYID": "CDISCPILOT01",
    "DOMAIN": "SV",
    "USUBJID": "01-701-020",
    "SVSEQ": 3,
    "VISITNUM": 3,
    "VISIT": "WEEK 2",
    "VISITDY": 15,
    "SVSTDTC": "2013-04-25",
    "SVENDTC": "2013-04-25"
  },
  {
    "STUDYID": "CDISCPILOT01",
    "DOMAIN": "SV",
    "USUBJID": "01-701-020",
    "SVSEQ": 4,
    "VISITNUM": 4,
    "VISIT": "WEEK 4",
    "VISITDY": 29,
    "SVSTDTC": "2013-05-07",
    "SVENDTC": "2013-05-07"
  },
  {
    "STUDYID": "CDISCPILOT01",
    "DOMAIN": "SV",
    "USUBJID": "01-701-020",
    "SVSEQ": 5,
    "VISITNUM": 5,
    "VISIT": "WEEK 8",
    "VISITDY": 57,
    "SVSTDTC": "2013-06-07",
    "SVENDTC": "2013-06-07"
  },
  {
    "STUDYID": "CDISCPILOT01",
    "DOMAIN": "SV",
    "USUBJID": "01-701-020",
    "SVSEQ": 6,
    "VISITNUM": 6,
    "VISIT": "WEEK 12",
    "VISITDY": 85,
    "SVSTDTC": "2013-07-07",
    "SVENDTC": "2013-07-07"
  },
  {
    "STUDYID": "CDISCPILOT01",
    "DOMAIN": "SV",
    "USUBJID": "01-701-020",
    "SVSEQ": 7,
    "VISITNUM": 7,
    "VISIT": "WEEK 16",
    "VISITDY": 113,
    "SVSTDTC": "2013-08-04",
    "SVENDTC": "2013-08-04"
  },
  {
    "STUDYID": "CDISCPILOT01",
    "DOMAIN": "SV",
    "USUBJID": "01-701-020",
    "SVSEQ": 8,
    "VISITNUM": 8,
    "VISIT": "WEEK 20",
    "VISITDY": 141,
    "SVSTDTC": "2013-08-28",
    "SVENDTC": "2013-08-28"
  },
  {
    "STUDYID": "CDISCPILOT01",
    "DOMAIN": "SV",
    "USUBJID": "01-701-020",
    "SVSEQ": 9,
    "VISITNUM": 9,
    "VISIT": "WEEK 24",
    "VISITDY": 169,
    "SVSTDTC": "2013-09-28",
    "SVENDTC": "2013-09-28"
  },
  {
    "STUDYID": "CDISCPILOT01",
    "DOMAIN": "SV",
    "USUBJID": "01-701-020",
    "SVSEQ": 10,
    "VISITNUM": 10,
    "VISIT": "END OF TREATMENT",
    "VISITDY": 169,
    "SVSTDTC": "2013-09-27",
    "SVENDTC": "2013-09-27"
  },
  {
    "STUDYID": "CDISCPILOT01",
    "DOMAIN": "SV",
    "USUBJID": "01-701-020",
    "SVSEQ": 11,
    "VISITNUM": 11,
    "VISIT": "WEEK 26",
    "VISITDY": 183,
    "SVSTDTC": "2013-10-09",
    "SVENDTC": "2013-10-09"
  },
  {
    "STUDYID": "CDISCPILOT01",
    "DOMAIN": "SV",
    "USUBJID": "01-701-021",
    "SVSEQ": 1,
    "VISITNUM": 1,
    "VISIT": "SCREENING",
    "VISITDY": -14,
    "SVSTDTC": "2013-03-25",
    "SVENDTC": "2013-03-25"
  },
  {
    "STUDYID": "CDISCPILOT01",
    "DOMAIN": "SV",
    "USUBJID": "01-701-021",
    "SVSEQ": 2,
    "VISITNUM": 2,
    "VISIT": "BASELINE",
    "VISITDY": 1,
    "SVSTDTC": "2013-04-17",
    "SVENDTC": "2013-04-17"
  },
  {
    "STUDYID": "CDISCPILOT01",
    "DOMAIN": "SV",
    "USUBJID": "01-701-021",
    "SVSEQ": 3,
    "VISITNUM": 3,
    "VISIT": "WEEK 2",
    "VISITDY": 15,
    "SVSTDTC": "2013-04-25",
    "SVENDTC": "2013-04-25"
  },
  {
    "STUDYID": "CDISCPILOT01",
    "DOMAIN": "SV",
    "USUBJID": "01-701-021",
    "SVSEQ": 4,
    "VISITNUM": 4,
    "VISIT": "WEEK 4",
    "VISITDY": 29,
    "SVSTDTC": "2013-05-09",
    "SVENDTC": "2013-05-09"
  },
  {
    "STUDYID": "CDISCPILOT01",
    "DOMAIN": "SV",
    "USUBJID": "01-701-021",
    "SVSEQ": 5,
    "VISITNUM": 5,
    "VISIT": "WEEK 8",
    "VISITDY": 57,
    "SVSTDTC": "2013-06-07",
    "SVENDTC": "2013-06-07"
  },
  {
    "STUDYID": "CDISCPILOT01",
    "DOMAIN": "SV",
    "USUBJID": "01-701-021",
    "SVSEQ": 6,
    "VISITNUM": 6,
    "VISIT": "WEEK 12",
    "VISITDY": 85,
    "SVSTDTC": "2013-07-09",
    "SVENDTC": "2013-07-09"
  },
  {
    "STUDYID": "CDISCPILOT01",
    "DOMAIN": "SV",
    "USUBJID": "01-701-021",
    "SVSEQ": 7,
    "VISITNUM": 7,
    "VISIT": "WEEK 16",
    "VISITDY": 113,
    "SVSTDTC": "2013-08-01",
    "SVENDTC": "2013-08-01"
  },
  {
    "STUDYID": "CDISCPILOT01",
    "DOMAIN": "SV",
    "USUBJID": "01-701-021",
    "SVSEQ": 8,
    "VISITNUM": 8,
    "VISIT": "WEEK 20",
    "VISITDY": 141,
    "SVSTDTC": "2013-09-03",
    "SVENDTC": "2013-09-03"
  },
  {
    "STUDYID": "CDISCPILOT01",
    "DOMAIN": "SV",
    "USUBJID": "01-701-021",
    "SVSEQ": 9,
    "VISITNUM": 9,
    "VISIT": "WEEK 24",
    "VISITDY": 169,
    "SVSTDTC": "2013-09-29",
    "SVENDTC": "2013-09-29"
  },
  {
    "STUDYID": "CDISCPILOT01",
    "DOMAIN": "SV",
    "USUBJID": "01-701-021",
    "SVSEQ": 10,
    "VISITNUM": 10,
    "VISIT": "END OF TREATMENT",
    "VISITDY": 169,
    "SVSTDTC": "2013-09-27",
    "SVENDTC": "2013-09-27"
  },
  {
    "STUDYID": "CDISCPILOT01",
    "DOMAIN": "SV",
    "USUBJID": "01-701-021",
    "SVSEQ": 11,
    "VISITNUM": 11,
    "VISIT": "WEEK 26",
    "VISITDY": 183,
    "SVSTDTC": "2013-10-11",
    "SVENDTC": "2013-10-11"
  },
  {
    "STUDYID": "CDISCPILOT01",
    "DOMAIN": "SV",
    "USUBJID": "01-701-022",
    "SVSEQ": 1,
    "VISITNUM": 1,
    "VISIT": "SCREENING",
    "VISITDY": -14,
    "SVSTDTC": "2013-09-09",
    "SVENDTC": "2013-09-09"
  },
  {
    "STUDYID": "CDISCPILOT01",
    "DOMAIN": "SV",
    "USUBJID": "01-701-022",
    "SVSEQ": 2,
    "VISITNUM": 2,
    "VISIT": "BASELINE",
    "VISITDY": 1,
    "SVSTDTC": "2013-10-03",
    "SVENDTC": "2013-10-03"
  },
  {
    "STUDYID": "CDISCPILOT01",
    "DOMAIN": "SV",
    "USUBJID": "01-701-022",
    "SVSEQ": 3,
    "VISITNUM": 3,
    "VISIT": "WEEK 2",
    "VISITDY": 15,
    "SVSTDTC": "2013-10-15",
    "SVENDTC": "2013-10-15"
  },
  {
    "STUDYID": "CDISCPILOT01",
    "DOMAIN": "SV",
    "USUBJID": "01-701-022",
    "SVSEQ": 4,
    "VISITNUM": 4,
    "VISIT": "WEEK 4",
    "VISITDY": 29,
    "SVSTDTC": "2013-10-29",
    "SVENDTC": "2013-10-29"
  },
  {
    "STUDYID": "CDISCPILOT01",
    "DOMAIN": "SV",
    "USUBJID": "01-701-022",
    "SVSEQ": 5,
    "VISITNUM": 5,
    "VISIT": "WEEK 8",
    "VISITDY": 57,
    "SVSTDTC": "2013-11-26",
    "SVENDTC": "2013-11-26"
  },
  {
    "STUDYID": "CDISCPILOT01",
    "DOMAIN": "SV",
    "USUBJID": "01-701-022",
    "SVSEQ": 6,
    "VISITNUM": 6,
    "VISIT": "WEEK 12",
    "VISITDY": 85,
    "SVSTDTC": "2013-12-24",
    "SVENDTC": "2013-12-24"
  },
  {
    "STUDYID": "CDISCPILOT01",
    "DOMAIN": "SV",
    "USUBJID": "01-701-022",
    "SVSEQ": 7,
    "VISITNUM": 7,
    "VISIT": "WEEK 16",
    "VISITDY": 113,
    "SVSTDTC": "2014-01-17",
    "SVENDTC": "2014-01-17"
  },
  {
    "STUDYID": "CDISCPILOT01",
    "DOMAIN": "SV",
    "USUBJID": "01-701-022",
    "SVSEQ": 8,
    "VISITNUM": 8,
    "VISIT": "WEEK 20",
    "VISITDY": 141,
    "SVSTDTC": "2014-02-16",
    "SVENDTC": "2014-02-16"
  },
  {
    "STUDYID": "CDISCPILOT01",
    "DOMAIN": "SV",
    "USUBJID": "01-701-022",
    "SVSEQ": 9,
    "VISITNUM": 9,
    "VISIT": "WEEK 24",
    "VISITDY": 169,
    "SVSTDTC": "2014-03-20",
    "SVENDTC": "2014-03-20"
  },
  {
    "STUDYID": "CDISCPILOT01",
    "DOMAIN": "SV",
    "USUBJID": "01-701-022",
    "SVSEQ": 10,
    "VISITNUM": 10,
    "VISIT": "END OF TREATMENT",
    "VISITDY": 169,
    "SVSTDTC": "2014-03-14",
    "SVENDTC": "2014-03-14"
  },
  {
    "STUDYID": "CDISCPILOT01",
    "DOMAIN": "SV",
    "USUBJID": "01-701-022",
    "SVSEQ": 11,
    "VISITNUM": 11,
    "VISIT": "WEEK 26",
    "VISITDY": 183,
    "SVSTDTC": "2014-03-31",
    "SVENDTC": "2014-03-31"
  },
  {
    "STUDYID": "CDISCPILOT01",
    "DOMAIN": "SV",
    "USUBJID": "01-701-023",
    "SVSEQ": 1,
    "VISITNUM": 1,
    "VISIT": "SCREENING",
    "VISITDY": -14,
    "SVSTDTC": "2013-07-05",
    "SVENDTC": "2013-07-05"
  },
  {
    "STUDYID": "CDISCPILOT01",
    "DOMAIN": "SV",
    "USUBJID": "01-701-023",
    "SVSEQ": 2,
    "VISITNUM": 2,
    "VISIT": "BASELINE",
    "VISITDY": 1,
    "SVSTDTC": "2013-07-28",
    "SVENDTC": "2013-07-28"
  },
  {
    "STUDYID": "CDISCPILOT01",
    "DOMAIN": "SV",
    "USUBJID": "01-701-023",
    "SVSEQ": 3,
    "VISITNUM": 3,
    "VISIT": "WEEK 2",
    "VISITDY": 15,
    "SVSTDTC": "2013-08-08",
    "SVENDTC": "2013-08-08"
  },
  {
    "STUDYID": "CDISCPILOT01",
    "DOMAIN": "SV",
    "USUBJID": "01-701-023",
    "SVSEQ": 4,
    "VISITNUM": 4,
    "VISIT": "WEEK 4",
    "VISITDY": 29,
    "SVSTDTC": "2013-08-22",
    "SVENDTC": "2013-08-22"
  },
  {
    "STUDYID": "CDISCPILOT01",
    "DOMAIN": "SV",
    "USUBJID": "01-701-023",
    "SVSEQ": 5,
    "VISITNUM": 5,
    "VISIT": "WEEK 8",
    "VISITDY": 57,
    "SVSTDTC": "2013-09-22",
    "SVENDTC": "2013-09-22"
  },
  {
    "STUDYID": "CDISCPILOT01",
    "DOMAIN": "SV",
    "USUBJID": "01-701-023",
    "SVSEQ": 6,
    "VISITNUM": 6,
    "VISIT": "WEEK 12",
    "VISITDY": 85,
    "SVSTDTC": "2013-10-17",
    "SVENDTC": "2013-10-17"
  },
  {
    "STUDYID": "CDISCPILOT01",
    "DOMAIN": "SV",
    "USUBJID": "01-701-023",
    "SVSEQ": 7,
    "VISITNUM": 7,
    "VISIT": "WEEK 16",
    "VISITDY": 113,
    "SVSTDTC": "2013-11-19",
    "SVENDTC": "2013-11-19"
  },
  {
    "STUDYID": "CDISCPILOT01",
    "DOMAIN": "SV",
    "USUBJID": "01-701-023",
    "SVSEQ": 8,
    "VISITNUM": 8,
    "VISIT": "WEEK 20",
    "VISITDY": 141,
    "SVSTDTC": "2013-12-12",
    "SVENDTC": "2013-12-12"
  },
  {
    "STUDYID": "CDISCPILOT01",
    "DOMAIN": "SV",
    "USUBJID": "01-701-023",
    "SVSEQ": 9,
    "VISITNUM": 9,
    "VISIT": "WEEK 24",
    "VISITDY": 169,
    "SVSTDTC": "2014-01-09",
    "SVENDTC": "2014-01-09"
  },
  {
    "STUDYID": "CDISCPILOT01",
    "DOMAIN": "SV",
    "USUBJID": "01-701-023",
    "SVSEQ": 10,
    "VISITNUM": 10,
    "VISIT": "END OF TREATMENT",
    "VISITDY": 169,
    "SVSTDTC": "2014-01-12",
    "SVENDTC": "2014-01-12"
  },
  {
    "STUDYID": "CDISCPILOT01",
    "DOMAIN": "SV",
    "USUBJID": "01-701-023",
    "SVSEQ": 11,
    "VISITNUM": 11,
    "VISIT": "WEEK 26",
    "VISITDY": 183,
    "SVSTDTC": "2014-01-24",
    "SVENDTC": "2014-01-24"
  },
  {
    "STUDYID": "CDISCPILOT01",
    "DOMAIN": "SV",
    "USUBJID": "01-701-024",
    "SVSEQ": 1,
    "VISITNUM": 1,
    "VISIT": "SCREENING",
    "VISITDY": -14,
    "SVSTDTC": "2013-12-02",
    "SVENDTC": "2013-12-02"
  },
  {
    "STUDYID": "CDISCPILOT01",
    "DOMAIN": "SV",
    "USUBJID": "01-701-024",
    "SVSEQ": 2,
    "VISITNUM": 2,
    "VISIT": "BASELINE",
    "VISITDY": 1,
    "SVSTDTC": "2013-12-21",
    "SVENDTC": "2013-12-21"
  },
  {
    "STUDYID": "CDISCPILOT01",
    "DOMAIN": "SV",
    "USUBJID": "01-701-024",
    "SVSEQ": 3,
    "VISITNUM": 3,
    "VISIT": "WEEK 2",
    "VISITDY": 15,
    "SVSTDTC": "2014-01-03",
    "SVENDTC": "2014-01-03"
  },
  {
    "STUDYID": "CDISCPILOT01",
    "DOMAIN": "SV",
    "USUBJID": "01-701-024",
    "SVSEQ": 4,
    "VISITNUM": 4,
    "VISIT": "WEEK 4",
    "VISITDY": 29,
    "SVSTDTC": "2014-01-14",
    "SVENDTC": "2014-01-14"
  },
  {
    "STUDYID": "CDISCPILOT01",
    "DOMAIN": "SV",
    "USUBJID": "01-701-024",
    "SVSEQ": 5,
    "VISITNUM": 5,
    "VISIT": "WEEK 8",
    "VISITDY": 57,
    "SVSTDTC": "2014-02-11",
    "SVENDTC": "2014-02-11"
  },
  {
    "STUDYID": "CDISCPILOT01",
    "DOMAIN": "SV",
    "USUBJID": "01-701-024",
    "SVSEQ": 6,
    "VISITNUM": 6,
    "VISIT": "WEEK 12",
    "VISITDY": 85,
    "SVSTDTC": "2014-03-15",
    "SVENDTC": "2014-03-15"
  },
  {
    "STUDYID": "CDISCPILOT01",
    "DOMAIN": "SV",
    "USUBJID": "01-701-024",
    "SVSEQ": 7,
    "VISITNUM": 7,
    "VISIT": "WEEK 16",
    "VISITDY": 113,
    "SVSTDTC": "2014-04-10",
    "SVENDTC": "2014-04-10"
  },
  {
    "STUDYID": "CDISCPILOT01",
    "DOMAIN": "SV",
    "USUBJID": "01-701-024",
    "SVSEQ": 8,
    "VISITNUM": 8,
    "VISIT": "WEEK 20",
    "VISITDY": 141,
    "SVSTDTC": "2014-05-12",
    "SVENDTC": "2014-05-12"
  },
  {
    "STUDYID": "CDISCPILOT01",
    "DOMAIN": "SV",
    "USUBJID": "01-701-024",
    "SVSEQ": 9,
    "VISITNUM": 9,
    "VISIT": "WEEK 24",
    "VISITDY": 169,
    "SVSTDTC": "2014-06-08",
    "SVENDTC": "2014-06-08"
  },
  {
    "STUDYID": "CDISCPILOT01",
    "DOMAIN": "SV",
    "USUBJID": "01-701-024",
    "SVSEQ": 10,
    "VISITNUM": 10,
    "VISIT": "END OF TREATMENT",
    "VISITDY": 169,
    "SVSTDTC": "2014-06-07",
    "SVENDTC": "2014-06-07"
  },
  {
    "STUDYID": "CDISCPILOT01",
    "DOMAIN": "SV",
    "USUBJID": "01-701-024",
    "SVSEQ": 11,
    "VISITNUM": 11,
    "VISIT": "WEEK 26",
    "VISITDY": 183,
    "SVSTDTC": "2014-06-17",
    "SVENDTC": "2014-06-17"
  },
  {
    "STUDYID": "CDISCPILOT01",
    "DOMAIN": "SV",
    "USUBJID": "01-701-025",
    "SVSEQ": 1,
    "VISITNUM": 1,
    "VISIT": "SCREENING",
    "VISITDY": -14,
    "SVSTDTC": "2013-11-12",
    "SVENDTC": "2013-11-12"
  },
  {
    "STUDYID": "CDISCPILOT01",
    "DOMAIN": "SV",
    "USUBJID": "01-701-025",
    "SVSEQ": 2,
    "VISITNUM": 2,
    "VISIT": "BASELINE",
    "VISITDY": 1,
    "SVSTDTC": "2013-11-21",
    "SVENDTC": "2013-11-21"
  },
  {
    "STUDYID": "CDISCPILOT01",
    "DOMAIN": "SV",
    "USUBJID": "01-701-025",
    "SVSEQ": 3,
    "VISITNUM": 3,
    "VISIT": "WEEK 2",
    "VISITDY": 15,
    "SVSTDTC": "2013-12-07",
    "SVENDTC": "2013-12-07"
  },
  {
    "STUDYID": "CDISCPILOT01",
    "DOMAIN": "SV",
    "USUBJID": "01-701-025",
    "SVSEQ": 4,
    "VISITNUM": 4,
    "VISIT": "WEEK 4",
    "VISITDY": 29,
    "SVSTDTC": "2013-12-19",
    "SVENDTC": "2013-12-19"
  },
  {
    "STUDYID": "CDISCPILOT01",
    "DOMAIN": "SV",
    "USUBJID": "01-701-025",
    "SVSEQ": 5,
    "VISITNUM": 5,
    "VISIT": "WEEK 8",
    "VISITDY": 57,
    "SVSTDTC": "2014-01-18",
    "SVENDTC": "2014-01-18"
  },
  {
    "STUDYID": "CDISCPILOT01",
    "DOMAIN": "SV",
    "USUBJID": "01-701-025",
    "SVSEQ": 6,
    "VISITNUM": 6,
    "VISIT": "WEEK 12",
    "VISITDY": 85,
    "SVSTDTC": "2014-02-12",
    "SVENDTC": "2014-02-12"
  },
  {
    "STUDYID": "CDISCPILOT01",
    "DOMAIN": "SV",
    "USUBJID": "01-701-025",
    "SVSEQ": 7,
    "VISITNUM": 7,
    "VISIT": "WEEK 16",
    "VISITDY": 113,
    "SVSTDTC": "2014-03-15",
    "SVENDTC": "2014-03-15"
  },
  {
    "STUDYID": "CDISCPILOT01",
    "DOMAIN": "SV",
    "USUBJID": "01-701-025",
    "SVSEQ": 8,
    "VISITNUM": 8,
    "VISIT": "WEEK 20",
    "VISITDY": 141,
    "SVSTDTC": "2014-04-15",
    "SVENDTC": "2014-04-15"
  },
  {
    "STUDYID": "CDISCPILOT01",
    "DOMAIN": "SV",
    "USUBJID": "01-701-025",
    "SVSEQ": 9,
    "VISITNUM": 9,
    "VISIT": "WEEK 24",
    "VISITDY": 169,
    "SVSTDTC": "2014-05-07",
    "SVENDTC": "2014-05-07"
  },
  {
    "STUDYID": "CDISCPILOT01",
    "DOMAIN": "SV",
    "USUBJID": "01-701-025",
    "SVSEQ": 10,
    "VISITNUM": 10,
    "VISIT": "END OF TREATMENT",
    "VISITDY": 169,
    "SVSTDTC": "2014-05-07",
    "SVENDTC": "2014-05-07"
  },
  {
    "STUDYID": "CDISCPILOT01",
    "DOMAIN": "SV",
    "USUBJID": "01-701-025",
    "SVSEQ": 11,
    "VISITNUM": 11,
    "VISIT": "WEEK 26",
    "VISITDY": 183,
    "SVSTDTC": "2014-05-22",
    "SVENDTC": "2014-05-22"
  },
  {
    "STUDYID": "CDISCPILOT01",
    "DOMAIN": "SV",
    "USUBJID": "01-701-026",
    "SVSEQ": 1,
    "VISITNUM": 1,
    "VISIT": "SCREENING",
    "VISITDY": -14,
    "SVSTDTC": "2013-02-13",
    "SVENDTC": "2013-02-13"
  },
  {
    "STUDYID": "CDISCPILOT01",
    "DOMAIN": "SV",
    "USUBJID": "01-701-026",
    "SVSEQ": 2,
    "VISITNUM": 2,
    "VISIT": "BASELINE",
    "VISITDY": 1,
    "SVSTDTC": "2013-03-03",
    "SVENDTC": "2013-03-03"
  },
  {
    "STUDYID": "CDISCPILOT01",
    "DOMAIN": "SV",
    "USUBJID": "01-701-026",
    "SVSEQ": 3,
    "VISITNUM": 3,
    "VISIT": "WEEK 2",
    "VISITDY": 15,
    "SVSTDTC": "2013-03-20",
    "SVENDTC": "2013-03-20"
  },
  {
    "STUDYID": "CDISCPILOT01",
    "DOMAIN": "SV",
    "USUBJID": "01-701-026",
    "SVSEQ": 4,
    "VISITNUM": 4,
    "VISIT": "WEEK 4",
    "VISITDY": 29,
    "SVSTDTC": "2013-04-02",
    "SVENDTC": "2013-04-02"
  },
  {
    "STUDYID": "CDISCPILOT01",
    "DOMAIN": "SV",
    "USUBJID": "01-701-026",
    "SVSEQ": 5,
    "VISITNUM": 5,
    "VISIT": "WEEK 8",
    "VISITDY": 57,
    "SVSTDTC": "2013-04-29",
    "SVENDTC": "2013-04-29"
  },
  {
    "STUDYID": "CDISCPILOT01",
    "DOMAIN": "SV",
    "USUBJID": "01-701-026",
    "SVSEQ": 6,
    "VISITNUM": 6,
    "VISIT": "WEEK 12",
    "VISITDY": 85,
    "SVSTDTC": "2013-06-01",
    "SVENDTC": "2013-06-01"
  },
  {
    "STUDYID": "CDISCPILOT01",
    "DOMAIN": "SV",
    "USUBJID": "01-701-026",
    "SVSEQ": 7,
    "VISITNUM": 7,
    "VISIT": "WEEK 16",
    "VISITDY": 113,
    "SVSTDTC": "2013-06-23",
    "SVENDTC": "2013-06-23"
  },
  {
    "STUDYID": "CDISCPILOT01",
    "DOMAIN": "SV",
    "USUBJID": "01-701-026",
    "SVSEQ": 8,
    "VISITNUM": 8,
    "VISIT": "WEEK 20",
    "VISITDY": 141,
    "SVSTDTC": "2013-07-26",
    "SVENDTC": "2013-07-26"
  },
  {
    "STUDYID": "CDISCPILOT01",
    "DOMAIN": "SV",
    "USUBJID": "01-701-026",
    "SVSEQ": 9,
    "VISITNUM": 9,
    "VISIT": "WEEK 24",
    "VISITDY": 169,
    "SVSTDTC": "2013-08-21",
    "SVENDTC": "2013-08-21"
  },
  {
    "STUDYID": "CDISCPILOT01",
    "DOMAIN": "SV",
    "USUBJID": "01-701-026",
    "SVSEQ": 10,
    "VISITNUM": 10,
    "VISIT": "END OF TREATMENT",
    "VISITDY": 169,
    "SVSTDTC": "2013-08-21",
    "SVENDTC": "2013-08-21"
  },
  {
    "STUDYID": "CDISCPILOT01",
    "DOMAIN": "SV",
    "USUBJID": "01-701-026",
    "SVSEQ": 11,
    "VISITNUM": 11,
    "VISIT": "WEEK 26",
    "VISITDY": 183,
    "SVSTDTC": "2013-09-04",
    "SVENDTC": "2013-09-04"
  },
  {
    "STUDYID": "CDISCPILOT01",
    "DOMAIN": "SV",
    "USUBJID": "01-701-027",
    "SVSEQ": 1,
    "VISITNUM": 1,
    "VISIT": "SCREENING",
    "VISITDY": -14,
    "SVSTDTC": "2013-11-11",
    "SVENDTC": "2013-11-11"
  },
  {
    "STUDYID": "CDISCPILOT01",
    "DOMAIN": "SV",
    "USUBJID": "01-701-027",
    "SVSEQ": 2,
    "VISITNUM": 2,
    "VISIT": "BASELINE",
    "VISITDY": 1,
    "SVSTDTC": "2013-11-25",
    "SVENDTC": "2013-11-25"
  },
  {
    "STUDYID": "CDISCPILOT01",
    "DOMAIN": "SV",
    "USUBJID": "01-701-027",
    "SVSEQ": 3,
    "VISITNUM": 3,
    "VISIT": "WEEK 2",
    "VISITDY": 15,
    "SVSTDTC": "2013-12-11",
    "SVENDTC": "2013-12-11"
  },
  {
    "STUDYID": "CDISCPILOT01",
    "DOMAIN": "SV",
    "USUBJID": "01-701-027",
    "SVSEQ": 4,
    "VISITNUM": 4,
    "VISIT": "WEEK 4",
    "VISITDY": 29,
    "SVSTDTC": "2013-12-27",
    "SVENDTC": "2013-12-27"
  },
  {
    "STUDYID": "CDISCPILOT01",
    "DOMAIN": "SV",
    "USUBJID": "01-701-027",
    "SVSEQ": 5,
    "VISITNUM": 5,
    "VISIT": "WEEK 8",
    "VISITDY": 57,
    "SVSTDTC": "2014-01-25",
    "SVENDTC": "2014-01-25"
  },
  {
    "STUDYID": "CDISCPILOT01",
    "DOMAIN": "SV",
    "USUBJID": "01-701-027",
    "SVSEQ": 6,
    "VISITNUM": 10,
    "VISIT": "END OF TREATMENT",
    "VISITDY": 58,
    "SVSTDTC": "2014-01-23",
    "SVENDTC": "2014-01-23"
  },
  {
    "STUDYID": "CDISCPILOT01",
    "DOMAIN": "SV",
    "USUBJID": "01-701-028",
    "SVSEQ": 1,
    "VISITNUM": 1,
    "VISIT": "SCREENING",
    "VISITDY": -14,
    "SVSTDTC": "2013-07-15",
    "SVENDTC": "2013-07-15"
  },
  {
    "STUDYID": "CDISCPILOT01",
    "DOMAIN": "SV",
    "USUBJID": "01-701-028",
    "SVSEQ": 2,
    "VISITNUM": 2,
    "VISIT": "BASELINE",
    "VISITDY": 1,
    "SVSTDTC": "2013-07-28",
    "SVENDTC": "2013-07-28"
  },
  {
    "STUDYID": "CDISCPILOT01",
    "DOMAIN": "SV",
    "USUBJID": "01-701-028",
    "SVSEQ": 3,
    "VISITNUM": 3,
    "VISIT": "WEEK 2",
    "VISITDY": 15,
    "SVSTDTC": "2013-08-11",
    "SVENDTC": "2013-08-11"
  },
  {
    "STUDYID": "CDISCPILOT01",
    "DOMAIN": "SV",
    "USUBJID": "01-701-028",
    "SVSEQ": 4,
    "VISITNUM": 4,
    "VISIT": "WEEK 4",
    "VISITDY": 29,
    "SVSTDTC": "2013-08-22",
    "SVENDTC": "2013-08-22"
  },
  {
    "STUDYID": "CDISCPILOT01",
    "DOMAIN": "SV",
    "USUBJID": "01-701-028",
    "SVSEQ": 5,
    "VISITNUM": 5,
    "VISIT": "WEEK 8",
    "VISITDY": 57,
    "SVSTDTC": "2013-09-25",
    "SVENDTC": "2013-09-25"
  },
  {
    "STUDYID": "CDISCPILOT01",
    "DOMAIN": "SV",
    "USUBJID": "01-701-028",
    "SVSEQ": 6,
    "VISITNUM": 6,
    "VISIT": "WEEK 12",
    "VISITDY": 85,
    "SVSTDTC": "2013-10-17",
    "SVENDTC": "2013-10-17"
  },
  {
    "STUDYID": "CDISCPILOT01",
    "DOMAIN": "SV",
    "USUBJID": "01-701-028",
    "SVSEQ": 7,
    "VISITNUM": 7,
    "VISIT": "WEEK 16",
    "VISITDY": 113,
    "SVSTDTC": "2013-11-17",
    "SVENDTC": "2013-11-17"
  },
  {
    "STUDYID": "CDISCPILOT01",
    "DOMAIN": "SV",
    "USUBJID": "01-701-028",
    "SVSEQ": 8,
    "VISITNUM": 8,
    "VISIT": "WEEK 20",
    "VISITDY": 141,
    "SVSTDTC": "2013-12-15",
    "SVENDTC": "2013-12-15"
  },
  {
    "STUDYID": "CDISCPILOT01",
    "DOMAIN": "SV",
    "USUBJID": "01-701-028",
    "SVSEQ": 9,
    "VISITNUM": 9,
    "VISIT": "WEEK 24",
    "VISITDY": 169,
    "SVSTDTC": "2014-01-15",
    "SVENDTC": "2014-01-15"
  },
  {
    "STUDYID": "CDISCPILOT01",
    "DOMAIN": "SV",
    "USUBJID": "01-701-028",
    "SVSEQ": 10,
    "VISITNUM": 10,
    "VISIT": "END OF TREATMENT",
    "VISITDY": 169,
    "SVSTDTC": "2014-01-11",
    "SVENDTC": "2014-01-11"
  },
  {
    "STUDYID": "CDISCPILOT01",
    "DOMAIN": "SV",
    "USUBJID": "01-701-028",
    "SVSEQ": 11,
    "VISITNUM": 11,
    "VISIT": "WEEK 26",
    "VISITDY": 183,
    "SVSTDTC": "2014-01-26",
    "SVENDTC": "2014-01-26"
  },
  {
    "STUDYID": "CDISCPILOT01",
    "DOMAIN": "SV",
    "USUBJID": "01-701-029",
    "SVSEQ": 1,
    "VISITNUM": 1,
    "VISIT": "SCREENING",
    "VISITDY": -14,
    "SVSTDTC": "2013-10-09",
    "SVENDTC": "2013-10-09"
  },
  {
    "STUDYID": "CDISCPILOT01",
    "DOMAIN": "SV",
    "USUBJID": "01-701-029",
    "SVSEQ": 2,
    "VISITNUM": 2,
    "VISIT": "BASELINE",
    "VISITDY": 1,
    "SVSTDTC": "2013-10-31",
    "SVENDTC": "2013-10-31"
  },
  {
    "STUDYID": "CDISCPILOT01",
    "DOMAIN": "SV",
    "USUBJID": "01-701-029",
    "SVSEQ": 3,
    "VISITNUM": 3,
    "VISIT": "WEEK 2",
    "VISITDY": 15,
    "SVSTDTC": "2013-11-13",
    "SVENDTC": "2013-11-13"
  },
  {
    "STUDYID": "CDISCPILOT01",
    "DOMAIN": "SV",
    "USUBJID": "01-701-029",
    "SVSEQ": 4,
    "VISITNUM": 4,
    "VISIT": "WEEK 4",
    "VISITDY": 29,
    "SVSTDTC": "2013-11-27",
    "SVENDTC": "2013-11-27"
  },
  {
    "STUDYID": "CDISCPILOT01",
    "DOMAIN": "SV",
    "USUBJID": "01-701-029",
    "SVSEQ": 5,
    "VISITNUM": 10,
    "VISIT": "END OF TREATMENT",
    "VISITDY": 34,
    "SVSTDTC": "2013-12-03",
    "SVENDTC": "2013-12-03"
  },
  {
    "STUDYID": "CDISCPILOT01",
    "DOMAIN": "SV",
    "USUBJID": "01-701-030",
    "SVSEQ": 1,
    "VISITNUM": 1,
    "VISIT": "SCREENING",
    "VISITDY": -14,
    "SVSTDTC": "2013-06-17",
    "SVENDTC": "2013-06-17"
  },
  {
    "STUDYID": "CDISCPILOT01",
    "DOMAIN": "SV",
    "USUBJID": "01-701-030",
    "SVSEQ": 2,
    "VISITNUM": 2,
    "VISIT": "BASELINE",
    "VISITDY": 1,
    "SVSTDTC": "2013-07-02",
    "SVENDTC": "2013-07-02"
  },
  {
    "STUDYID": "CDISCPILOT01",
    "DOMAIN": "SV",
    "USUBJID": "01-701-030",
    "SVSEQ": 3,
    "VISITNUM": 3,
    "VISIT": "WEEK 2",
    "VISITDY": 15,
    "SVSTDTC": "2013-07-14",
    "SVENDTC": "2013-07-14"
  },
  {
    "STUDYID": "CDISCPILOT01",
    "DOMAIN": "SV",
    "USUBJID": "01-701-030",
    "SVSEQ": 4,
    "VISITNUM": 4,
    "VISIT": "WEEK 4",
    "VISITDY": 29,
    "SVSTDTC": "2013-07-26",
    "SVENDTC": "2013-07-26"
  },
  {
    "STUDYID": "CDISCPILOT01",
    "DOMAIN": "SV",
    "USUBJID": "01-701-030",
    "SVSEQ": 5,
    "VISITNUM": 5,
    "VISIT": "WEEK 8",
    "VISITDY": 57,
    "SVSTDTC": "2013-08-25",
    "SVENDTC": "2013-08-25"
  },
  {
    "STUDYID": "CDISCPILOT01",
    "DOMAIN": "SV",
    "USUBJID": "01-701-030",
    "SVSEQ": 6,
    "VISITNUM": 6,
    "VISIT": "WEEK 12",
    "VISITDY": 85,
    "SVSTDTC": "2013-09-25",
    "SVENDTC": "2013-09-25"
  },
  {
    "STUDYID": "CDISCPILOT01",
    "DOMAIN": "SV",
    "USUBJID": "01-701-030",
    "SVSEQ": 7,
    "VISITNUM": 7,
    "VISIT": "WEEK 16",
    "VISITDY": 113,
    "SVSTDTC": "2013-10-22",
    "SVENDTC": "2013-10-22"
  },
  {
    "STUDYID": "CDISCPILOT01",
    "DOMAIN": "SV",
    "USUBJID": "01-701-030",
    "SVSEQ": 8,
    "VISITNUM": 8,
    "VISIT": "WEEK 20",
    "VISITDY": 141,
    "SVSTDTC": "2013-11-16",
    "SVENDTC": "2013-11-16"
  },
  {
    "STUDYID": "CDISCPILOT01",
    "DOMAIN": "SV",
    "USUBJID": "01-701-030",
    "SVSEQ": 9,
    "VISITNUM": 9,
    "VISIT": "WEEK 24",
    "VISITDY": 169,
    "SVSTDTC": "2013-12-15",
    "SVENDTC": "2013-12-15"
  },
  {
    "STUDYID": "CDISCPILOT01",
    "DOMAIN": "SV",
    "USUBJID": "01-701-030",
    "SVSEQ": 10,
    "VISITNUM": 10,
    "VISIT": "END OF TREATMENT",
    "VISITDY": 169,
    "SVSTDTC": "2013-12-18",
    "SVENDTC": "2013-12-18"
  },
  {
    "STUDYID": "CDISCPILOT01",
    "DOMAIN": "SV",
    "USUBJID": "01-701-030",
    "SVSEQ": 11,
    "VISITNUM": 11,
    "VISIT": "WEEK 26",
    "VISITDY": 183,
    "SVSTDTC": "2013-12-27",
    "SVENDTC": "2013-12-27"
  },
  {
    "STUDYID": "CDISCPILOT01",
    "DOMAIN": "SV",
    "USUBJID": "01-701-031",
    "SVSEQ": 1,
    "VISITNUM": 1,
    "VISIT": "SCREENING",
    "VISITDY": -14,
    "SVSTDTC": "2013-08-26",
    "SVENDTC": "2013-08-26"
  },
  {
    "STUDYID": "CDISCPILOT01",
    "DOMAIN": "SV",
    "USUBJID": "01-701-031",
    "SVSEQ": 2,
    "VISITNUM": 2,
    "VISIT": "BASELINE",
    "VISITDY": 1,
    "SVSTDTC": "2013-09-15",
    "SVENDTC": "2013-09-15"
  },
  {
    "STUDYID": "CDISCPILOT01",
    "DOMAIN": "SV",
    "USUBJID": "01-701-031",
    "SVSEQ": 3,
    "VISITNUM": 3,
    "VISIT": "WEEK 2",
    "VISITDY": 15,
    "SVSTDTC": "2013-10-02",
    "SVENDTC": "2013-10-02"
  },
  {
    "STUDYID": "CDISCPILOT01",
    "DOMAIN": "SV",
    "USUBJID": "01-701-031",
    "SVSEQ": 4,
    "VISITNUM": 4,
    "VISIT": "WEEK 4",
    "VISITDY": 29,
    "SVSTDTC": "2013-10-13",
    "SVENDTC": "2013-10-13"
  },
  {
    "STUDYID": "CDISCPILOT01",
    "DOMAIN": "SV",
    "USUBJID": "01-701-031",
    "SVSEQ": 5,
    "VISITNUM": 10,
    "VISIT": "END OF TREATMENT",
    "VISITDY": 30,
    "SVSTDTC": "2013-10-14",
    "SVENDTC": "2013-10-14"
  },
  {
    "STUDYID": "CDISCPILOT01",
    "DOMAIN": "SV",
    "USUBJID": "01-701-032",
    "SVSEQ": 1,
    "VISITNUM": 1,
    "VISIT": "SCREENING",
    "VISITDY": -14,
    "SVSTDTC": "2013-03-06",
    "SVENDTC": "2013-03-06"
  },
  {
    "STUDYID": "CDISCPILOT01",
    "DOMAIN": "SV",
    "USUBJID": "01-701-032",
    "SVSEQ": 2,
    "VISITNUM": 2,
    "VISIT": "BASELINE",
    "VISITDY": 1,
    "SVSTDTC": "2013-03-19",
    "SVENDTC": "2013-03-19"
  },
  {
    "STUDYID": "CDISCPILOT01",
    "DOMAIN": "SV",
    "USUBJID": "01-701-032",
    "SVSEQ": 3,
    "VISITNUM": 3,
    "VISIT": "WEEK 2",
    "VISITDY": 15,
    "SVSTDTC": "2013-03-29",
    "SVENDTC": "2013-03-29"
  },
  {
    "STUDYID": "CDISCPILOT01",
    "DOMAIN": "SV",
    "USUBJID": "01-701-032",
    "SVSEQ": 4,
    "VISITNUM": 10,
    "VISIT": "END OF TREATMENT",
    "VISITDY": 20,
    "SVSTDTC": "2013-04-07",
    "SVENDTC": "2013-04-07"
  },
  {
    "STUDYID": "CDISCPILOT01",
    "DOMAIN": "SV",
    "USUBJID": "01-701-033",
    "SVSEQ": 1,
    "VISITNUM": 1,
    "VISIT": "SCREENING",
    "VISITDY": -14,
    "SVSTDTC": "2013-10-15",
    "SVENDTC": "2013-10-15"
  },
  {
    "STUDYID": "CDISCPILOT01",
    "DOMAIN": "SV",
    "USUBJID": "01-701-033",
    "SVSEQ": 2,
    "VISITNUM": 2,
    "VISIT": "BASELINE",
    "VISITDY": 1,
    "SVSTDTC": "2013-11-09",
    "SVENDTC": "2013-11-09"
  },
  {
    "STUDYID": "CDISCPILOT01",
    "DOMAIN": "SV",
    "USUBJID": "01-701-033",
    "SVSEQ": 3,
    "VISITNUM": 3,
    "VISIT": "WEEK 2",
    "VISITDY": 15,
    "SVSTDTC": "2013-11-21",
    "SVENDTC": "2013-11-21"
  },
  {
    "STUDYID": "CDISCPILOT01",
    "DOMAIN": "SV",
    "USUBJID": "01-701-033",
    "SVSEQ": 4,
    "VISITNUM": 4,
    "VISIT": "WEEK 4",
    "VISITDY": 29,
    "SVSTDTC": "2013-12-07",
    "SVENDTC": "2013-12-07"
  },
  {
    "STUDYID": "CDISCPILOT01",
    "DOMAIN": "SV",
    "USUBJID": "01-701-033",
    "SVSEQ": 5,
    "VISITNUM": 5,
    "VISIT": "WEEK 8",
    "VISITDY": 57,
    "SVSTDTC": "2013-12-30",
    "SVENDTC": "2013-12-30"
  },
  {
    "STUDYID": "CDISCPILOT01",
    "DOMAIN": "SV",
    "USUBJID": "01-701-033",
    "SVSEQ": 6,
    "VISITNUM": 6,
    "VISIT": "WEEK 12",
    "VISITDY": 85,
    "SVSTDTC": "2014-01-31",
    "SVENDTC": "2014-01-31"
  },
  {
    "STUDYID": "CDISCPILOT01",
    "DOMAIN": "SV",
    "USUBJID": "01-701-033",
    "SVSEQ": 7,
    "VISITNUM": 7,
    "VISIT": "WEEK 16",
    "VISITDY": 113,
    "SVSTDTC": "2014-02-23",
    "SVENDTC": "2014-02-23"
  },
  {
    "STUDYID": "CDISCPILOT01",
    "DOMAIN": "SV",
    "USUBJID": "01-701-033",
    "SVSEQ": 8,
    "VISITNUM": 8,
    "VISIT": "WEEK 20",
    "VISITDY": 141,
    "SVSTDTC": "2014-03-28",
    "SVENDTC": "2014-03-28"
  },
  {
    "STUDYID": "CDISCPILOT01",
    "DOMAIN": "SV",
    "USUBJID": "01-701-033",
    "SVSEQ": 9,
    "VISITNUM": 9,
    "VISIT": "WEEK 24",
    "VISITDY": 169,
    "SVSTDTC": "2014-04-25",
    "SVENDTC": "2014-04-25"
  },
  {
    "STUDYID": "CDISCPILOT01",
    "DOMAIN": "SV",
    "USUBJID": "01-701-033",
    "SVSEQ": 10,
    "VISITNUM": 10,
    "VISIT": "END OF TREATMENT",
    "VISITDY": 169,
    "SVSTDTC": "2014-04-22",
    "SVENDTC": "2014-04-22"
  },
  {
    "STUDYID": "CDISCPILOT01",
    "DOMAIN": "SV",
    "USUBJID": "01-701-033",
    "SVSEQ": 11,
    "VISITNUM": 11,
    "VISIT": "WEEK 26",
    "VISITDY": 183,
    "SVSTDTC": "2014-05-10",
    "SVENDTC": "2014-05-10"
  },
  {
    "STUDYID": "CDISCPILOT01",
    "DOMAIN": "SV",
    "USUBJID": "01-701-034",
    "SVSEQ": 1,
    "VISITNUM": 1,
    "VISIT": "SCREENING",
    "VISITDY": -14,
    "SVSTDTC": "2013-07-25",
    "SVENDTC": "2013-07-25"
  },
  {
    "STUDYID": "CDISCPILOT01",
    "DOMAIN": "SV",
    "USUBJID": "01-701-034",
    "SVSEQ": 2,
    "VISITNUM": 2,
    "VISIT": "BASELINE",
    "VISITDY": 1,
    "SVSTDTC": "2013-08-15",
    "SVENDTC": "2013-08-15"
  },
  {
    "STUDYID": "CDISCPILOT01",
    "DOMAIN": "SV",
    "USUBJID": "01-701-034",
    "SVSEQ": 3,
    "VISITNUM": 3,
    "VISIT": "WEEK 2",
    "VISITDY": 15,
    "SVSTDTC": "2013-08-29",
    "SVENDTC": "2013-08-29"
  },
  {
    "STUDYID": "CDISCPILOT01",
    "DOMAIN": "SV",
    "USUBJID": "01-701-034",
    "SVSEQ": 4,
    "VISITNUM": 4,
    "VISIT": "WEEK 4",
    "VISITDY": 29,
    "SVSTDTC": "2013-09-11",
    "SVENDTC": "2013-09-11"
  },
  {
    "STUDYID": "CDISCPILOT01",
    "DOMAIN": "SV",
    "USUBJID": "01-701-034",
    "SVSEQ": 5,
    "VISITNUM": 5,
    "VISIT": "WEEK 8",
    "VISITDY": 57,
    "SVSTDTC": "2013-10-09",
    "SVENDTC": "2013-10-09"
  },
  {
    "STUDYID": "CDISCPILOT01",
    "DOMAIN": "SV",
    "USUBJID": "01-701-034",
    "SVSEQ": 6,
    "VISITNUM": 6,
    "VISIT": "WEEK 12",
    "VISITDY": 85,
    "SVSTDTC": "2013-11-09",
    "SVENDTC": "2013-11-09"
  },
  {
    "STUDYID": "CDISCPILOT01",
    "DOMAIN": "SV",
    "USUBJID": "01-701-034",
    "SVSEQ": 7,
    "VISITNUM": 7,
    "VISIT": "WEEK 16",
    "VISITDY": 113,
    "SVSTDTC": "2013-12-05",
    "SVENDTC": "2013-12-05"
  },
  {
    "STUDYID": "CDISCPILOT01",
    "DOMAIN": "SV",
    "USUBJID": "01-701-034",
    "SVSEQ": 8,
    "VISITNUM": 8,
    "VISIT": "WEEK 20",
    "VISITDY": 141,
    "SVSTDTC": "2014-01-04",
    "SVENDTC": "2014-01-04"
  },
  {
    "STUDYID": "CDISCPILOT01",
    "DOMAIN": "SV",
    "USUBJID": "01-701-034",
    "SVSEQ": 9,
    "VISITNUM": 9,
    "VISIT": "WEEK 24",
    "VISITDY": 169,
    "SVSTDTC": "2014-01-30",
    "SVENDTC": "2014-01-30"
  },
  {
    "STUDYID": "CDISCPILOT01",
    "DOMAIN": "SV",
    "USUBJID": "01-701-034",
    "SVSEQ": 10,
    "VISITNUM": 10,
    "VISIT": "END OF TREATMENT",
    "VISITDY": 169,
    "SVSTDTC": "2014-01-31",
    "SVENDTC": "2014-01-31"
  },
  {
    "STUDYID": "CDISCPILOT01",
    "DOMAIN": "SV",
    "USUBJID": "01-701-034",
    "SVSEQ": 11,
    "VISITNUM": 11,
    "VISIT": "WEEK 26",
    "VISITDY": 183,
    "SVSTDTC": "2014-02-14",
    "SVENDTC": "2014-02-14"
  },
  {
    "STUDYID": "CDISCPILOT01",
    "DOMAIN": "SV",
    "USUBJID": "01-701-035",
    "SVSEQ": 1,
    "VISITNUM": 1,
    "VISIT": "SCREENING",
    "VISITDY": -14,
    "SVSTDTC": "2013-04-17",
    "SVENDTC": "2013-04-17"
  },
  {
    "STUDYID": "CDISCPILOT01",
    "DOMAIN": "SV",
    "USUBJID": "01-701-035",
    "SVSEQ": 2,
    "VISITNUM": 2,
    "VISIT": "BASELINE",
    "VISITDY": 1,
    "SVSTDTC": "2013-04-25",
    "SVENDTC": "2013-04-25"
  },
  {
    "STUDYID": "CDISCPILOT01",
    "DOMAIN": "SV",
    "USUBJID": "01-701-035",
    "SVSEQ": 3,
    "VISITNUM": 3,
    "VISIT": "WEEK 2",
    "VISITDY": 15,
    "SVSTDTC": "2013-05-11",
    "SVENDTC": "2013-05-11"
  },
  {
    "STUDYID": "CDISCPILOT01",
    "DOMAIN": "SV",
    "USUBJID": "01-701-035",
    "SVSEQ": 4,
    "VISITNUM": 4,
    "VISIT": "WEEK 4",
    "VISITDY": 29,
    "SVSTDTC": "2013-05-26",
    "SVENDTC": "2013-05-26"
  },
  {
    "STUDYID": "CDISCPILOT01",
    "DOMAIN": "SV",
    "USUBJID": "01-701-035",
    "SVSEQ": 5,
    "VISITNUM": 5,
    "VISIT": "WEEK 8",
    "VISITDY": 57,
    "SVSTDTC": "2013-06-23",
    "SVENDTC": "2013-06-23"
  },
  {
    "STUDYID": "CDISCPILOT01",
    "DOMAIN": "SV",
    "USUBJID": "01-701-035",
    "SVSEQ": 6,
    "VISITNUM": 6,
    "VISIT": "WEEK 12",
    "VISITDY": 85,
    "SVSTDTC": "2013-07-19",
    "SVENDTC": "2013-07-19"
  },
  {
    "STUDYID": "CDISCPILOT01",
    "DOMAIN": "SV",
    "USUBJID": "01-701-035",
    "SVSEQ": 7,
    "VISITNUM": 7,
    "VISIT": "WEEK 16",
    "VISITDY": 113,
    "SVSTDTC": "2013-08-14",
    "SVENDTC": "2013-08-14"
  },
  {
    "STUDYID": "CDISCPILOT01",
    "DOMAIN": "SV",
    "USUBJID": "01-701-035",
    "SVSEQ": 8,
    "VISITNUM": 8,
    "VISIT": "WEEK 20",
    "VISITDY": 141,
    "SVSTDTC": "2013-09-15",
    "SVENDTC": "2013-09-15"
  },
  {
    "STUDYID": "CDISCPILOT01",
    "DOMAIN": "SV",
    "USUBJID": "01-701-035",
    "SVSEQ": 9,
    "VISITNUM": 9,
    "VISIT": "WEEK 24",
    "VISITDY": 169,
    "SVSTDTC": "2013-10-08",
    "SVENDTC": "2013-10-08"
  },
  {
    "STUDYID": "CDISCPILOT01",
    "DOMAIN": "SV",
    "USUBJID": "01-701-035",
    "SVSEQ": 10,
    "VISITNUM": 10,
    "VISIT": "END OF TREATMENT",
    "VISITDY": 169,
    "SVSTDTC": "2013-10-08",
    "SVENDTC": "2013-10-08"
  },
  {
    "STUDYID": "CDISCPILOT01",
    "DOMAIN": "SV",
    "USUBJID": "01-701-035",
    "SVSEQ": 11,
    "VISITNUM": 11,
    "VISIT": "WEEK 26",
    "VISITDY": 183,
    "SVSTDTC": "2013-10-26",
    "SVENDTC": "2013-10-26"
  },
  {
    "STUDYID": "CDISCPILOT01",
    "DOMAIN": "SV",
    "USUBJID": "01-701-036",
    "SVSEQ": 1,
    "VISITNUM": 1,
    "VISIT": "SCREENING",
    "VISITDY": -14,
    "SVSTDTC": "2013-07-26",
    "SVENDTC": "2013-07-26"
  },
  {
    "STUDYID": "CDISCPILOT01",
    "DOMAIN": "SV",
    "USUBJID": "01-701-036",
    "SVSEQ": 2,
    "VISITNUM": 2,
    "VISIT": "BASELINE",
    "VISITDY": 1,
    "SVSTDTC": "2013-08-19",
    "SVENDTC": "2013-08-19"
  },
  {
    "STUDYID": "CDISCPILOT01",
    "DOMAIN": "SV",
    "USUBJID": "01-701-036",
    "SVSEQ": 3,
    "VISITNUM": 3,
    "VISIT": "WEEK 2",
    "VISITDY": 15,
    "SVSTDTC": "2013-08-29",
    "SVENDTC": "2013-08-29"
  },
  {
    "STUDYID": "CDISCPILOT01",
    "DOMAIN": "SV",
    "USUBJID": "01-701-036",
    "SVSEQ": 4,
    "VISITNUM": 4,
    "VISIT": "WEEK 4",
    "VISITDY": 29,
    "SVSTDTC": "2013-09-12",
    "SVENDTC": "2013-09-12"
  },
  {
    "STUDYID": "CDISCPILOT01",
    "DOMAIN": "SV",
    "USUBJID": "01-701-036",
    "SVSEQ": 5,
    "VISITNUM": 10,
    "VISIT": "END OF TREATMENT",
    "VISITDY": 30,
    "SVSTDTC": "2013-09-12",
    "SVENDTC": "2013-09-12"
  },
  {
    "STUDYID": "CDISCPILOT01",
    "DOMAIN": "SV",
    "USUBJID": "01-701-037",
    "SVSEQ": 1,
    "VISITNUM": 1,
    "VISIT": "SCREENING",
    "VISITDY": -14,
    "SVSTDTC": "2012-12-28",
    "SVENDTC": "2012-12-28"
  },
  {
    "STUDYID": "CDISCPILOT01",
    "DOMAIN": "SV",
    "USUBJID": "01-701-037",
    "SVSEQ": 2,
    "VISITNUM": 2,
    "VISIT": "BASELINE",
    "VISITDY": 1,
    "SVSTDTC": "2013-01-02",
    "SVENDTC": "2013-01-02"
  },
  {
    "STUDYID": "CDISCPILOT01",
    "DOMAIN": "SV",
    "USUBJID": "01-701-037",
    "SVSEQ": 3,
    "VISITNUM": 3,
    "VISIT": "WEEK 2",
    "VISITDY": 15,
    "SVSTDTC": "2013-01-17",
    "SVENDTC": "2013-01-17"
  },
  {
    "STUDYID": "CDISCPILOT01",
    "DOMAIN": "SV",
    "USUBJID": "01-701-037",
    "SVSEQ": 4,
    "VISITNUM": 4,
    "VISIT": "WEEK 4",
    "VISITDY": 29,
    "SVSTDTC": "2013-02-02",
    "SVENDTC": "2013-02-02"
  },
  {
    "STUDYID": "CDISCPILOT01",
    "DOMAIN": "SV",
    "USUBJID": "01-701-037",
    "SVSEQ": 5,
    "VISITNUM": 5,
    "VISIT": "WEEK 8",
    "VISITDY": 57,
    "SVSTDTC": "2013-03-01",
    "SVENDTC": "2013-03-01"
  },
  {
    "STUDYID": "CDISCPILOT01",
    "DOMAIN": "SV",
    "USUBJID": "01-701-037",
    "SVSEQ": 6,
    "VISITNUM": 6,
    "VISIT": "WEEK 12",
    "VISITDY": 85,
    "SVSTDTC": "2013-03-27",
    "SVENDTC": "2013-03-27"
  },
  {
    "STUDYID": "CDISCPILOT01",
    "DOMAIN": "SV",
    "USUBJID": "01-701-037",
    "SVSEQ": 7,
    "VISITNUM": 7,
    "VISIT": "WEEK 16",
    "VISITDY": 113,
    "SVSTDTC": "2013-04-27",
    "SVENDTC": "2013-04-27"
  },
  {
    "STUDYID": "CDISCPILOT01",
    "DOMAIN": "SV",
    "USUBJID": "01-701-037",
    "SVSEQ": 8,
    "VISITNUM": 8,
    "VISIT": "WEEK 20",
    "VISITDY": 141,
    "SVSTDTC": "2013-05-23",
    "SVENDTC": "2013-05-23"
  },
  {
    "STUDYID": "CDISCPILOT01",
    "DOMAIN": "SV",
    "USUBJID": "01-701-037",
    "SVSEQ": 9,
    "VISITNUM": 9,
    "VISIT": "WEEK 24",
    "VISITDY": 169,
    "SVSTDTC": "2013-06-19",
    "SVENDTC": "2013-06-19"
  },
  {
    "STUDYID": "CDISCPILOT01",
    "DOMAIN": "SV",
    "USUBJID": "01-701-037",
    "SVSEQ": 10,
    "VISITNUM": 10,
    "VISIT": "END OF TREATMENT",
    "VISITDY": 169,
    "SVSTDTC": "2013-06-24",
    "SVENDTC": "2013-06-24"
  },
  {
    "STUDYID": "CDISCPILOT01",
    "DOMAIN": "SV",
    "USUBJID": "01-701-037",
    "SVSEQ": 11,
    "VISITNUM": 11,
    "VISIT": "WEEK 26",
    "VISITDY": 183,
    "SVSTDTC": "2013-07-03",
    "SVENDTC": "2013-07-03"
  },
  {
    "STUDYID": "CDISCPILOT01",
    "DOMAIN": "SV",
    "USUBJID": "01-701-038",
    "SVSEQ": 1,
    "VISITNUM": 1,
    "VISIT": "SCREENING",
    "VISITDY": -14,
    "SVSTDTC": "2013-06-02",
    "SVENDTC": "2013-06-02"
  },
  {
    "STUDYID": "CDISCPILOT01",
    "DOMAIN": "SV",
    "USUBJID": "01-701-038",
    "SVSEQ": 2,
    "VISITNUM": 2,
    "VISIT": "BASELINE",
    "VISITDY": 1,
    "SVSTDTC": "2013-06-13",
    "SVENDTC": "2013-06-13"
  },
  {
    "STUDYID": "CDISCPILOT01",
    "DOMAIN": "SV",
    "USUBJID": "01-701-038",
    "SVSEQ": 3,
    "VISITNUM": 3,
    "VISIT": "WEEK 2",
    "VISITDY": 15,
    "SVSTDTC": "2013-06-28",
    "SVENDTC": "2013-06-28"
  },
  {
    "STUDYID": "CDISCPILOT01",
    "DOMAIN": "SV",
    "USUBJID": "01-701-038",
    "SVSEQ": 4,
    "VISITNUM": 4,
    "VISIT": "WEEK 4",
    "VISITDY": 29,
    "SVSTDTC": "2013-07-12",
    "SVENDTC": "2013-07-12"
  },
  {
    "STUDYID": "CDISCPILOT01",
    "DOMAIN": "SV",
    "USUBJID": "01-701-038",
    "SVSEQ": 5,
    "VISITNUM": 5,
    "VISIT": "WEEK 8",
    "VISITDY": 57,
    "SVSTDTC": "2013-08-09",
    "SVENDTC": "2013-08-09"
  },
  {
    "STUDYID": "CDISCPILOT01",
    "DOMAIN": "SV",
    "USUBJID": "01-701-038",
    "SVSEQ": 6,
    "VISITNUM": 10,
    "VISIT": "END OF TREATMENT",
    "VISITDY": 63,
    "SVSTDTC": "2013-08-12",
    "SVENDTC": "2013-08-12"
  },
  {
    "STUDYID": "CDISCPILOT01",
    "DOMAIN": "SV",
    "USUBJID": "01-701-039",
    "SVSEQ": 1,
    "VISITNUM": 1,
    "VISIT": "SCREENING",
    "VISITDY": -14,
    "SVSTDTC": "2013-04-18",
    "SVENDTC": "2013-04-18"
  },
  {
    "STUDYID": "CDISCPILOT01",
    "DOMAIN": "SV",
    "USUBJID": "01-701-039",
    "SVSEQ": 2,
    "VISITNUM": 2,
    "VISIT": "BASELINE",
    "VISITDY": 1,
    "SVSTDTC": "2013-04-26",
    "SVENDTC": "2013-04-26"
  },
  {
    "STUDYID": "CDISCPILOT01",
    "DOMAIN": "SV",
    "USUBJID": "01-701-039",
    "SVSEQ": 3,
    "VISITNUM": 3,
    "VISIT": "WEEK 2",
    "VISITDY": 15,
    "SVSTDTC": "2013-05-12",
    "SVENDTC": "2013-05-12"
  },
  {
    "STUDYID": "CDISCPILOT01",
    "DOMAIN": "SV",
    "USUBJID": "01-701-039",
    "SVSEQ": 4,
    "VISITNUM": 4,
    "VISIT": "WEEK 4",
    "VISITDY": 29,
    "SVSTDTC": "2013-05-28",
    "SVENDTC": "2013-05-28"
  },
  {
    "STUDYID": "CDISCPILOT01",
    "DOMAIN": "SV",
    "USUBJID": "01-701-039",
    "SVSEQ": 5,
    "VISITNUM": 10,
    "VISIT": "END OF TREATMENT",
    "VISITDY": 34,
    "SVSTDTC": "2013-05-27",
    "SVENDTC": "2013-05-27"
  },
  {
    "STUDYID": "CDISCPILOT01",
    "DOMAIN": "SV",
    "USUBJID": "01-701-040",
    "SVSEQ": 1,
    "VISITNUM": 1,
    "VISIT": "SCREENING",
    "VISITDY": -14,
    "SVSTDTC": "2013-09-23",
    "SVENDTC": "2013-09-23"
  },
  {
    "STUDYID": "CDISCPILOT01",
    "DOMAIN": "SV",
    "USUBJID": "01-701-040",
    "SVSEQ": 2,
    "VISITNUM": 2,
    "VISIT": "BASELINE",
    "VISITDY": 1,
    "SVSTDTC": "2013-10-06",
    "SVENDTC": "2013-10-06"
  },
  {
    "STUDYID": "CDISCPILOT01",
    "DOMAIN": "SV",
    "USUBJID": "01-701-040",
    "SVSEQ": 3,
    "VISITNUM": 3,
    "VISIT": "WEEK 2",
    "VISITDY": 15,
    "SVSTDTC": "2013-10-15",
    "SVENDTC": "2013-10-15"
  },
  {
    "STUDYID": "CDISCPILOT01",
    "DOMAIN": "SV",
    "USUBJID": "01-701-040",
    "SVSEQ": 4,
    "VISITNUM": 4,
    "VISIT": "WEEK 4",
    "VISITDY": 29,
    "SVSTDTC": "2013-11-04",
    "SVENDTC": "2013-11-04"
  },
  {
    "STUDYID": "CDISCPILOT01",
    "DOMAIN": "SV",
    "USUBJID": "01-701-040",
    "SVSEQ": 5,
    "VISITNUM": 10,
    "VISIT": "END OF TREATMENT",
    "VISITDY": 35,
    "SVSTDTC": "2013-11-08",
    "SVENDTC": "2013-11-08"
  },
  {
    "STUDYID": "CDISCPILOT01",
    "DOMAIN": "SV",
    "USUBJID": "01-701-041",
    "SVSEQ": 1,
    "VISITNUM": 1,
    "VISIT": "SCREENING",
    "VISITDY": -14,
    "SVSTDTC": "2013-10-26",
    "SVENDTC": "2013-10-26"
  },
  {
    "STUDYID": "CDISCPILOT01",
    "DOMAIN": "SV",
    "USUBJID": "01-701-041",
    "SVSEQ": 2,
    "VISITNUM": 2,
    "VISIT": "BASELINE",
    "VISITDY": 1,
    "SVSTDTC": "2013-11-03",
    "SVENDTC": "2013-11-03"
  },
  {
    "STUDYID": "CDISCPILOT01",
    "DOMAIN": "SV",
    "USUBJID": "01-701-041",
    "SVSEQ": 3,
    "VISITNUM": 3,
    "VISIT": "WEEK 2",
    "VISITDY": 15,
    "SVSTDTC": "2013-11-22",
    "SVENDTC": "2013-11-22"
  },
  {
    "STUDYID": "CDISCPILOT01",
    "DOMAIN": "SV",
    "USUBJID": "01-701-041",
    "SVSEQ": 4,
    "VISITNUM": 4,
    "VISIT": "WEEK 4",
    "VISITDY": 29,
    "SVSTDTC": "2013-12-06",
    "SVENDTC": "2013-12-06"
  },
  {
    "STUDYID": "CDISCPILOT01",
    "DOMAIN": "SV",
    "USUBJID": "01-701-041",
    "SVSEQ": 5,
    "VISITNUM": 5,
    "VISIT": "WEEK 8",
    "VISITDY": 57,
    "SVSTDTC": "2014-01-03",
    "SVENDTC": "2014-01-03"
  },
  {
    "STUDYID": "CDISCPILOT01",
    "DOMAIN": "SV",
    "USUBJID": "01-701-041",
    "SVSEQ": 6,
    "VISITNUM": 6,
    "VISIT": "WEEK 12",
    "VISITDY": 85,
    "SVSTDTC": "2014-01-28",
    "SVENDTC": "2014-01-28"
  },
  {
    "STUDYID": "CDISCPILOT01",
    "DOMAIN": "SV",
    "USUBJID": "01-701-041",
    "SVSEQ": 7,
    "VISITNUM": 7,
    "VISIT": "WEEK 16",
    "VISITDY": 113,
    "SVSTDTC": "2014-02-24",
    "SVENDTC": "2014-02-24"
  },
  {
    "STUDYID": "CDISCPILOT01",
    "DOMAIN": "SV",
    "USUBJID": "01-701-041",
    "SVSEQ": 8,
    "VISITNUM": 8,
    "VISIT": "WEEK 20",
    "VISITDY": 141,
    "SVSTDTC": "2014-03-26",
    "SVENDTC": "2014-03-26"
  },
  {
    "STUDYID": "CDISCPILOT01",
    "DOMAIN": "SV",
    "USUBJID": "01-701-041",
    "SVSEQ": 9,
    "VISITNUM": 9,
    "VISIT": "WEEK 24",
    "VISITDY": 169,
    "SVSTDTC": "2014-04-23",
    "SVENDTC": "2014-04-23"
  },
  {
    "STUDYID": "CDISCPILOT01",
    "DOMAIN": "SV",
    "USUBJID": "01-701-041",
    "SVSEQ": 10,
    "VISITNUM": 10,
    "VISIT": "END OF TREATMENT",
    "VISITDY": 176,
    "SVSTDTC": "2014-04-29",
    "SVENDTC": "2014-04-29"
  },
  {
    "STUDYID": "CDISCPILOT01",
    "DOMAIN": "SV",
    "USUBJID": "01-701-041",
    "SVSEQ": 11,
    "VISITNUM": 11,
    "VISIT": "WEEK 26",
    "VISITDY": 183,
    "SVSTDTC": "2014-05-09",
    "SVENDTC": "2014-05-09"
  },
  {
    "STUDYID": "CDISCPILOT01",
    "DOMAIN": "SV",
    "USUBJID": "01-701-042",
    "SVSEQ": 1,
    "VISITNUM": 1,
    "VISIT": "SCREENING",
    "VISITDY": -14,
    "SVSTDTC": "2013-08-14",
    "SVENDTC": "2013-08-14"
  },
  {
    "STUDYID": "CDISCPILOT01",
    "DOMAIN": "SV",
    "USUBJID": "01-701-042",
    "SVSEQ": 2,
    "VISITNUM": 2,
    "VISIT": "BASELINE",
    "VISITDY": 1,
    "SVSTDTC": "2013-09-06",
    "SVENDTC": "2013-09-06"
  },
  {
    "STUDYID": "CDISCPILOT01",
    "DOMAIN": "SV",
    "USUBJID": "01-701-042",
    "SVSEQ": 3,
    "VISITNUM": 3,
    "VISIT": "WEEK 2",
    "VISITDY": 15,
    "SVSTDTC": "2013-09-20",
    "SVENDTC": "2013-09-20"
  },
  {
    "STUDYID": "CDISCPILOT01",
    "DOMAIN": "SV",
    "USUBJID": "01-701-042",
    "SVSEQ": 4,
    "VISITNUM": 4,
    "VISIT": "WEEK 4",
    "VISITDY": 29,
    "SVSTDTC": "2013-09-30",
    "SVENDTC": "2013-09-30"
  },
  {
    "STUDYID": "CDISCPILOT01",
    "DOMAIN": "SV",
    "USUBJID": "01-701-042",
    "SVSEQ": 5,
    "VISITNUM": 5,
    "VISIT": "WEEK 8",
    "VISITDY": 57,
    "SVSTDTC": "2013-10-28",
    "SVENDTC": "2013-10-28"
  },
  {
    "STUDYID": "CDISCPILOT01",
    "DOMAIN": "SV",
    "USUBJID": "01-701-042",
    "SVSEQ": 6,
    "VISITNUM": 6,
    "VISIT": "WEEK 12",
    "VISITDY": 85,
    "SVSTDTC": "2013-11-23",
    "SVENDTC": "2013-11-23"
  },
  {
    "STUDYID": "CDISCPILOT01",
    "DOMAIN": "SV",
    "USUBJID": "01-701-042",
    "SVSEQ": 7,
    "VISITNUM": 7,
    "VISIT": "WEEK 16",
    "VISITDY": 113,
    "SVSTDTC": "2013-12-21",
    "SVENDTC": "2013-12-21"
  },
  {
    "STUDYID": "CDISCPILOT01",
    "DOMAIN": "SV",
    "USUBJID": "01-701-042",
    "SVSEQ": 8,
    "VISITNUM": 8,
    "VISIT": "WEEK 20",
    "VISITDY": 141,
    "SVSTDTC": "2014-01-24",
    "SVENDTC": "2014-01-24"
  },
  {
    "STUDYID": "CDISCPILOT01",
    "DOMAIN": "SV",
    "USUBJID": "01-701-042",
    "SVSEQ": 9,
    "VISITNUM": 9,
    "VISIT": "WEEK 24",
    "VISITDY": 169,
    "SVSTDTC": "2014-02-21",
    "SVENDTC": "2014-02-21"
  },
  {
    "STUDYID": "CDISCPILOT01",
    "DOMAIN": "SV",
    "USUBJID": "01-701-042",
    "SVSEQ": 10,
    "VISITNUM": 10,
    "VISIT": "END OF TREATMENT",
    "VISITDY": 169,
    "SVSTDTC": "2014-02-18",
    "SVENDTC": "2014-02-18"
  },
  {
    "STUDYID": "CDISCPILOT01",
    "DOMAIN": "SV",
    "USUBJID": "01-701-042",
    "SVSEQ": 11,
    "VISITNUM": 11,
    "VISIT": "WEEK 26",
    "VISITDY": 183,
    "SVSTDTC": "2014-03-03",
    "SVENDTC": "2014-03-03"
  },
  {
    "STUDYID": "CDISCPILOT01",
    "DOMAIN": "SV",
    "USUBJID": "01-701-043",
    "SVSEQ": 1,
    "VISITNUM": 1,
    "VISIT": "SCREENING",
    "VISITDY": -14,
    "SVSTDTC": "2013-05-27",
    "SVENDTC": "2013-05-27"
  },
  {
    "STUDYID": "CDISCPILOT01",
    "DOMAIN": "SV",
    "USUBJID": "01-701-043",
    "SVSEQ": 2,
    "VISITNUM": 2,
    "VISIT": "BASELINE",
    "VISITDY": 1,
    "SVSTDTC": "2013-06-19",
    "SVENDTC": "2013-06-19"
  },
  {
    "STUDYID": "CDISCPILOT01",
    "DOMAIN": "SV",
    "USUBJID": "01-701-043",
    "SVSEQ": 3,
    "VISITNUM": 3,
    "VISIT": "WEEK 2",
    "VISITDY": 15,
    "SVSTDTC": "2013-07-03",
    "SVENDTC": "2013-07-03"
  },
  {
    "STUDYID": "CDISCPILOT01",
    "DOMAIN": "SV",
    "USUBJID": "01-701-043",
    "SVSEQ": 4,
    "VISITNUM": 10,
    "VISIT": "END OF TREATMENT",
    "VISITDY": 21,
    "SVSTDTC": "2013-07-06",
    "SVENDTC": "2013-07-06"
  },
  {
    "STUDYID": "CDISCPILOT01",
    "DOMAIN": "SV",
    "USUBJID": "01-703-001",
    "SVSEQ": 1,
    "VISITNUM": 1,
    "VISIT": "SCREENING",
    "VISITDY": -14,
    "SVSTDTC": "2012-12-24",
    "SVENDTC": "2012-12-24"
  },
  {
    "STUDYID": "CDISCPILOT01",
    "DOMAIN": "SV",
    "USUBJID": "01-703-001",
    "SVSEQ": 2,
    "VISITNUM": 2,
    "VISIT": "BASELINE",
    "VISITDY": 1,
    "SVSTDTC": "2013-01-10",
    "SVENDTC": "2013-01-10"
  },
  {
    "STUDYID": "CDISCPILOT01",
    "DOMAIN": "SV",
    "USUBJID": "01-703-001",
    "SVSEQ": 3,
    "VISITNUM": 3,
    "VISIT": "WEEK 2",
    "VISITDY": 15,
    "SVSTDTC": "2013-01-29",
    "SVENDTC": "2013-01-29"
  },
  {
    "STUDYID": "CDISCPILOT01",
    "DOMAIN": "SV",
    "USUBJID": "01-703-001",
    "SVSEQ": 4,
    "VISITNUM": 4,
    "VISIT": "WEEK 4",
    "VISITDY": 29,
    "SVSTDTC": "2013-02-11",
    "SVENDTC": "2013-02-11"
  },
  {
    "STUDYID": "CDISCPILOT01",
    "DOMAIN": "SV",
    "USUBJID": "01-703-001",
    "SVSEQ": 5,
    "VISITNUM": 5,
    "VISIT": "WEEK 8",
    "VISITDY": 57,
    "SVSTDTC": "2013-03-07",
    "SVENDTC": "2013-03-07"
  },
  {
    "STUDYID": "CDISCPILOT01",
    "DOMAIN": "SV",
    "USUBJID": "01-703-001",
    "SVSEQ": 6,
    "VISITNUM": 6,
    "VISIT": "WEEK 12",
    "VISITDY": 85,
    "SVSTDTC": "2013-04-10",
    "SVENDTC": "2013-04-10"
  },
  {
    "STUDYID": "CDISCPILOT01",
    "DOMAIN": "SV",
    "USUBJID": "01-703-001",
    "SVSEQ": 7,
    "VISITNUM": 7,
    "VISIT": "WEEK 16",
    "VISITDY": 113,
    "SVSTDTC": "2013-05-05",
    "SVENDTC": "2013-05-05"
  },
  {
    "STUDYID": "CDISCPILOT01",
    "DOMAIN": "SV",
    "USUBJID": "01-703-001",
    "SVSEQ": 8,
    "VISITNUM": 8,
    "VISIT": "WEEK 20",
    "VISITDY": 141,
    "SVSTDTC": "2013-05-31",
    "SVENDTC": "2013-05-31"
  },
  {
    "STUDYID": "CDISCPILOT01",
    "DOMAIN": "SV",
    "USUBJID": "01-703-001",
    "SVSEQ": 9,
    "VISITNUM": 9,
    "VISIT": "WEEK 24",
    "VISITDY": 169,
    "SVSTDTC": "2013-07-03",
    "SVENDTC": "2013-07-03"
  },
  {
    "STUDYID": "CDISCPILOT01",
    "DOMAIN": "SV",
    "USUBJID": "01-703-001",
    "SVSEQ": 10,
    "VISITNUM": 10,
    "VISIT": "END OF TREATMENT",
    "VISITDY": 169,
    "SVSTDTC": "2013-06-27",
    "SVENDTC": "2013-06-27"
  },
  {
    "STUDYID": "CDISCPILOT01",
    "DOMAIN": "SV",
    "USUBJID": "01-703-001",
    "SVSEQ": 11,
    "VISITNUM": 11,
    "VISIT": "WEEK 26",
    "VISITDY": 183,
    "SVSTDTC": "2013-07-13",
    "SVENDTC": "2013-07-13"
  },
  {
    "STUDYID": "CDISCPILOT01",
    "DOMAIN": "SV",
    "USUBJID": "01-703-002",
    "SVSEQ": 1,
    "VISITNUM": 1,
    "VISIT": "SCREENING",
    "VISITDY": -14,
    "SVSTDTC": "2013-01-22",
    "SVENDTC": "2013-01-22"
  },
  {
    "STUDYID": "CDISCPILOT01",
    "DOMAIN": "SV",
    "USUBJID": "01-703-002",
    "SVSEQ": 2,
    "VISITNUM": 2,
    "VISIT": "BASELINE",
    "VISITDY": 1,
    "SVSTDTC": "2013-02-01",
    "SVENDTC": "2013-02-01"
  },
  {
    "STUDYID": "CDISCPILOT01",
    "DOMAIN": "SV",
    "USUBJID": "01-703-002",
    "SVSEQ": 3,
    "VISITNUM": 3,
    "VISIT": "WEEK 2",
    "VISITDY": 15,
    "SVSTDTC": "2013-02-14",
    "SVENDTC": "2013-02-14"
  },
  {
    "STUDYID": "CDISCPILOT01",
    "DOMAIN": "SV",
    "USUBJID": "01-703-002",
    "SVSEQ": 4,
    "VISITNUM": 4,
    "VISIT": "WEEK 4",
    "VISITDY": 29,
    "SVSTDTC": "2013-03-05",
    "SVENDTC": "2013-03-05"
  },
  {
    "STUDYID": "CDISCPILOT01",
    "DOMAIN": "SV",
    "USUBJID": "01-703-002",
    "SVSEQ": 5,
    "VISITNUM": 5,
    "VISIT": "WEEK 8",
    "VISITDY": 57,
    "SVSTDTC": "2013-04-01",
    "SVENDTC": "2013-04-01"
  },
  {
    "STUDYID": "CDISCPILOT01",
    "DOMAIN": "SV",
    "USUBJID": "01-703-002",
    "SVSEQ": 6,
    "VISITNUM": 6,
    "VISIT": "WEEK 12",
    "VISITDY": 85,
    "SVSTDTC": "2013-05-01",
    "SVENDTC": "2013-05-01"
  },
  {
    "STUDYID": "CDISCPILOT01",
    "DOMAIN": "SV",
    "USUBJID": "01-703-002",
    "SVSEQ": 7,
    "VISITNUM": 7,
    "VISIT": "WEEK 16",
    "VISITDY": 113,
    "SVSTDTC": "2013-05-27",
    "SVENDTC": "2013-05-27"
  },
  {
    "STUDYID": "CDISCPILOT01",
    "DOMAIN": "SV",
    "USUBJID": "01-703-002",
    "SVSEQ": 8,
    "VISITNUM": 8,
    "VISIT": "WEEK 20",
    "VISITDY": 141,
    "SVSTDTC": "2013-06-21",
    "SVENDTC": "2013-06-21"
  },
  {
    "STUDYID": "CDISCPILOT01",
    "DOMAIN": "SV",
    "USUBJID": "01-703-002",
    "SVSEQ": 9,
    "VISITNUM": 10,
    "VISIT": "END OF TREATMENT",
    "VISITDY": 144,
    "SVSTDTC": "2013-06-27",
    "SVENDTC": "2013-06-27"
  },
  {
    "STUDYID": "CDISCPILOT01",
    "DOMAIN": "SV",
    "USUBJID": "01-703-002",
    "SVSEQ": 10,
    "VISITNUM": 11,
    "VISIT": "WEEK 26",
    "VISITDY": 183,
    "SVSTDTC": "2013-08-04",
    "SVENDTC": "2013-08-04"
  },
  {
    "STUDYID": "CDISCPILOT01",
    "DOMAIN": "SV",
    "USUBJID": "01-703-003",
    "SVSEQ": 1,
    "VISITNUM": 1,
    "VISIT": "SCREENING",
    "VISITDY": -14,
    "SVSTDTC": "2013-07-31",
    "SVENDTC": "2013-07-31"
  },
  {
    "STUDYID": "CDISCPILOT01",
    "DOMAIN": "SV",
    "USUBJID": "01-703-003",
    "SVSEQ": 2,
    "VISITNUM": 2,
    "VISIT": "BASELINE",
    "VISITDY": 1,
    "SVSTDTC": "2013-08-11",
    "SVENDTC": "2013-08-11"
  },
  {
    "STUDYID": "CDISCPILOT01",
    "DOMAIN": "SV",
    "USUBJID": "01-703-003",
    "SVSEQ": 3,
    "VISITNUM": 3,
    "VISIT": "WEEK 2",
    "VISITDY": 15,
    "SVSTDTC": "2013-08-23",
    "SVENDTC": "2013-08-23"
  },
  {
    "STUDYID": "CDISCPILOT01",
    "DOMAIN": "SV",
    "USUBJID": "01-703-003",
    "SVSEQ": 4,
    "VISITNUM": 4,
    "VISIT": "WEEK 4",
    "VISITDY": 29,
    "SVSTDTC": "2013-09-10",
    "SVENDTC": "2013-09-10"
  },
  {
    "STUDYID": "CDISCPILOT01",
    "DOMAIN": "SV",
    "USUBJID": "01-703-003",
    "SVSEQ": 5,
    "VISITNUM": 5,
    "VISIT": "WEEK 8",
    "VISITDY": 57,
    "SVSTDTC": "2013-10-10",
    "SVENDTC": "2013-10-10"
  },
  {
    "STUDYID": "CDISCPILOT01",
    "DOMAIN": "SV",
    "USUBJID": "01-703-003",
    "SVSEQ": 6,
    "VISITNUM": 6,
    "VISIT": "WEEK 12",
    "VISITDY": 85,
    "SVSTDTC": "2013-11-07",
    "SVENDTC": "2013-11-07"
  },
  {
    "STUDYID": "CDISCPILOT01",
    "DOMAIN": "SV",
    "USUBJID": "01-703-003",
    "SVSEQ": 7,
    "VISITNUM": 7,
    "VISIT": "WEEK 16",
    "VISITDY": 113,
    "SVSTDTC": "2013-12-03",
    "SVENDTC": "2013-12-03"
  },
  {
    "STUDYID": "CDISCPILOT01",
    "DOMAIN": "SV",
    "USUBJID": "01-703-003",
    "SVSEQ": 8,
    "VISITNUM": 8,
    "VISIT": "WEEK 20",
    "VISITDY": 141,
    "SVSTDTC": "2014-01-02",
    "SVENDTC": "2014-01-02"
  },
  {
    "STUDYID": "CDISCPILOT01",
    "DOMAIN": "SV",
    "USUBJID": "01-703-003",
    "SVSEQ": 9,
    "VISITNUM": 9,
    "VISIT": "WEEK 24",
    "VISITDY": 169,
    "SVSTDTC": "2014-01-28",
    "SVENDTC": "2014-01-28"
  },
  {
    "STUDYID": "CDISCPILOT01",
    "DOMAIN": "SV",
    "USUBJID": "01-703-003",
    "SVSEQ": 10,
    "VISITNUM": 10,
    "VISIT": "END OF TREATMENT",
    "VISITDY": 169,
    "SVSTDTC": "2014-01-30",
    "SVENDTC": "2014-01-30"
  },
  {
    "STUDYID": "CDISCPILOT01",
    "DOMAIN": "SV",
    "USUBJID": "01-703-003",
    "SVSEQ": 11,
    "VISITNUM": 11,
    "VISIT": "WEEK 26",
    "VISITDY": 183,
    "SVSTDTC": "2014-02-12",
    "SVENDTC": "2014-02-12"
  },
  {
    "STUDYID": "CDISCPILOT01",
    "DOMAIN": "SV",
    "USUBJID": "01-703-004",
    "SVSEQ": 1,
    "VISITNUM": 1,
    "VISIT": "SCREENING",
    "VISITDY": -14,
    "SVSTDTC": "2013-07-21",
    "SVENDTC": "2013-07-21"
  },
  {
    "STUDYID": "CDISCPILOT01",
    "DOMAIN": "SV",
    "USUBJID": "01-703-004",
    "SVSEQ": 2,
    "VISITNUM": 2,
    "VISIT": "BASELINE",
    "VISITDY": 1,
    "SVSTDTC": "2013-07-31",
    "SVENDTC": "2013-07-31"
  },
  {
    "STUDYID": "CDISCPILOT01",
    "DOMAIN": "SV",
    "USUBJID": "01-703-004",
    "SVSEQ": 3,
    "VISITNUM": 3,
    "VISIT": "WEEK 2",
    "VISITDY": 15,
    "SVSTDTC": "2013-08-16",
    "SVENDTC": "2013-08-16"
  },
  {
    "STUDYID": "CDISCPILOT01",
    "DOMAIN": "SV",
    "USUBJID": "01-703-004",
    "SVSEQ": 4,
    "VISITNUM": 4,
    "VISIT": "WEEK 4",
    "VISITDY": 29,
    "SVSTDTC": "2013-08-25",
    "SVENDTC": "2013-08-25"
  },
  {
    "STUDYID": "CDISCPILOT01",
    "DOMAIN": "SV",
    "USUBJID": "01-703-004",
    "SVSEQ": 5,
    "VISITNUM": 5,
    "VISIT": "WEEK 8",
    "VISITDY": 57,
    "SVSTDTC": "2013-09-26",
    "SVENDTC": "2013-09-26"
  },
  {
    "STUDYID": "CDISCPILOT01",
    "DOMAIN": "SV",
    "USUBJID": "01-703-004",
    "SVSEQ": 6,
    "VISITNUM": 6,
    "VISIT": "WEEK 12",
    "VISITDY": 85,
    "SVSTDTC": "2013-10-25",
    "SVENDTC": "2013-10-25"
  },
  {
    "STUDYID": "CDISCPILOT01",
    "DOMAIN": "SV",
    "USUBJID": "01-703-004",
    "SVSEQ": 7,
    "VISITNUM": 7,
    "VISIT": "WEEK 16",
    "VISITDY": 113,
    "SVSTDTC": "2013-11-20",
    "SVENDTC": "2013-11-20"
  },
  {
    "STUDYID": "CDISCPILOT01",
    "DOMAIN": "SV",
    "USUBJID": "01-703-004",
    "SVSEQ": 8,
    "VISITNUM": 8,
    "VISIT": "WEEK 20",
    "VISITDY": 141,
    "SVSTDTC": "2013-12-20",
    "SVENDTC": "2013-12-20"
  },
  {
    "STUDYID": "CDISCPILOT01",
    "DOMAIN": "SV",
    "USUBJID": "01-703-004",
    "SVSEQ": 9,
    "VISITNUM": 10,
    "VISIT": "END OF TREATMENT",
    "VISITDY": 142,
    "SVSTDTC": "2013-12-17",
    "SVENDTC": "2013-12-17"
  },
  {
    "STUDYID": "CDISCPILOT01",
    "DOMAIN": "SV",
    "USUBJID": "01-703-004",
    "SVSEQ": 10,
    "VISITNUM": 11,
    "VISIT": "WEEK 26",
    "VISITDY": 183,
    "SVSTDTC": "2014-01-27",
    "SVENDTC": "2014-01-27"
  },
  {
    "STUDYID": "CDISCPILOT01",
    "DOMAIN": "SV",
    "USUBJID": "01-703-005",
    "SVSEQ": 1,
    "VISITNUM": 1,
    "VISIT": "SCREENING",
    "VISITDY": -14,
    "SVSTDTC": "2013-02-23",
    "SVENDTC": "2013-02-23"
  },
  {
    "STUDYID": "CDISCPILOT01",
    "DOMAIN": "SV",
    "USUBJID": "01-703-005",
    "SVSEQ": 2,
    "VISITNUM": 2,
    "VISIT": "BASELINE",
    "VISITDY": 1,
    "SVSTDTC": "2013-03-08",
    "SVENDTC": "2013-03-08"
  },
  {
    "STUDYID": "CDISCPILOT01",
    "DOMAIN": "SV",
    "USUBJID": "01-703-005",
    "SVSEQ": 3,
    "VISITNUM": 3,
    "VISIT": "WEEK 2",
    "VISITDY": 15,
    "SVSTDTC": "2013-03-19",
    "SVENDTC": "2013-03-19"
  },
  {
    "STUDYID": "CDISCPILOT01",
    "DOMAIN": "SV",
    "USUBJID": "01-703-005",
    "SVSEQ": 4,
    "VISITNUM": 4,
    "VISIT": "WEEK 4",
    "VISITDY": 29,
    "SVSTDTC": "2013-04-02",
    "SVENDTC": "2013-04-02"
  },
  {
    "STUDYID": "CDISCPILOT01",
    "DOMAIN": "SV",
    "USUBJID": "01-703-005",
    "SVSEQ": 5,
    "VISITNUM": 5,
    "VISIT": "WEEK 8",
    "VISITDY": 57,
    "SVSTDTC": "2013-04-28",
    "SVENDTC": "2013-04-28"
  },
  {
    "STUDYID": "CDISCPILOT01",
    "DOMAIN": "SV",
    "USUBJID": "01-703-005",
    "SVSEQ": 6,
    "VISITNUM": 10,
    "VISIT": "END OF TREATMENT",
    "VISITDY": 61,
    "SVSTDTC": "2013-05-07",
    "SVENDTC": "2013-05-07"
  },
  {
    "STUDYID": "CDISCPILOT01",
    "DOMAIN": "SV",
    "USUBJID": "01-703-006",
    "SVSEQ": 1,
    "VISITNUM": 1,
    "VISIT": "SCREENING",
    "VISITDY": -14,
    "SVSTDTC": "2013-07-07",
    "SVENDTC": "2013-07-07"
  },
  {
    "STUDYID": "CDISCPILOT01",
    "DOMAIN": "SV",
    "USUBJID": "01-703-006",
    "SVSEQ": 2,
    "VISITNUM": 2,
    "VISIT": "BASELINE",
    "VISITDY": 1,
    "SVSTDTC": "2013-07-22",
    "SVENDTC": "2013-07-22"
  },
  {
    "STUDYID": "CDISCPILOT01",
    "DOMAIN": "SV",
    "USUBJID": "01-703-006",
    "SVSEQ": 3,
    "VISITNUM": 3,
    "VISIT": "WEEK 2",
    "VISITDY": 15,
    "SVSTDTC": "2013-08-07",
    "SVENDTC": "2013-08-07"
  },
  {
    "STUDYID": "CDISCPILOT01",
    "DOMAIN": "SV",
    "USUBJID": "01-703-006",
    "SVSEQ": 4,
    "VISITNUM": 4,
    "VISIT": "WEEK 4",
    "VISITDY": 29,
    "SVSTDTC": "2013-08-24",
    "SVENDTC": "2013-08-24"
  },
  {
    "STUDYID": "CDISCPILOT01",
    "DOMAIN": "SV",
    "USUBJID": "01-703-006",
    "SVSEQ": 5,
    "VISITNUM": 10,
    "VISIT": "END OF TREATMENT",
    "VISITDY": 30,
    "SVSTDTC": "2013-08-25",
    "SVENDTC": "2013-08-25"
  },
  {
    "STUDYID": "CDISCPILOT01",
    "DOMAIN": "SV",
    "USUBJID": "01-703-007",
    "SVSEQ": 1,
    "VISITNUM": 1,
    "VISIT": "SCREENING",
    "VISITDY": -14,
    "SVSTDTC": "2013-02-07",
    "SVENDTC": "2013-02-07"
  },
  {
    "STUDYID": "CDISCPILOT01",
    "DOMAIN": "SV",
    "USUBJID": "01-703-007",
    "SVSEQ": 2,
    "VISITNUM": 2,
    "VISIT": "BASELINE",
    "VISITDY": 1,
    "SVSTDTC": "2013-02-21",
    "SVENDTC": "2013-02-21"
  },
  {
    "STUDYID": "CDISCPILOT01",
    "DOMAIN": "SV",
    "USUBJID": "01-703-007",
    "SVSEQ": 3,
    "VISITNUM": 3,
    "VISIT": "WEEK 2",
    "VISITDY": 15,
    "SVSTDTC": "2013-03-08",
    "SVENDTC": "2013-03-08"
  },
  {
    "STUDYID": "CDISCPILOT01",
    "DOMAIN": "SV",
    "USUBJID": "01-703-007",
    "SVSEQ": 4,
    "VISITNUM": 4,
    "VISIT": "WEEK 4",
    "VISITDY": 29,
    "SVSTDTC": "2013-03-20",
    "SVENDTC": "2013-03-20"
  },
  {
    "STUDYID": "CDISCPILOT01",
    "DOMAIN": "SV",
    "USUBJID": "01-703-007",
    "SVSEQ": 5,
    "VISITNUM": 5,
    "VISIT": "WEEK 8",
    "VISITDY": 57,
    "SVSTDTC": "2013-04-17",
    "SVENDTC": "2013-04-17"
  },
  {
    "STUDYID": "CDISCPILOT01",
    "DOMAIN": "SV",
    "USUBJID": "01-703-007",
    "SVSEQ": 6,
    "VISITNUM": 10,
    "VISIT": "END OF TREATMENT",
    "VISITDY": 59,
    "SVSTDTC": "2013-04-18",
    "SVENDTC": "2013-04-18"
  },
  {
    "STUDYID": "CDISCPILOT01",
    "DOMAIN": "SV",
    "USUBJID": "01-703-008",
    "SVSEQ": 1,
    "VISITNUM": 1,
    "VISIT": "SCREENING",
    "VISITDY": -14,
    "SVSTDTC": "2013-12-18",
    "SVENDTC": "2013-12-18"
  },
  {
    "STUDYID": "CDISCPILOT01",
    "DOMAIN": "SV",
    "USUBJID": "01-703-008",
    "SVSEQ": 2,
    "VISITNUM": 2,
    "VISIT": "BASELINE",
    "VISITDY": 1,
    "SVSTDTC": "2014-01-01",
    "SVENDTC": "2014-01-01"
  },
  {
    "STUDYID": "CDISCPILOT01",
    "DOMAIN": "SV",
    "USUBJID": "01-703-008",
    "SVSEQ": 3,
    "VISITNUM": 3,
    "VISIT": "WEEK 2",
    "VISITDY": 15,
    "SVSTDTC": "2014-01-13",
    "SVENDTC": "2014-01-13"
  },
  {
    "STUDYID": "CDISCPILOT01",
    "DOMAIN": "SV",
    "USUBJID": "01-703-008",
    "SVSEQ": 4,
    "VISITNUM": 4,
    "VISIT": "WEEK 4",
    "VISITDY": 29,
    "SVSTDTC": "2014-01-30",
    "SVENDTC": "2014-01-30"
  },
  {
    "STUDYID": "CDISCPILOT01",
    "DOMAIN": "SV",
    "USUBJID": "01-703-008",
    "SVSEQ": 5,
    "VISITNUM": 5,
    "VISIT": "WEEK 8",
    "VISITDY": 57,
    "SVSTDTC": "2014-02-28",
    "SVENDTC": "2014-02-28"
  },
  {
    "STUDYID": "CDISCPILOT01",
    "DOMAIN": "SV",
    "USUBJID": "01-703-008",
    "SVSEQ": 6,
    "VISITNUM": 6,
    "VISIT": "WEEK 12",
    "VISITDY": 85,
    "SVSTDTC": "2014-03-24",
    "SVENDTC": "2014-03-24"
  },
  {
    "STUDYID": "CDISCPILOT01",
    "DOMAIN": "SV",
    "USUBJID": "01-703-008",
    "SVSEQ": 7,
    "VISITNUM": 7,
    "VISIT": "WEEK 16",
    "VISITDY": 113,
    "SVSTDTC": "2014-04-20",
    "SVENDTC": "2014-04-20"
  },
  {
    "STUDYID": "CDISCPILOT01",
    "DOMAIN": "SV",
    "USUBJID": "01-703-008",
    "SVSEQ": 8,
    "VISITNUM": 8,
    "VISIT": "WEEK 20",
    "VISITDY": 141,
    "SVSTDTC": "2014-05-24",
    "SVENDTC": "2014-05-24"
  },
  {
    "STUDYID": "CDISCPILOT01",
    "DOMAIN": "SV",
    "USUBJID": "01-703-008",
    "SVSEQ": 9,
    "VISITNUM": 9,
    "VISIT": "WEEK 24",
    "VISITDY": 169,
    "SVSTDTC": "2014-06-21",
    "SVENDTC": "2014-06-21"
  },
  {
    "STUDYID": "CDISCPILOT01",
    "DOMAIN": "SV",
    "USUBJID": "01-703-008",
    "SVSEQ": 10,
    "VISITNUM": 10,
    "VISIT": "END OF TREATMENT",
    "VISITDY": 169,
    "SVSTDTC": "2014-06-20",
    "SVENDTC": "2014-06-20"
  },
  {
    "STUDYID": "CDISCPILOT01",
    "DOMAIN": "SV",
    "USUBJID": "01-703-008",
    "SVSEQ": 11,
    "VISITNUM": 11,
    "VISIT": "WEEK 26",
    "VISITDY": 183,
    "SVSTDTC": "2014-07-01",
    "SVENDTC": "2014-07-01"
  },
  {
    "STUDYID": "CDISCPILOT01",
    "DOMAIN": "SV",
    "USUBJID": "01-703-009",
    "SVSEQ": 1,
    "VISITNUM": 1,
    "VISIT": "SCREENING",
    "VISITDY": -14,
    "SVSTDTC": "2013-05-14",
    "SVENDTC": "2013-05-14"
  },
  {
    "STUDYID": "CDISCPILOT01",
    "DOMAIN": "SV",
    "USUBJID": "01-703-009",
    "SVSEQ": 2,
    "VISITNUM": 2,
    "VISIT": "BASELINE",
    "VISITDY": 1,
    "SVSTDTC": "2013-06-03",
    "SVENDTC": "2013-06-03"
  },
  {
    "STUDYID": "CDISCPILOT01",
    "DOMAIN": "SV",
    "USUBJID": "01-703-009",
    "SVSEQ": 3,
    "VISITNUM": 3,
    "VISIT": "WEEK 2",
    "VISITDY": 15,
    "SVSTDTC": "2013-06-20",
    "SVENDTC": "2013-06-20"
  },
  {
    "STUDYID": "CDISCPILOT01",
    "DOMAIN": "SV",
    "USUBJID": "01-703-009",
    "SVSEQ": 4,
    "VISITNUM": 4,
    "VISIT": "WEEK 4",
    "VISITDY": 29,
    "SVSTDTC": "2013-07-01",
    "SVENDTC": "2013-07-01"
  },
  {
    "STUDYID": "CDISCPILOT01",
    "DOMAIN": "SV",
    "USUBJID": "01-703-009",
    "SVSEQ": 5,
    "VISITNUM": 10,
    "VISIT": "END OF TREATMENT",
    "VISITDY": 35,
    "SVSTDTC": "2013-07-07",
    "SVENDTC": "2013-07-07"
  },
  {
    "STUDYID": "CDISCPILOT01",
    "DOMAIN": "SV",
    "USUBJID": "01-703-010",
    "SVSEQ": 1,
    "VISITNUM": 1,
    "VISIT": "SCREENING",
    "VISITDY": -14,
    "SVSTDTC": "2013-06-13",
    "SVENDTC": "2013-06-13"
  },
  {
    "STUDYID": "CDISCPILOT01",
    "DOMAIN": "SV",
    "USUBJID": "01-703-010",
    "SVSEQ": 2,
    "VISITNUM": 2,
    "VISIT": "BASELINE",
    "VISITDY": 1,
    "SVSTDTC": "2013-07-03",
    "SVENDTC": "2013-07-03"
  },
  {
    "STUDYID": "CDISCPILOT01",
    "DOMAIN": "SV",
    "USUBJID": "01-703-010",
    "SVSEQ": 3,
    "VISITNUM": 3,
    "VISIT": "WEEK 2",
    "VISITDY": 15,
    "SVSTDTC": "2013-07-18",
    "SVENDTC": "2013-07-18"
  },
  {
    "STUDYID": "CDISCPILOT01",
    "DOMAIN": "SV",
    "USUBJID": "01-703-010",
    "SVSEQ": 4,
    "VISITNUM": 10,
    "VISIT": "END OF TREATMENT",
    "VISITDY": 20,
    "SVSTDTC": "2013-07-22",
    "SVENDTC": "2013-07-22"
  },
  {
    "STUDYID": "CDISCPILOT01",
    "DOMAIN": "SV",
    "USUBJID": "01-703-011",
    "SVSEQ": 1,
    "VISITNUM": 1,
    "VISIT": "SCREENING",
    "VISITDY": -14,
    "SVSTDTC": "2013-12-01",
    "SVENDTC": "2013-12-01"
  },
  {
    "STUDYID": "CDISCPILOT01",
    "DOMAIN": "SV",
    "USUBJID": "01-703-011",
    "SVSEQ": 2,
    "VISITNUM": 2,
    "VISIT": "BASELINE",
    "VISITDY": 1,
    "SVSTDTC": "2013-12-22",
    "SVENDTC": "2013-12-22"
  },
  {
    "STUDYID": "CDISCPILOT01",
    "DOMAIN": "SV",
    "USUBJID": "01-703-011",
    "SVSEQ": 3,
    "VISITNUM": 3,
    "VISIT": "WEEK 2",
    "VISITDY": 15,
    "SVSTDTC": "2014-01-04",
    "SVENDTC": "2014-01-04"
  },
  {
    "STUDYID": "CDISCPILOT01",
    "DOMAIN": "SV",
    "USUBJID": "01-703-011",
    "SVSEQ": 4,
    "VISITNUM": 4,
    "VISIT": "WEEK 4",
    "VISITDY": 29,
    "SVSTDTC": "2014-01-22",
    "SVENDTC": "2014-01-22"
  },
  {
    "STUDYID": "CDISCPILOT01",
    "DOMAIN": "SV",
    "USUBJID": "01-703-011",
    "SVSEQ": 5,
    "VISITNUM": 5,
    "VISIT": "WEEK 8",
    "VISITDY": 57,
    "SVSTDTC": "2014-02-15",
    "SVENDTC": "2014-02-15"
  },
  {
    "STUDYID": "CDISCPILOT01",
    "DOMAIN": "SV",
    "USUBJID": "01-703-011",
    "SVSEQ": 6,
    "VISITNUM": 6,
    "VISIT": "WEEK 12",
    "VISITDY": 85,
    "SVSTDTC": "2014-03-19",
    "SVENDTC": "2014-03-19"
  },
  {
    "STUDYID": "CDISCPILOT01",
    "DOMAIN": "SV",
    "USUBJID": "01-703-011",
    "SVSEQ": 7,
    "VISITNUM": 7,
    "VISIT": "WEEK 16",
    "VISITDY": 113,
    "SVSTDTC": "2014-04-14",
    "SVENDTC": "2014-04-14"
  },
  {
    "STUDYID": "CDISCPILOT01",
    "DOMAIN": "SV",
    "USUBJID": "01-703-011",
    "SVSEQ": 8,
    "VISITNUM": 8,
    "VISIT": "WEEK 20",
    "VISITDY": 141,
    "SVSTDTC": "2014-05-14",
    "SVENDTC": "2014-05-14"
  },
  {
    "STUDYID": "CDISCPILOT01",
    "DOMAIN": "SV",
    "USUBJID": "01-703-011",
    "SVSEQ": 9,
    "VISITNUM": 9,
    "VISIT": "WEEK 24",
    "VISITDY": 169,
    "SVSTDTC": "2014-06-06",
    "SVENDTC": "2014-06-06"
  },
  {
    "STUDYID": "CDISCPILOT01",
    "DOMAIN": "SV",
    "USUBJID": "01-703-011",
    "SVSEQ": 10,
    "VISITNUM": 10,
    "VISIT": "END OF TREATMENT",
    "VISITDY": 169,
    "SVSTDTC": "2014-06-09",
    "SVENDTC": "2014-06-09"
  },
  {
    "STUDYID": "CDISCPILOT01",
    "DOMAIN": "SV",
    "USUBJID": "01-703-011",
    "SVSEQ": 11,
    "VISITNUM": 11,
    "VISIT": "WEEK 26",
    "VISITDY": 183,
    "SVSTDTC": "2014-06-24",
    "SVENDTC": "2014-06-24"
  },
  {
    "STUDYID": "CDISCPILOT01",
    "DOMAIN": "SV",
    "USUBJID": "01-703-012",
    "SVSEQ": 1,
    "VISITNUM": 1,
    "VISIT": "SCREENING",
    "VISITDY": -14,
    "SVSTDTC": "2013-01-30",
    "SVENDTC": "2013-01-30"
  },
  {
    "STUDYID": "CDISCPILOT01",
    "DOMAIN": "SV",
    "USUBJID": "01-703-012",
    "SVSEQ": 2,
    "VISITNUM": 2,
    "VISIT": "BASELINE",
    "VISITDY": 1,
    "SVSTDTC": "2013-02-05",
    "SVENDTC": "2013-02-05"
  },
  {
    "STUDYID": "CDISCPILOT01",
    "DOMAIN": "SV",
    "USUBJID": "01-703-012",
    "SVSEQ": 3,
    "VISITNUM": 3,
    "VISIT": "WEEK 2",
    "VISITDY": 15,
    "SVSTDTC": "2013-02-23",
    "SVENDTC": "2013-02-23"
  },
  {
    "STUDYID": "CDISCPILOT01",
    "DOMAIN": "SV",
    "USUBJID": "01-703-012",
    "SVSEQ": 4,
    "VISITNUM": 10,
    "VISIT": "END OF TREATMENT",
    "VISITDY": 20,
    "SVSTDTC": "2013-03-01",
    "SVENDTC": "2013-03-01"
  },
  {
    "STUDYID": "CDISCPILOT01",
    "DOMAIN": "SV",
    "USUBJID": "01-703-013",
    "SVSEQ": 1,
    "VISITNUM": 1,
    "VISIT": "SCREENING",
    "VISITDY": -14,
    "SVSTDTC": "2013-04-17",
    "SVENDTC": "2013-04-17"
  },
  {
    "STUDYID": "CDISCPILOT01",
    "DOMAIN": "SV",
    "USUBJID": "01-703-013",
    "SVSEQ": 2,
    "VISITNUM": 2,
    "VISIT": "BASELINE",
    "VISITDY": 1,
    "SVSTDTC": "2013-04-29",
    "SVENDTC": "2013-04-29"
  },
  {
    "STUDYID": "CDISCPILOT01",
    "DOMAIN": "SV",
    "USUBJID": "01-703-013",
    "SVSEQ": 3,
    "VISITNUM": 3,
    "VISIT": "WEEK 2",
    "VISITDY": 15,
    "SVSTDTC": "2013-05-13",
    "SVENDTC": "2013-05-13"
  },
  {
    "STUDYID": "CDISCPILOT01",
    "DOMAIN": "SV",
    "USUBJID": "01-703-013",
    "SVSEQ": 4,
    "VISITNUM": 4,
    "VISIT": "WEEK 4",
    "VISITDY": 29,
    "SVSTDTC": "2013-05-26",
    "SVENDTC": "2013-05-26"
  },
  {
    "STUDYID": "CDISCPILOT01",
    "DOMAIN": "SV",
    "USUBJID": "01-703-013",
    "SVSEQ": 5,
    "VISITNUM": 5,
    "VISIT": "WEEK 8",
    "VISITDY": 57,
    "SVSTDTC": "2013-06-22",
    "SVENDTC": "2013-06-22"
  },
  {
    "STUDYID": "CDISCPILOT01",
    "DOMAIN": "SV",
    "USUBJID": "01-703-013",
    "SVSEQ": 6,
    "VISITNUM": 6,
    "VISIT": "WEEK 12",
    "VISITDY": 85,
    "SVSTDTC": "2013-07-25",
    "SVENDTC": "2013-07-25"
  },
  {
    "STUDYID": "CDISCPILOT01",
    "DOMAIN": "SV",
    "USUBJID": "01-703-013",
    "SVSEQ": 7,
    "VISITNUM": 7,
    "VISIT": "WEEK 16",
    "VISITDY": 113,
    "SVSTDTC": "2013-08-18",
    "SVENDTC": "2013-08-18"
  },
  {
    "STUDYID": "CDISCPILOT01",
    "DOMAIN": "SV",
    "USUBJID": "01-703-013",
    "SVSEQ": 8,
    "VISITNUM": 10,
    "VISIT": "END OF TREATMENT",
    "VISITDY": 120,
    "SVSTDTC": "2013-08-26",
    "SVENDTC": "2013-08-26"
  },
  {
    "STUDYID": "CDISCPILOT01",
    "DOMAIN": "SV",
    "USUBJID": "01-703-014",
    "SVSEQ": 1,
    "VISITNUM": 1,
    "VISIT": "SCREENING",
    "VISITDY": -14,
    "SVSTDTC": "2013-06-30",
    "SVENDTC": "2013-06-30"
  },
  {
    "STUDYID": "CDISCPILOT01",
    "DOMAIN": "SV",
    "USUBJID": "01-703-014",
    "SVSEQ": 2,
    "VISITNUM": 2,
    "VISIT": "BASELINE",
    "VISITDY": 1,
    "SVSTDTC": "2013-07-17",
    "SVENDTC": "2013-07-17"
  },
  {
    "STUDYID": "CDISCPILOT01",
    "DOMAIN": "SV",
    "USUBJID": "01-703-014",
    "SVSEQ": 3,
    "VISITNUM": 3,
    "VISIT": "WEEK 2",
    "VISITDY": 15,
    "SVSTDTC": "2013-07-29",
    "SVENDTC": "2013-07-29"
  },
  {
    "STUDYID": "CDISCPILOT01",
    "DOMAIN": "SV",
    "USUBJID": "01-703-014",
    "SVSEQ": 4,
    "VISITNUM": 4,
    "VISIT": "WEEK 4",
    "VISITDY": 29,
    "SVSTDTC": "2013-08-17",
    "SVENDTC": "2013-08-17"
  },
  {
    "STUDYID": "CDISCPILOT01",
    "DOMAIN": "SV",
    "USUBJID": "01-703-014",
    "SVSEQ": 5,
    "VISITNUM": 10,
    "VISIT": "END OF TREATMENT",
    "VISITDY": 36,
    "SVSTDTC": "2013-08-19",
    "SVENDTC": "2013-08-19"
  },
  {
    "STUDYID": "CDISCPILOT01",
    "DOMAIN": "SV",
    "USUBJID": "01-703-015",
    "SVSEQ": 1,
    "VISITNUM": 1,
    "VISIT": "SCREENING",
    "VISITDY": -14,
    "SVSTDTC": "2013-02-01",
    "SVENDTC": "2013-02-01"
  },
  {
    "STUDYID": "CDISCPILOT01",
    "DOMAIN": "SV",
    "USUBJID": "01-703-015",
    "SVSEQ": 2,
    "VISITNUM": 2,
    "VISIT": "BASELINE",
    "VISITDY": 1,
    "SVSTDTC": "2013-02-09",
    "SVENDTC": "2013-02-09"
  },
  {
    "STUDYID": "CDISCPILOT01",
    "DOMAIN": "SV",
    "USUBJID": "01-703-015",
    "SVSEQ": 3,
    "VISITNUM": 3,
    "VISIT": "WEEK 2",
    "VISITDY": 15,
    "SVSTDTC": "2013-02-27",
    "SVENDTC": "2013-02-27"
  },
  {
    "STUDYID": "CDISCPILOT01",
    "DOMAIN": "SV",
    "USUBJID": "01-703-015",
    "SVSEQ": 4,
    "VISITNUM": 4,
    "VISIT": "WEEK 4",
    "VISITDY": 29,
    "SVSTDTC": "2013-03-13",
    "SVENDTC": "2013-03-13"
  },
  {
    "STUDYID": "CDISCPILOT01",
    "DOMAIN": "SV",
    "USUBJID": "01-703-015",
    "SVSEQ": 5,
    "VISITNUM": 5,
    "VISIT": "WEEK 8",
    "VISITDY": 57,
    "SVSTDTC": "2013-04-08",
    "SVENDTC": "2013-04-08"
  },
  {
    "STUDYID": "CDISCPILOT01",
    "DOMAIN": "SV",
    "USUBJID": "01-703-015",
    "SVSEQ": 6,
    "VISITNUM": 6,
    "VISIT": "WEEK 12",
    "VISITDY": 85,
    "SVSTDTC": "2013-05-03",
    "SVENDTC": "2013-05-03"
  },
  {
    "STUDYID": "CDISCPILOT01",
    "DOMAIN": "SV",
    "USUBJID": "01-703-015",
    "SVSEQ": 7,
    "VISITNUM": 7,
    "VISIT": "WEEK 16",
    "VISITDY": 113,
    "SVSTDTC": "2013-06-05",
    "SVENDTC": "2013-06-05"
  },
  {
    "STUDYID": "CDISCPILOT01",
    "DOMAIN": "SV",
    "USUBJID": "01-703-015",
    "SVSEQ": 8,
    "VISITNUM": 8,
    "VISIT": "WEEK 20",
    "VISITDY": 141,
    "SVSTDTC": "2013-06-28",
    "SVENDTC": "2013-06-28"
  },
  {
    "STUDYID": "CDISCPILOT01",
    "DOMAIN": "SV",
    "USUBJID": "01-703-015",
    "SVSEQ": 9,
    "VISITNUM": 9,
    "VISIT": "WEEK 24",
    "VISITDY": 169,
    "SVSTDTC": "2013-07-29",
    "SVENDTC": "2013-07-29"
  },
  {
    "STUDYID": "CDISCPILOT01",
    "DOMAIN": "SV",
    "USUBJID": "01-703-015",
    "SVSEQ": 10,
    "VISITNUM": 10,
    "VISIT": "END OF TREATMENT",
    "VISITDY": 169,
    "SVSTDTC": "2013-08-01",
    "SVENDTC": "2013-08-01"
  },
  {
    "STUDYID": "CDISCPILOT01",
    "DOMAIN": "SV",
    "USUBJID": "01-703-015",
    "SVSEQ": 11,
    "VISITNUM": 11,
    "VISIT": "WEEK 26",
    "VISITDY": 183,
    "SVSTDTC": "2013-08-11",
    "SVENDTC": "2013-08-11"
  },
  {
    "STUDYID": "CDISCPILOT01",
    "DOMAIN": "SV",
    "USUBJID": "01-703-016",
    "SVSEQ": 1,
    "VISITNUM": 1,
    "VISIT": "SCREENING",
    "VISITDY": -14,
    "SVSTDTC": "2013-04-20",
    "SVENDTC": "2013-04-20"
  },
  {
    "STUDYID": "CDISCPILOT01",
    "DOMAIN": "SV",
    "USUBJID": "01-703-016",
    "SVSEQ": 2,
    "VISITNUM": 2,
    "VISIT": "BASELINE",
    "VISITDY": 1,
    "SVSTDTC": "2013-05-02",
    "SVENDTC": "2013-05-02"
  },
  {
    "STUDYID": "CDISCPILOT01",
    "DOMAIN": "SV",
    "USUBJID": "01-703-016",
    "SVSEQ": 3,
    "VISITNUM": 3,
    "VISIT": "WEEK 2",
    "VISITDY": 15,
    "SVSTDTC": "2013-05-18",
    "SVENDTC": "2013-05-18"
  },
  {
    "STUDYID": "CDISCPILOT01",
    "DOMAIN": "SV",
    "USUBJID": "01-703-016",
    "SVSEQ": 4,
    "VISITNUM": 4,
    "VISIT": "WEEK 4",
    "VISITDY": 29,
    "SVSTDTC": "2013-05-29",
    "SVENDTC": "2013-05-29"
  },
  {
    "STUDYID": "CDISCPILOT01",
    "DOMAIN": "SV",
    "USUBJID": "01-703-016",
    "SVSEQ": 5,
    "VISITNUM": 5,
    "VISIT": "WEEK 8",
    "VISITDY": 57,
    "SVSTDTC": "2013-06-25",
    "SVENDTC": "2013-06-25"
  },
  {
    "STUDYID": "CDISCPILOT01",
    "DOMAIN": "SV",
    "USUBJID": "01-703-016",
    "SVSEQ": 6,
    "VISITNUM": 6,
    "VISIT": "WEEK 12",
    "VISITDY": 85,
    "SVSTDTC": "2013-07-24",
    "SVENDTC": "2013-07-24"
  },
  {
    "STUDYID": "CDISCPILOT01",
    "DOMAIN": "SV",
    "USUBJID": "01-703-016",
    "SVSEQ": 7,
    "VISITNUM": 10,
    "VISIT": "END OF TREATMENT",
    "VISITDY": 91,
    "SVSTDTC": "2013-07-31",
    "SVENDTC": "2013-07-31"
  },
  {
    "STUDYID": "CDISCPILOT01",
    "DOMAIN": "SV",
    "USUBJID": "01-703-017",
    "SVSEQ": 1,
    "VISITNUM": 1,
    "VISIT": "SCREENING",
    "VISITDY": -14,
    "SVSTDTC": "2013-11-01",
    "SVENDTC": "2013-11-01"
  },
  {
    "STUDYID": "CDISCPILOT01",
    "DOMAIN": "SV",
    "USUBJID": "01-703-017",
    "SVSEQ": 2,
    "VISITNUM": 2,
    "VISIT": "BASELINE",
    "VISITDY": 1,
    "SVSTDTC": "2013-11-17",
    "SVENDTC": "2013-11-17"
  },
  {
    "STUDYID": "CDISCPILOT01",
    "DOMAIN": "SV",
    "USUBJID": "01-703-017",
    "SVSEQ": 3,
    "VISITNUM": 3,
    "VISIT": "WEEK 2",
    "VISITDY": 15,
    "SVSTDTC": "2013-12-01",
    "SVENDTC": "2013-12-01"
  },
  {
    "STUDYID": "CDISCPILOT01",
    "DOMAIN": "SV",
    "USUBJID": "01-703-017",
    "SVSEQ": 4,
    "VISITNUM": 4,
    "VISIT": "WEEK 4",
    "VISITDY": 29,
    "SVSTDTC": "2013-12-18",
    "SVENDTC": "2013-12-18"
  },
  {
    "STUDYID": "CDISCPILOT01",
    "DOMAIN": "SV",
    "USUBJID": "01-703-017",
    "SVSEQ": 5,
    "VISITNUM": 10,
    "VISIT": "END OF TREATMENT",
    "VISITDY": 32,
    "SVSTDTC": "2013-12-17",
    "SVENDTC": "2013-12-17"
  },
  {
    "STUDYID": "CDISCPILOT01",
    "DOMAIN": "SV",
    "USUBJID": "01-703-018",
    "SVSEQ": 1,
    "VISITNUM": 1,
    "VISIT": "SCREENING",
    "VISITDY": -14,
    "SVSTDTC": "2013-08-09",
    "SVENDTC": "2013-08-09"
  },
  {
    "STUDYID": "CDISCPILOT01",
    "DOMAIN": "SV",
    "USUBJID": "01-703-018",
    "SVSEQ": 2,
    "VISITNUM": 2,
    "VISIT": "BASELINE",
    "VISITDY": 1,
    "SVSTDTC": "2013-08-21",
    "SVENDTC": "2013-08-21"
  },
  {
    "STUDYID": "CDISCPILOT01",
    "DOMAIN": "SV",
    "USUBJID": "01-703-018",
    "SVSEQ": 3,
    "VISITNUM": 3,
    "VISIT": "WEEK 2",
    "VISITDY": 15,
    "SVSTDTC": "2013-09-07",
    "SVENDTC": "2013-09-07"
  },
  {
    "STUDYID": "CDISCPILOT01",
    "DOMAIN": "SV",
    "USUBJID": "01-703-018",
    "SVSEQ": 4,
    "VISITNUM": 4,
    "VISIT": "WEEK 4",
    "VISITDY": 29,
    "SVSTDTC": "2013-09-20",
    "SVENDTC": "2013-09-20"
  },
  {
    "STUDYID": "CDISCPILOT01",
    "DOMAIN": "SV",
    "USUBJID": "01-703-018",
    "SVSEQ": 5,
    "VISITNUM": 10,
    "VISIT": "END OF TREATMENT",
    "VISITDY": 34,
    "SVSTDTC": "2013-09-27",
    "SVENDTC": "2013-09-27"
  },
  {
    "STUDYID": "CDISCPILOT01",
    "DOMAIN": "SV",
    "USUBJID": "01-703-019",
    "SVSEQ": 1,
    "VISITNUM": 1,
    "VISIT": "SCREENING",
    "VISITDY": -14,
    "SVSTDTC": "2013-10-15",
    "SVENDTC": "2013-10-15"
  },
  {
    "STUDYID": "CDISCPILOT01",
    "DOMAIN": "SV",
    "USUBJID": "01-703-019",
    "SVSEQ": 2,
    "VISITNUM": 2,
    "VISIT": "BASELINE",
    "VISITDY": 1,
    "SVSTDTC": "2013-11-01",
    "SVENDTC": "2013-11-01"
  },
  {
    "STUDYID": "CDISCPILOT01",
    "DOMAIN": "SV",
    "USUBJID": "01-703-019",
    "SVSEQ": 3,
    "VISITNUM": 3,
    "VISIT": "WEEK 2",
    "VISITDY": 15,
    "SVSTDTC": "2013-11-19",
    "SVENDTC": "2013-11-19"
  },
  {
    "STUDYID": "CDISCPILOT01",
    "DOMAIN": "SV",
    "USUBJID": "01-703-019",
    "SVSEQ": 4,
    "VISITNUM": 4,
    "VISIT": "WEEK 4",
    "VISITDY": 29,
    "SVSTDTC": "2013-11-30",
    "SVENDTC": "2013-11-30"
  },
  {
    "STUDYID": "CDISCPILOT01",
    "DOMAIN": "SV",
    "USUBJID": "01-703-019",
    "SVSEQ": 5,
    "VISITNUM": 5,
    "VISIT": "WEEK 8",
    "VISITDY": 57,
    "SVSTDTC": "2013-12-27",
    "SVENDTC": "2013-12-27"
  },
  {
    "STUDYID": "CDISCPILOT01",
    "DOMAIN": "SV",
    "USUBJID": "01-703-019",
    "SVSEQ": 6,
    "VISITNUM": 6,
    "VISIT": "WEEK 12",
    "VISITDY": 85,
    "SVSTDTC": "2014-01-29",
    "SVENDTC": "2014-01-29"
  },
  {
    "STUDYID": "CDISCPILOT01",
    "DOMAIN": "SV",
    "USUBJID": "01-703-019",
    "SVSEQ": 7,
    "VISITNUM": 7,
    "VISIT": "WEEK 16",
    "VISITDY": 113,
    "SVSTDTC": "2014-02-25",
    "SVENDTC": "2014-02-25"
  },
  {
    "STUDYID": "CDISCPILOT01",
    "DOMAIN": "SV",
    "USUBJID": "01-703-019",
    "SVSEQ": 8,
    "VISITNUM": 8,
    "VISIT": "WEEK 20",
    "VISITDY": 141,
    "SVSTDTC": "2014-03-21",
    "SVENDTC": "2014-03-21"
  },
  {
    "STUDYID": "CDISCPILOT01",
    "DOMAIN": "SV",
    "USUBJID": "01-703-019",
    "SVSEQ": 9,
    "VISITNUM": 9,
    "VISIT": "WEEK 24",
    "VISITDY": 169,
    "SVSTDTC": "2014-04-18",
    "SVENDTC": "2014-04-18"
  },
  {
    "STUDYID": "CDISCPILOT01",
    "DOMAIN": "SV",
    "USUBJID": "01-703-019",
    "SVSEQ": 10,
    "VISITNUM": 10,
    "VISIT": "END OF TREATMENT",
    "VISITDY": 169,
    "SVSTDTC": "2014-04-18",
    "SVENDTC": "2014-04-18"
  },
  {
    "STUDYID": "CDISCPILOT01",
    "DOMAIN": "SV",
    "USUBJID": "01-703-019",
    "SVSEQ": 11,
    "VISITNUM": 11,
    "VISIT": "WEEK 26",
    "VISITDY": 183,
    "SVSTDTC": "2014-05-03",
    "SVENDTC": "2014-05-03"
  },
  {
    "STUDYID": "CDISCPILOT01",
    "DOMAIN": "SV",
    "USUBJID": "01-703-020",
    "SVSEQ": 1,
    "VISITNUM": 1,
    "VISIT": "SCREENING",
    "VISITDY": -14,
    "SVSTDTC": "2013-06-27",
    "SVENDTC": "2013-06-27"
  },
  {
    "STUDYID": "CDISCPILOT01",
    "DOMAIN": "SV",
    "USUBJID": "01-703-020",
    "SVSEQ": 2,
    "VISITNUM": 2,
    "VISIT": "BASELINE",
    "VISITDY": 1,
    "SVSTDTC": "2013-07-07",
    "SVENDTC": "2013-07-07"
  },
  {
    "STUDYID": "CDISCPILOT01",
    "DOMAIN": "SV",
    "USUBJID": "01-703-020",
    "SVSEQ": 3,
    "VISITNUM": 3,
    "VISIT": "WEEK 2",
    "VISITDY": 15,
    "SVSTDTC": "2013-07-23",
    "SVENDTC": "2013-07-23"
  },
  {
    "STUDYID": "CDISCPILOT01",
    "DOMAIN": "SV",
    "USUBJID": "01-703-020",
    "SVSEQ": 4,
    "VISITNUM": 4,
    "VISIT": "WEEK 4",
    "VISITDY": 29,
    "SVSTDTC": "2013-08-03",
    "SVENDTC": "2013-08-03"
  },
  {
    "STUDYID": "CDISCPILOT01",
    "DOMAIN": "SV",
    "USUBJID": "01-703-020",
    "SVSEQ": 5,
    "VISITNUM": 5,
    "VISIT": "WEEK 8",
    "VISITDY": 57,
    "SVSTDTC": "2013-08-30",
    "SVENDTC": "2013-08-30"
  },
  {
    "STUDYID": "CDISCPILOT01",
    "DOMAIN": "SV",
    "USUBJID": "01-703-020",
    "SVSEQ": 6,
    "VISITNUM": 6,
    "VISIT": "WEEK 12",
    "VISITDY": 85,
    "SVSTDTC": "2013-09-28",
    "SVENDTC": "2013-09-28"
  },
  {
    "STUDYID": "CDISCPILOT01",
    "DOMAIN": "SV",
    "USUBJID": "01-703-020",
    "SVSEQ": 7,
    "VISITNUM": 7,
    "VISIT": "WEEK 16",
    "VISITDY": 113,
    "SVSTDTC": "2013-10-28",
    "SVENDTC": "2013-10-28"
  },
  {
    "STUDYID": "CDISCPILOT01",
    "DOMAIN": "SV",
    "USUBJID": "01-703-020",
    "SVSEQ": 8,
    "VISITNUM": 8,
    "VISIT": "WEEK 20",
    "VISITDY": 141,
    "SVSTDTC": "2013-11-27",
    "SVENDTC": "2013-11-27"
  },
  {
    "STUDYID": "CDISCPILOT01",
    "DOMAIN": "SV",
    "USUBJID": "01-703-020",
    "SVSEQ": 9,
    "VISITNUM": 9,
    "VISIT": "WEEK 24",
    "VISITDY": 169,
    "SVSTDTC": "2013-12-22",
    "SVENDTC": "2013-12-22"
  },
  {
    "STUDYID": "CDISCPILOT01",
    "DOMAIN": "SV",
    "USUBJID": "01-703-020",
    "SVSEQ": 10,
    "VISITNUM": 10,
    "VISIT": "END OF TREATMENT",
    "VISITDY": 176,
    "SVSTDTC": "2014-01-02",
    "SVENDTC": "2014-01-02"
  },
  {
    "STUDYID": "CDISCPILOT01",
    "DOMAIN": "SV",
    "USUBJID": "01-703-020",
    "SVSEQ": 11,
    "VISITNUM": 11,
    "VISIT": "WEEK 26",
    "VISITDY": 183,
    "SVSTDTC": "2014-01-07",
    "SVENDTC": "2014-01-07"
  },
  {
    "STUDYID": "CDISCPILOT01",
    "DOMAIN": "SV",
    "USUBJID": "01-704-001",
    "SVSEQ": 1,
    "VISITNUM": 1,
    "VISIT": "SCREENING",
    "VISITDY": -14,
    "SVSTDTC": "2013-12-05",
    "SVENDTC": "2013-12-05"
  },
  {
    "STUDYID": "CDISCPILOT01",
    "DOMAIN": "SV",
    "USUBJID": "01-704-001",
    "SVSEQ": 2,
    "VISITNUM": 2,
    "VISIT": "BASELINE",
    "VISITDY": 1,
    "SVSTDTC": "2013-12-11",
    "SVENDTC": "2013-12-11"
  },
  {
    "STUDYID": "CDISCPILOT01",
    "DOMAIN": "SV",
    "USUBJID": "01-704-001",
    "SVSEQ": 3,
    "VISITNUM": 3,
    "VISIT": "WEEK 2",
    "VISITDY": 15,
    "SVSTDTC": "2013-12-28",
    "SVENDTC": "2013-12-28"
  },
  {
    "STUDYID": "CDISCPILOT01",
    "DOMAIN": "SV",
    "USUBJID": "01-704-001",
    "SVSEQ": 4,
    "VISITNUM": 4,
    "VISIT": "WEEK 4",
    "VISITDY": 29,
    "SVSTDTC": "2014-01-10",
    "SVENDTC": "2014-01-10"
  },
  {
    "STUDYID": "CDISCPILOT01",
    "DOMAIN": "SV",
    "USUBJID": "01-704-001",
    "SVSEQ": 5,
    "VISITNUM": 5,
    "VISIT": "WEEK 8",
    "VISITDY": 57,
    "SVSTDTC": "2014-02-05",
    "SVENDTC": "2014-02-05"
  },
  {
    "STUDYID": "CDISCPILOT01",
    "DOMAIN": "SV",
    "USUBJID": "01-704-001",
    "SVSEQ": 6,
    "VISITNUM": 6,
    "VISIT": "WEEK 12",
    "VISITDY": 85,
    "SVSTDTC": "2014-03-09",
    "SVENDTC": "2014-03-09"
  },
  {
    "STUDYID": "CDISCPILOT01",
    "DOMAIN": "SV",
    "USUBJID": "01-704-001",
    "SVSEQ": 7,
    "VISITNUM": 7,
    "VISIT": "WEEK 16",
    "VISITDY": 113,
    "SVSTDTC": "2014-04-02",
    "SVENDTC": "2014-04-02"
  },
  {
    "STUDYID": "CDISCPILOT01",
    "DOMAIN": "SV",
    "USUBJID": "01-704-001",
    "SVSEQ": 8,
    "VISITNUM": 8,
    "VISIT": "WEEK 20",
    "VISITDY": 141,
    "SVSTDTC": "2014-05-06",
    "SVENDTC": "2014-05-06"
  },
  {
    "STUDYID": "CDISCPILOT01",
    "DOMAIN": "SV",
    "USUBJID": "01-704-001",
    "SVSEQ": 9,
    "VISITNUM": 9,
    "VISIT": "WEEK 24",
    "VISITDY": 169,
    "SVSTDTC": "2014-06-01",
    "SVENDTC": "2014-06-01"
  },
  {
    "STUDYID": "CDISCPILOT01",
    "DOMAIN": "SV",
    "USUBJID": "01-704-001",
    "SVSEQ": 10,
    "VISITNUM": 10,
    "VISIT": "END OF TREATMENT",
    "VISITDY": 169,
    "SVSTDTC": "2014-06-01",
    "SVENDTC": "2014-06-01"
  },
  {
    "STUDYID": "CDISCPILOT01",
    "DOMAIN": "SV",
    "USUBJID": "01-704-001",
    "SVSEQ": 11,
    "VISITNUM": 11,
    "VISIT": "WEEK 26",
    "VISITDY": 183,
    "SVSTDTC": "2014-06-15",
    "SVENDTC": "2014-06-15"
  },
  {
    "STUDYID": "CDISCPILOT01",
    "DOMAIN": "SV",
    "USUBJID": "01-704-002",
    "SVSEQ": 1,
    "VISITNUM": 1,
    "VISIT": "SCREENING",
    "VISITDY": -14,
    "SVSTDTC": "2013-02-11",
    "SVENDTC": "2013-02-11"
  },
  {
    "STUDYID": "CDISCPILOT01",
    "DOMAIN": "SV",
    "USUBJID": "01-704-002",
    "SVSEQ": 2,
    "VISITNUM": 2,
    "VISIT": "BASELINE",
    "VISITDY": 1,
    "SVSTDTC": "2013-02-22",
    "SVENDTC": "2013-02-22"
  },
  {
    "STUDYID": "CDISCPILOT01",
    "DOMAIN": "SV",
    "USUBJID": "01-704-002",
    "SVSEQ": 3,
    "VISITNUM": 3,
    "VISIT": "WEEK 2",
    "VISITDY": 15,
    "SVSTDTC": "2013-03-08",
    "SVENDTC": "2013-03-08"
  },
  {
    "STUDYID": "CDISCPILOT01",
    "DOMAIN": "SV",
    "USUBJID": "01-704-002",
    "SVSEQ": 4,
    "VISITNUM": 4,
    "VISIT": "WEEK 4",
    "VISITDY": 29,
    "SVSTDTC": "2013-03-24",
    "SVENDTC": "2013-03-24"
  },
  {
    "STUDYID": "CDISCPILOT01",
    "DOMAIN": "SV",
    "USUBJID": "01-704-002",
    "SVSEQ": 5,
    "VISITNUM": 5,
    "VISIT": "WEEK 8",
    "VISITDY": 57,
    "SVSTDTC": "2013-04-17",
    "SVENDTC": "2013-04-17"
  },
  {
    "STUDYID": "CDISCPILOT01",
    "DOMAIN": "SV",
    "USUBJID": "01-704-002",
    "SVSEQ": 6,
    "VISITNUM": 6,
    "VISIT": "WEEK 12",
    "VISITDY": 85,
    "SVSTDTC": "2013-05-20",
    "SVENDTC": "2013-05-20"
  },
  {
    "STUDYID": "CDISCPILOT01",
    "DOMAIN": "SV",
    "USUBJID": "01-704-002",
    "SVSEQ": 7,
    "VISITNUM": 7,
    "VISIT": "WEEK 16",
    "VISITDY": 113,
    "SVSTDTC": "2013-06-15",
    "SVENDTC": "2013-06-15"
  },
  {
    "STUDYID": "CDISCPILOT01",
    "DOMAIN": "SV",
    "USUBJID": "01-704-002",
    "SVSEQ": 8,
    "VISITNUM": 8,
    "VISIT": "WEEK 20",
    "VISITDY": 141,
    "SVSTDTC": "2013-07-12",
    "SVENDTC": "2013-07-12"
  },
  {
    "STUDYID": "CDISCPILOT01",
    "DOMAIN": "SV",
    "USUBJID": "01-704-002",
    "SVSEQ": 9,
    "VISITNUM": 9,
    "VISIT": "WEEK 24",
    "VISITDY": 169,
    "SVSTDTC": "2013-08-06",
    "SVENDTC": "2013-08-06"
  },
  {
    "STUDYID": "CDISCPILOT01",
    "DOMAIN": "SV",
    "USUBJID": "01-704-002",
    "SVSEQ": 10,
    "VISITNUM": 10,
    "VISIT": "END OF TREATMENT",
    "VISITDY": 169,
    "SVSTDTC": "2013-08-06",
    "SVENDTC": "2013-08-06"
  },
  {
    "STUDYID": "CDISCPILOT01",
    "DOMAIN": "SV",
    "USUBJID": "01-704-002",
    "SVSEQ": 11,
    "VISITNUM": 11,
    "VISIT": "WEEK 26",
    "VISITDY": 183,
    "SVSTDTC": "2013-08-20",
    "SVENDTC": "2013-08-20"
  },
  {
    "STUDYID": "CDISCPILOT01",
    "DOMAIN": "SV",
    "USUBJID": "01-704-003",
    "SVSEQ": 1,
    "VISITNUM": 1,
    "VISIT": "SCREENING",
    "VISITDY": -14,
    "SVSTDTC": "2013-06-04",
    "SVENDTC": "2013-06-04"
  },
  {
    "STUDYID": "CDISCPILOT01",
    "DOMAIN": "SV",
    "USUBJID": "01-704-003",
    "SVSEQ": 2,
    "VISITNUM": 2,
    "VISIT": "BASELINE",
    "VISITDY": 1,
    "SVSTDTC": "2013-06-25",
    "SVENDTC": "2013-06-25"
  },
  {
    "STUDYID": "CDISCPILOT01",
    "DOMAIN": "SV",
    "USUBJID": "01-704-003",
    "SVSEQ": 3,
    "VISITNUM": 3,
    "VISIT": "WEEK 2",
    "VISITDY": 15,
    "SVSTDTC": "2013-07-08",
    "SVENDTC": "2013-07-08"
  },
  {
    "STUDYID": "CDISCPILOT01",
    "DOMAIN": "SV",
    "USUBJID": "01-704-003",
    "SVSEQ": 4,
    "VISITNUM": 4,
    "VISIT": "WEEK 4",
    "VISITDY": 29,
    "SVSTDTC": "2013-07-18",
    "SVENDTC": "2013-07-18"
  },
  {
    "STUDYID": "CDISCPILOT01",
    "DOMAIN": "SV",
    "USUBJID": "01-704-003",
    "SVSEQ": 5,
    "VISITNUM": 5,
    "VISIT": "WEEK 8",
    "VISITDY": 57,
    "SVSTDTC": "2013-08-19",
    "SVENDTC": "2013-08-19"
  },
  {
    "STUDYID": "CDISCPILOT01",
    "DOMAIN": "SV",
    "USUBJID": "01-704-003",
    "SVSEQ": 6,
    "VISITNUM": 6,
    "VISIT": "WEEK 12",
    "VISITDY": 85,
    "SVSTDTC": "2013-09-18",
    "SVENDTC": "2013-09-18"
  },
  {
    "STUDYID": "CDISCPILOT01",
    "DOMAIN": "SV",
    "USUBJID": "01-704-003",
    "SVSEQ": 7,
    "VISITNUM": 7,
    "VISIT": "WEEK 16",
    "VISITDY": 113,
    "SVSTDTC": "2013-10-11",
    "SVENDTC": "2013-10-11"
  },
  {
    "STUDYID": "CDISCPILOT01",
    "DOMAIN": "SV",
    "USUBJID": "01-704-003",
    "SVSEQ": 8,
    "VISITNUM": 8,
    "VISIT": "WEEK 20",
    "VISITDY": 141,
    "SVSTDTC": "2013-11-11",
    "SVENDTC": "2013-11-11"
  },
  {
    "STUDYID": "CDISCPILOT01",
    "DOMAIN": "SV",
    "USUBJID": "01-704-003",
    "SVSEQ": 9,
    "VISITNUM": 9,
    "VISIT": "WEEK 24",
    "VISITDY": 169,
    "SVSTDTC": "2013-12-11",
    "SVENDTC": "2013-12-11"
  },
  {
    "STUDYID": "CDISCPILOT01",
    "DOMAIN": "SV",
    "USUBJID": "01-704-003",
    "SVSEQ": 10,
    "VISITNUM": 10,
    "VISIT": "END OF TREATMENT",
    "VISITDY": 169,
    "SVSTDTC": "2013-12-11",
    "SVENDTC": "2013-12-11"
  },
  {
    "STUDYID": "CDISCPILOT01",
    "DOMAIN": "SV",
    "USUBJID": "01-704-003",
    "SVSEQ": 11,
    "VISITNUM": 11,
    "VISIT": "WEEK 26",
    "VISITDY": 183,
    "SVSTDTC": "2013-12-23",
    "SVENDTC": "2013-12-23"
  },
  {
    "STUDYID": "CDISCPILOT01",
    "DOMAIN": "SV",
    "USUBJID": "01-704-004",
    "SVSEQ": 1,
    "VISITNUM": 1,
    "VISIT": "SCREENING",
    "VISITDY": -14,
    "SVSTDTC": "2013-09-11",
    "SVENDTC": "2013-09-11"
  },
  {
    "STUDYID": "CDISCPILOT01",
    "DOMAIN": "SV",
    "USUBJID": "01-704-004",
    "SVSEQ": 2,
    "VISITNUM": 2,
    "VISIT": "BASELINE",
    "VISITDY": 1,
    "SVSTDTC": "2013-09-30",
    "SVENDTC": "2013-09-30"
  },
  {
    "STUDYID": "CDISCPILOT01",
    "DOMAIN": "SV",
    "USUBJID": "01-704-004",
    "SVSEQ": 3,
    "VISITNUM": 3,
    "VISIT": "WEEK 2",
    "VISITDY": 15,
    "SVSTDTC": "2013-10-13",
    "SVENDTC": "2013-10-13"
  },
  {
    "STUDYID": "CDISCPILOT01",
    "DOMAIN": "SV",
    "USUBJID": "01-704-004",
    "SVSEQ": 4,
    "VISITNUM": 4,
    "VISIT": "WEEK 4",
    "VISITDY": 29,
    "SVSTDTC": "2013-10-26",
    "SVENDTC": "2013-10-26"
  },
  {
    "STUDYID": "CDISCPILOT01",
    "DOMAIN": "SV",
    "USUBJID": "01-704-004",
    "SVSEQ": 5,
    "VISITNUM": 10,
    "VISIT": "END OF TREATMENT",
    "VISITDY": 32,
    "SVSTDTC": "2013-10-30",
    "SVENDTC": "2013-10-30"
  },
  {
    "STUDYID": "CDISCPILOT01",
    "DOMAIN": "SV",
    "USUBJID": "01-704-005",
    "SVSEQ": 1,
    "VISITNUM": 1,
    "VISIT": "SCREENING",
    "VISITDY": -14,
    "SVSTDTC": "2013-10-21",
    "SVENDTC": "2013-10-21"
  },
  {
    "STUDYID": "CDISCPILOT01",
    "DOMAIN": "SV",
    "USUBJID": "01-704-005",
    "SVSEQ": 2,
    "VISITNUM": 2,
    "VISIT": "BASELINE",
    "VISITDY": 1,
    "SVSTDTC": "2013-11-08",
    "SVENDTC": "2013-11-08"
  },
  {
    "STUDYID": "CDISCPILOT01",
    "DOMAIN": "SV",
    "USUBJID": "01-704-005",
    "SVSEQ": 3,
    "VISITNUM": 3,
    "VISIT": "WEEK 2",
    "VISITDY": 15,
    "SVSTDTC": "2013-11-21",
    "SVENDTC": "2013-11-21"
  },
  {
    "STUDYID": "CDISCPILOT01",
    "DOMAIN": "SV",
    "USUBJID": "01-704-005",
    "SVSEQ": 4,
    "VISITNUM": 4,
    "VISIT": "WEEK 4",
    "VISITDY": 29,
    "SVSTDTC": "2013-12-10",
    "SVENDTC": "2013-12-10"
  },
  {
    "STUDYID": "CDISCPILOT01",
    "DOMAIN": "SV",
    "USUBJID": "01-704-005",
    "SVSEQ": 5,
    "VISITNUM": 10,
    "VISIT": "END OF TREATMENT",
    "VISITDY": 30,
    "SVSTDTC": "2013-12-05",
    "SVENDTC": "2013-12-05"
  },
  {
    "STUDYID": "CDISCPILOT01",
    "DOMAIN": "SV",
    "USUBJID": "01-704-006",
    "SVSEQ": 1,
    "VISITNUM": 1,
    "VISIT": "SCREENING",
    "VISITDY": -14,
    "SVSTDTC": "2013-10-10",
    "SVENDTC": "2013-10-10"
  },
  {
    "STUDYID": "CDISCPILOT01",
    "DOMAIN": "SV",
    "USUBJID": "01-704-006",
    "SVSEQ": 2,
    "VISITNUM": 2,
    "VISIT": "BASELINE",
    "VISITDY": 1,
    "SVSTDTC": "2013-11-01",
    "SVENDTC": "2013-11-01"
  },
  {
    "STUDYID": "CDISCPILOT01",
    "DOMAIN": "SV",
    "USUBJID": "01-704-006",
    "SVSEQ": 3,
    "VISITNUM": 3,
    "VISIT": "WEEK 2",
    "VISITDY": 15,
    "SVSTDTC": "2013-11-15",
    "SVENDTC": "2013-11-15"
  },
  {
    "STUDYID": "CDISCPILOT01",
    "DOMAIN": "SV",
    "USUBJID": "01-704-006",
    "SVSEQ": 4,
    "VISITNUM": 10,
    "VISIT": "END OF TREATMENT",
    "VISITDY": 22,
    "SVSTDTC": "2013-11-16",
    "SVENDTC": "2013-11-16"
  },
  {
    "STUDYID": "CDISCPILOT01",
    "DOMAIN": "SV",
    "USUBJID": "01-704-007",
    "SVSEQ": 1,
    "VISITNUM": 1,
    "VISIT": "SCREENING",
    "VISITDY": -14,
    "SVSTDTC": "2013-12-06",
    "SVENDTC": "2013-12-06"
  },
  {
    "STUDYID": "CDISCPILOT01",
    "DOMAIN": "SV",
    "USUBJID": "01-704-007",
    "SVSEQ": 2,
    "VISITNUM": 2,
    "VISIT": "BASELINE",
    "VISITDY": 1,
    "SVSTDTC": "2013-12-15",
    "SVENDTC": "2013-12-15"
  },
  {
    "STUDYID": "CDISCPILOT01",
    "DOMAIN": "SV",
    "USUBJID": "01-704-007",
    "SVSEQ": 3,
    "VISITNUM": 3,
    "VISIT": "WEEK 2",
    "VISITDY": 15,
    "SVSTDTC": "2014-01-02",
    "SVENDTC": "2014-01-02"
  },
  {
    "STUDYID": "CDISCPILOT01",
    "DOMAIN": "SV",
    "USUBJID": "01-704-007",
    "SVSEQ": 4,
    "VISITNUM": 4,
    "VISIT": "WEEK 4",
    "VISITDY": 29,
    "SVSTDTC": "2014-01-15",
    "SVENDTC": "2014-01-15"
  },
  {
    "STUDYID": "CDISCPILOT01",
    "DOMAIN": "SV",
    "USUBJID": "01-704-007",
    "SVSEQ": 5,
    "VISITNUM": 5,
    "VISIT": "WEEK 8",
    "VISITDY": 57,
    "SVSTDTC": "2014-02-09",
    "SVENDTC": "2014-02-09"
  },
  {
    "STUDYID": "CDISCPILOT01",
    "DOMAIN": "SV",
    "USUBJID": "01-704-007",
    "SVSEQ": 6,
    "VISITNUM": 6,
    "VISIT": "WEEK 12",
    "VISITDY": 85,
    "SVSTDTC": "2014-03-12",
    "SVENDTC": "2014-03-12"
  },
  {
    "STUDYID": "CDISCPILOT01",
    "DOMAIN": "SV",
    "USUBJID": "01-704-007",
    "SVSEQ": 7,
    "VISITNUM": 7,
    "VISIT": "WEEK 16",
    "VISITDY": 113,
    "SVSTDTC": "2014-04-08",
    "SVENDTC": "2014-04-08"
  },
  {
    "STUDYID": "CDISCPILOT01",
    "DOMAIN": "SV",
    "USUBJID": "01-704-007",
    "SVSEQ": 8,
    "VISITNUM": 8,
    "VISIT": "WEEK 20",
    "VISITDY": 141,
    "SVSTDTC": "2014-05-06",
    "SVENDTC": "2014-05-06"
  },
  {
    "STUDYID": "CDISCPILOT01",
    "DOMAIN": "SV",
    "USUBJID": "01-704-007",
    "SVSEQ": 9,
    "VISITNUM": 9,
    "VISIT": "WEEK 24",
    "VISITDY": 169,
    "SVSTDTC": "2014-06-04",
    "SVENDTC": "2014-06-04"
  },
  {
    "STUDYID": "CDISCPILOT01",
    "DOMAIN": "SV",
    "USUBJID": "01-704-007",
    "SVSEQ": 10,
    "VISITNUM": 10,
    "VISIT": "END OF TREATMENT",
    "VISITDY": 169,
    "SVSTDTC": "2014-06-05",
    "SVENDTC": "2014-06-05"
  },
  {
    "STUDYID": "CDISCPILOT01",
    "DOMAIN": "SV",
    "USUBJID": "01-704-007",
    "SVSEQ": 11,
    "VISITNUM": 11,
    "VISIT": "WEEK 26",
    "VISITDY": 183,
    "SVSTDTC": "2014-06-15",
    "SVENDTC": "2014-06-15"
  },
  {
    "STUDYID": "CDISCPILOT01",
    "DOMAIN": "SV",
    "USUBJID": "01-704-008",
    "SVSEQ": 1,
    "VISITNUM": 1,
    "VISIT": "SCREENING",
    "VISITDY": -14,
    "SVSTDTC": "2013-06-25",
    "SVENDTC": "2013-06-25"
  },
  {
    "STUDYID": "CDISCPILOT01",
    "DOMAIN": "SV",
    "USUBJID": "01-704-008",
    "SVSEQ": 2,
    "VISITNUM": 2,
    "VISIT": "BASELINE",
    "VISITDY": 1,
    "SVSTDTC": "2013-07-07",
    "SVENDTC": "2013-07-07"
  },
  {
    "STUDYID": "CDISCPILOT01",
    "DOMAIN": "SV",
    "USUBJID": "01-704-008",
    "SVSEQ": 3,
    "VISITNUM": 3,
    "VISIT": "WEEK 2",
    "VISITDY": 15,
    "SVSTDTC": "2013-07-18",
    "SVENDTC": "2013-07-18"
  },
  {
    "STUDYID": "CDISCPILOT01",
    "DOMAIN": "SV",
    "USUBJID": "01-704-008",
    "SVSEQ": 4,
    "VISITNUM": 4,
    "VISIT": "WEEK 4",
    "VISITDY": 29,
    "SVSTDTC": "2013-08-02",
    "SVENDTC": "2013-08-02"
  },
  {
    "STUDYID": "CDISCPILOT01",
    "DOMAIN": "SV",
    "USUBJID": "01-704-008",
    "SVSEQ": 5,
    "VISITNUM": 5,
    "VISIT": "WEEK 8",
    "VISITDY": 57,
    "SVSTDTC": "2013-08-29",
    "SVENDTC": "2013-08-29"
  },
  {
    "STUDYID": "CDISCPILOT01",
    "DOMAIN": "SV",
    "USUBJID": "01-704-008",
    "SVSEQ": 6,
    "VISITNUM": 6,
    "VISIT": "WEEK 12",
    "VISITDY": 85,
    "SVSTDTC": "2013-09-28",
    "SVENDTC": "2013-09-28"
  },
  {
    "STUDYID": "CDISCPILOT01",
    "DOMAIN": "SV",
    "USUBJID": "01-704-008",
    "SVSEQ": 7,
    "VISITNUM": 7,
    "VISIT": "WEEK 16",
    "VISITDY": 113,
    "SVSTDTC": "2013-10-27",
    "SVENDTC": "2013-10-27"
  },
  {
    "STUDYID": "CDISCPILOT01",
    "DOMAIN": "SV",
    "USUBJID": "01-704-008",
    "SVSEQ": 8,
    "VISITNUM": 8,
    "VISIT": "WEEK 20",
    "VISITDY": 141,
    "SVSTDTC": "2013-11-24",
    "SVENDTC": "2013-11-24"
  },
  {
    "STUDYID": "CDISCPILOT01",
    "DOMAIN": "SV",
    "USUBJID": "01-704-008",
    "SVSEQ": 9,
    "VISITNUM": 9,
    "VISIT": "WEEK 24",
    "VISITDY": 169,
    "SVSTDTC": "2013-12-18",
    "SVENDTC": "2013-12-18"
  },
  {
    "STUDYID": "CDISCPILOT01",
    "DOMAIN": "SV",
    "USUBJID": "01-704-008",
    "SVSEQ": 10,
    "VISITNUM": 10,
    "VISIT": "END OF TREATMENT",
    "VISITDY": 169,
    "SVSTDTC": "2013-12-20",
    "SVENDTC": "2013-12-20"
  },
  {
    "STUDYID": "CDISCPILOT01",
    "DOMAIN": "SV",
    "USUBJID": "01-704-008",
    "SVSEQ": 11,
    "VISITNUM": 11,
    "VISIT": "WEEK 26",
    "VISITDY": 183,
    "SVSTDTC": "2014-01-05",
    "SVENDTC": "2014-01-05"
  },
  {
    "STUDYID": "CDISCPILOT01",
    "DOMAIN": "SV",
    "USUBJID": "01-704-009",
    "SVSEQ": 1,
    "VISITNUM": 1,
    "VISIT": "SCREENING",
    "VISITDY": -14,
    "SVSTDTC": "2013-06-25",
    "SVENDTC": "2013-06-25"
  },
  {
    "STUDYID": "CDISCPILOT01",
    "DOMAIN": "SV",
    "USUBJID": "01-704-009",
    "SVSEQ": 2,
    "VISITNUM": 2,
    "VISIT": "BASELINE",
    "VISITDY": 1,
    "SVSTDTC": "2013-07-12",
    "SVENDTC": "2013-07-12"
  },
  {
    "STUDYID": "CDISCPILOT01",
    "DOMAIN": "SV",
    "USUBJID": "01-704-009",
    "SVSEQ": 3,
    "VISITNUM": 3,
    "VISIT": "WEEK 2",
    "VISITDY": 15,
    "SVSTDTC": "2013-07-24",
    "SVENDTC": "2013-07-24"
  },
  {
    "STUDYID": "CDISCPILOT01",
    "DOMAIN": "SV",
    "USUBJID": "01-704-009",
    "SVSEQ": 4,
    "VISITNUM": 4,
    "VISIT": "WEEK 4",
    "VISITDY": 29,
    "SVSTDTC": "2013-08-07",
    "SVENDTC": "2013-08-07"
  },
  {
    "STUDYID": "CDISCPILOT01",
    "DOMAIN": "SV",
    "USUBJID": "01-704-009",
    "SVSEQ": 5,
    "VISITNUM": 5,
    "VISIT": "WEEK 8",
    "VISITDY": 57,
    "SVSTDTC": "2013-09-02",
    "SVENDTC": "2013-09-02"
  },
  {
    "STUDYID": "CDISCPILOT01",
    "DOMAIN": "SV",
    "USUBJID": "01-704-009",
    "SVSEQ": 6,
    "VISITNUM": 6,
    "VISIT": "WEEK 12",
    "VISITDY": 85,
    "SVSTDTC": "2013-10-06",
    "SVENDTC": "2013-10-06"
  },
  {
    "STUDYID": "CDISCPILOT01",
    "DOMAIN": "SV",
    "USUBJID": "01-704-009",
    "SVSEQ": 7,
    "VISITNUM": 7,
    "VISIT": "WEEK 16",
    "VISITDY": 113,
    "SVSTDTC": "2013-11-03",
    "SVENDTC": "2013-11-03"
  },
  {
    "STUDYID": "CDISCPILOT01",
    "DOMAIN": "SV",
    "USUBJID": "01-704-009",
    "SVSEQ": 8,
    "VISITNUM": 8,
    "VISIT": "WEEK 20",
    "VISITDY": 141,
    "SVSTDTC": "2013-12-01",
    "SVENDTC": "2013-12-01"
  },
  {
    "STUDYID": "CDISCPILOT01",
    "DOMAIN": "SV",
    "USUBJID": "01-704-009",
    "SVSEQ": 9,
    "VISITNUM": 9,
    "VISIT": "WEEK 24",
    "VISITDY": 169,
    "SVSTDTC": "2013-12-26",
    "SVENDTC": "2013-12-26"
  },
  {
    "STUDYID": "CDISCPILOT01",
    "DOMAIN": "SV",
    "USUBJID": "01-704-009",
    "SVSEQ": 10,
    "VISITNUM": 10,
    "VISIT": "END OF TREATMENT",
    "VISITDY": 176,
    "SVSTDTC": "2013-12-30",
    "SVENDTC": "2013-12-30"
  },
  {
    "STUDYID": "CDISCPILOT01",
    "DOMAIN": "SV",
    "USUBJID": "01-704-009",
    "SVSEQ": 11,
    "VISITNUM": 11,
    "VISIT": "WEEK 26",
    "VISITDY": 183,
    "SVSTDTC": "2014-01-11",
    "SVENDTC": "2014-01-11"
  },
  {
    "STUDYID": "CDISCPILOT01",
    "DOMAIN": "SV",
    "USUBJID": "01-704-010",
    "SVSEQ": 1,
    "VISITNUM": 1,
    "VISIT": "SCREENING",
    "VISITDY": -14,
    "SVSTDTC": "2013-09-14",
    "SVENDTC": "2013-09-14"
  },
  {
    "STUDYID": "CDISCPILOT01",
    "DOMAIN": "SV",
    "USUBJID": "01-704-010",
    "SVSEQ": 2,
    "VISITNUM": 2,
    "VISIT": "BASELINE",
    "VISITDY": 1,
    "SVSTDTC": "2013-09-24",
    "SVENDTC": "2013-09-24"
  },
  {
    "STUDYID": "CDISCPILOT01",
    "DOMAIN": "SV",
    "USUBJID": "01-704-010",
    "SVSEQ": 3,
    "VISITNUM": 3,
    "VISIT": "WEEK 2",
    "VISITDY": 15,
    "SVSTDTC": "2013-10-06",
    "SVENDTC": "2013-10-06"
  },
  {
    "STUDYID": "CDISCPILOT01",
    "DOMAIN": "SV",
    "USUBJID": "01-704-010",
    "SVSEQ": 4,
    "VISITNUM": 4,
    "VISIT": "WEEK 4",
    "VISITDY": 29,
    "SVSTDTC": "2013-10-20",
    "SVENDTC": "2013-10-20"
  },
  {
    "STUDYID": "CDISCPILOT01",
    "DOMAIN": "SV",
    "USUBJID": "01-704-010",
    "SVSEQ": 5,
    "VISITNUM": 5,
    "VISIT": "WEEK 8",
    "VISITDY": 57,
    "SVSTDTC": "2013-11-18",
    "SVENDTC": "2013-11-18"
  },
  {
    "STUDYID": "CDISCPILOT01",
    "DOMAIN": "SV",
    "USUBJID": "01-704-010",
    "SVSEQ": 6,
    "VISITNUM": 6,
    "VISIT": "WEEK 12",
    "VISITDY": 85,
    "SVSTDTC": "2013-12-16",
    "SVENDTC": "2013-12-16"
  },
  {
    "STUDYID": "CDISCPILOT01",
    "DOMAIN": "SV",
    "USUBJID": "01-704-010",
    "SVSEQ": 7,
    "VISITNUM": 7,
    "VISIT": "WEEK 16",
    "VISITDY": 113,
    "SVSTDTC": "2014-01-12",
    "SVENDTC": "2014-01-12"
  },
  {
    "STUDYID": "CDISCPILOT01",
    "DOMAIN": "SV",
    "USUBJID": "01-704-010",
    "SVSEQ": 8,
    "VISITNUM": 10,
    "VISIT": "END OF TREATMENT",
    "VISITDY": 114,
    "SVSTDTC": "2014-01-11",
    "SVENDTC": "2014-01-11"
  },
  {
    "STUDYID": "CDISCPILOT01",
    "DOMAIN": "SV",
    "USUBJID": "01-704-011",
    "SVSEQ": 1,
    "VISITNUM": 1,
    "VISIT": "SCREENING",
    "VISITDY": -14,
    "SVSTDTC": "2013-10-29",
    "SVENDTC": "2013-10-29"
  },
  {
    "STUDYID": "CDISCPILOT01",
    "DOMAIN": "SV",
    "USUBJID": "01-704-011",
    "SVSEQ": 2,
    "VISITNUM": 2,
    "VISIT": "BASELINE",
    "VISITDY": 1,
    "SVSTDTC": "2013-11-06",
    "SVENDTC": "2013-11-06"
  },
  {
    "STUDYID": "CDISCPILOT01",
    "DOMAIN": "SV",
    "USUBJID": "01-704-011",
    "SVSEQ": 3,
    "VISITNUM": 3,
    "VISIT": "WEEK 2",
    "VISITDY": 15,
    "SVSTDTC": "2013-11-26",
    "SVENDTC": "2013-11-26"
  },
  {
    "STUDYID": "CDISCPILOT01",
    "DOMAIN": "SV",
    "USUBJID": "01-704-011",
    "SVSEQ": 4,
    "VISITNUM": 4,
    "VISIT": "WEEK 4",
    "VISITDY": 29,
    "SVSTDTC": "2013-12-07",
    "SVENDTC": "2013-12-07"
  },
  {
    "STUDYID": "CDISCPILOT01",
    "DOMAIN": "SV",
    "USUBJID": "01-704-011",
    "SVSEQ": 5,
    "VISITNUM": 5,
    "VISIT": "WEEK 8",
    "VISITDY": 57,
    "SVSTDTC": "2014-01-06",
    "SVENDTC": "2014-01-06"
  },
  {
    "STUDYID": "CDISCPILOT01",
    "DOMAIN": "SV",
    "USUBJID": "01-704-011",
    "SVSEQ": 6,
    "VISITNUM": 6,
    "VISIT": "WEEK 12",
    "VISITDY": 85,
    "SVSTDTC": "2014-02-04",
    "SVENDTC": "2014-02-04"
  },
  {
    "STUDYID": "CDISCPILOT01",
    "DOMAIN": "SV",
    "USUBJID": "01-704-011",
    "SVSEQ": 7,
    "VISITNUM": 7,
    "VISIT": "WEEK 16",
    "VISITDY": 113,
    "SVSTDTC": "2014-03-04",
    "SVENDTC": "2014-03-04"
  },
  {
    "STUDYID": "CDISCPILOT01",
    "DOMAIN": "SV",
    "USUBJID": "01-704-011",
    "SVSEQ": 8,
    "VISITNUM": 8,
    "VISIT": "WEEK 20",
    "VISITDY": 141,
    "SVSTDTC": "2014-03-31",
    "SVENDTC": "2014-03-31"
  },
  {
    "STUDYID": "CDISCPILOT01",
    "DOMAIN": "SV",
    "USUBJID": "01-704-011",
    "SVSEQ": 9,
    "VISITNUM": 9,
    "VISIT": "WEEK 24",
    "VISITDY": 169,
    "SVSTDTC": "2014-04-24",
    "SVENDTC": "2014-04-24"
  },
  {
    "STUDYID": "CDISCPILOT01",
    "DOMAIN": "SV",
    "USUBJID": "01-704-011",
    "SVSEQ": 10,
    "VISITNUM": 10,
    "VISIT": "END OF TREATMENT",
    "VISITDY": 169,
    "SVSTDTC": "2014-04-25",
    "SVENDTC": "2014-04-25"
  },
  {
    "STUDYID": "CDISCPILOT01",
    "DOMAIN": "SV",
    "USUBJID": "01-704-011",
    "SVSEQ": 11,
    "VISITNUM": 11,
    "VISIT": "WEEK 26",
    "VISITDY": 183,
    "SVSTDTC": "2014-05-09",
    "SVENDTC": "2014-05-09"
  },
  {
    "STUDYID": "CDISCPILOT01",
    "DOMAIN": "SV",
    "USUBJID": "01-704-012",
    "SVSEQ": 1,
    "VISITNUM": 1,
    "VISIT": "SCREENING",
    "VISITDY": -14,
    "SVSTDTC": "2013-11-03",
    "SVENDTC": "2013-11-03"
  },
  {
    "STUDYID": "CDISCPILOT01",
    "DOMAIN": "SV",
    "USUBJID": "01-704-012",
    "SVSEQ": 2,
    "VISITNUM": 2,
    "VISIT": "BASELINE",
    "VISITDY": 1,
    "SVSTDTC": "2013-11-21",
    "SVENDTC": "2013-11-21"
  },
  {
    "STUDYID": "CDISCPILOT01",
    "DOMAIN": "SV",
    "USUBJID": "01-704-012",
    "SVSEQ": 3,
    "VISITNUM": 3,
    "VISIT": "WEEK 2",
    "VISITDY": 15,
    "SVSTDTC": "2013-12-03",
    "SVENDTC": "2013-12-03"
  },
  {
    "STUDYID": "CDISCPILOT01",
    "DOMAIN": "SV",
    "USUBJID": "01-704-012",
    "SVSEQ": 4,
    "VISITNUM": 4,
    "VISIT": "WEEK 4",
    "VISITDY": 29,
    "SVSTDTC": "2013-12-19",
    "SVENDTC": "2013-12-19"
  },
  {
    "STUDYID": "CDISCPILOT01",
    "DOMAIN": "SV",
    "USUBJID": "01-704-012",
    "SVSEQ": 5,
    "VISITNUM": 5,
    "VISIT": "WEEK 8",
    "VISITDY": 57,
    "SVSTDTC": "2014-01-14",
    "SVENDTC": "2014-01-14"
  },
  {
    "STUDYID": "CDISCPILOT01",
    "DOMAIN": "SV",
    "USUBJID": "01-704-012",
    "SVSEQ": 6,
    "VISITNUM": 10,
    "VISIT": "END OF TREATMENT",
    "VISITDY": 62,
    "SVSTDTC": "2014-01-16",
    "SVENDTC": "2014-01-16"
  },
  {
    "STUDYID": "CDISCPILOT01",
    "DOMAIN": "SV",
    "USUBJID": "01-704-013",
    "SVSEQ": 1,
    "VISITNUM": 1,
    "VISIT": "SCREENING",
    "VISITDY": -14,
    "SVSTDTC": "2013-04-20",
    "SVENDTC": "2013-04-20"
  },
  {
    "STUDYID": "CDISCPILOT01",
    "DOMAIN": "SV",
    "USUBJID": "01-704-013",
    "SVSEQ": 2,
    "VISITNUM": 2,
    "VISIT": "BASELINE",
    "VISITDY": 1,
    "SVSTDTC": "2013-05-03",
    "SVENDTC": "2013-05-03"
  },
  {
    "STUDYID": "CDISCPILOT01",
    "DOMAIN": "SV",
    "USUBJID": "01-704-013",
    "SVSEQ": 3,
    "VISITNUM": 3,
    "VISIT": "WEEK 2",
    "VISITDY": 15,
    "SVSTDTC": "2013-05-23",
    "SVENDTC": "2013-05-23"
  },
  {
    "STUDYID": "CDISCPILOT01",
    "DOMAIN": "SV",
    "USUBJID": "01-704-013",
    "SVSEQ": 4,
    "VISITNUM": 4,
    "VISIT": "WEEK 4",
    "VISITDY": 29,
    "SVSTDTC": "2013-06-03",
    "SVENDTC": "2013-06-03"
  },
  {
    "STUDYID": "CDISCPILOT01",
    "DOMAIN": "SV",
    "USUBJID": "01-704-013",
    "SVSEQ": 5,
    "VISITNUM": 5,
    "VISIT": "WEEK 8",
    "VISITDY": 57,
    "SVSTDTC": "2013-06-30",
    "SVENDTC": "2013-06-30"
  },
  {
    "STUDYID": "CDISCPILOT01",
    "DOMAIN": "SV",
    "USUBJID": "01-704-013",
    "SVSEQ": 6,
    "VISITNUM": 6,
    "VISIT": "WEEK 12",
    "VISITDY": 85,
    "SVSTDTC": "2013-07-30",
    "SVENDTC": "2013-07-30"
  },
  {
    "STUDYID": "CDISCPILOT01",
    "DOMAIN": "SV",
    "USUBJID": "01-704-013",
    "SVSEQ": 7,
    "VISITNUM": 7,
    "VISIT": "WEEK 16",
    "VISITDY": 113,
    "SVSTDTC": "2013-08-29",
    "SVENDTC": "2013-08-29"
  },
  {
    "STUDYID": "CDISCPILOT01",
    "DOMAIN": "SV",
    "USUBJID": "01-704-013",
    "SVSEQ": 8,
    "VISITNUM": 8,
    "VISIT": "WEEK 20",
    "VISITDY": 141,
    "SVSTDTC": "2013-09-26",
    "SVENDTC": "2013-09-26"
  },
  {
    "STUDYID": "CDISCPILOT01",
    "DOMAIN": "SV",
    "USUBJID": "01-704-013",
    "SVSEQ": 9,
    "VISITNUM": 9,
    "VISIT": "WEEK 24",
    "VISITDY": 169,
    "SVSTDTC": "2013-10-18",
    "SVENDTC": "2013-10-18"
  },
  {
    "STUDYID": "CDISCPILOT01",
    "DOMAIN": "SV",
    "USUBJID": "01-704-013",
    "SVSEQ": 10,
    "VISITNUM": 10,
    "VISIT": "END OF TREATMENT",
    "VISITDY": 169,
    "SVSTDTC": "2013-10-23",
    "SVENDTC": "2013-10-23"
  },
  {
    "STUDYID": "CDISCPILOT01",
    "DOMAIN": "SV",
    "USUBJID": "01-704-013",
    "SVSEQ": 11,
    "VISITNUM": 11,
    "VISIT": "WEEK 26",
    "VISITDY": 183,
    "SVSTDTC": "2013-11-01",
    "SVENDTC": "2013-11-01"
  },
  {
    "STUDYID": "CDISCPILOT01",
    "DOMAIN": "SV",
    "USUBJID": "01-704-014",
    "SVSEQ": 1,
    "VISITNUM": 1,
    "VISIT": "SCREENING",
    "VISITDY": -14,
    "SVSTDTC": "2013-08-24",
    "SVENDTC": "2013-08-24"
  },
  {
    "STUDYID": "CDISCPILOT01",
    "DOMAIN": "SV",
    "USUBJID": "01-704-014",
    "SVSEQ": 2,
    "VISITNUM": 2,
    "VISIT": "BASELINE",
    "VISITDY": 1,
    "SVSTDTC": "2013-09-06",
    "SVENDTC": "2013-09-06"
  },
  {
    "STUDYID": "CDISCPILOT01",
    "DOMAIN": "SV",
    "USUBJID": "01-704-014",
    "SVSEQ": 3,
    "VISITNUM": 3,
    "VISIT": "WEEK 2",
    "VISITDY": 15,
    "SVSTDTC": "2013-09-20",
    "SVENDTC": "2013-09-20"
  },
  {
    "STUDYID": "CDISCPILOT01",
    "DOMAIN": "SV",
    "USUBJID": "01-704-014",
    "SVSEQ": 4,
    "VISITNUM": 4,
    "VISIT": "WEEK 4",
    "VISITDY": 29,
    "SVSTDTC": "2013-10-02",
    "SVENDTC": "2013-10-02"
  },
  {
    "STUDYID": "CDISCPILOT01",
    "DOMAIN": "SV",
    "USUBJID": "01-704-014",
    "SVSEQ": 5,
    "VISITNUM": 5,
    "VISIT": "WEEK 8",
    "VISITDY": 57,
    "SVSTDTC": "2013-10-28",
    "SVENDTC": "2013-10-28"
  },
  {
    "STUDYID": "CDISCPILOT01",
    "DOMAIN": "SV",
    "USUBJID": "01-704-014",
    "SVSEQ": 6,
    "VISITNUM": 6,
    "VISIT": "WEEK 12",
    "VISITDY": 85,
    "SVSTDTC": "2013-11-29",
    "SVENDTC": "2013-11-29"
  },
  {
    "STUDYID": "CDISCPILOT01",
    "DOMAIN": "SV",
    "USUBJID": "01-704-014",
    "SVSEQ": 7,
    "VISITNUM": 7,
    "VISIT": "WEEK 16",
    "VISITDY": 113,
    "SVSTDTC": "2013-12-26",
    "SVENDTC": "2013-12-26"
  },
  {
    "STUDYID": "CDISCPILOT01",
    "DOMAIN": "SV",
    "USUBJID": "01-704-014",
    "SVSEQ": 8,
    "VISITNUM": 10,
    "VISIT": "END OF TREATMENT",
    "VISITDY": 116,
    "SVSTDTC": "2013-12-31",
    "SVENDTC": "2013-12-31"
  },
  {
    "STUDYID": "CDISCPILOT01",
    "DOMAIN": "SV",
    "USUBJID": "01-704-015",
    "SVSEQ": 1,
    "VISITNUM": 1,
    "VISIT": "SCREENING",
    "VISITDY": -14,
    "SVSTDTC": "2013-04-26",
    "SVENDTC": "2013-04-26"
  },
  {
    "STUDYID": "CDISCPILOT01",
    "DOMAIN": "SV",
    "USUBJID": "01-704-015",
    "SVSEQ": 2,
    "VISITNUM": 2,
    "VISIT": "BASELINE",
    "VISITDY": 1,
    "SVSTDTC": "2013-05-10",
    "SVENDTC": "2013-05-10"
  },
  {
    "STUDYID": "CDISCPILOT01",
    "DOMAIN": "SV",
    "USUBJID": "01-704-015",
    "SVSEQ": 3,
    "VISITNUM": 3,
    "VISIT": "WEEK 2",
    "VISITDY": 15,
    "SVSTDTC": "2013-05-22",
    "SVENDTC": "2013-05-22"
  },
  {
    "STUDYID": "CDISCPILOT01",
    "DOMAIN": "SV",
    "USUBJID": "01-704-015",
    "SVSEQ": 4,
    "VISITNUM": 4,
    "VISIT": "WEEK 4",
    "VISITDY": 29,
    "SVSTDTC": "2013-06-06",
    "SVENDTC": "2013-06-06"
  },
  {
    "STUDYID": "CDISCPILOT01",
    "DOMAIN": "SV",
    "USUBJID": "01-704-015",
    "SVSEQ": 5,
    "VISITNUM": 5,
    "VISIT": "WEEK 8",
    "VISITDY": 57,
    "SVSTDTC": "2013-07-06",
    "SVENDTC": "2013-07-06"
  },
  {
    "STUDYID": "CDISCPILOT01",
    "DOMAIN": "SV",
    "USUBJID": "01-704-015",
    "SVSEQ": 6,
    "VISITNUM": 6,
    "VISIT": "WEEK 12",
    "VISITDY": 85,
    "SVSTDTC": "2013-08-03",
    "SVENDTC": "2013-08-03"
  },
  {
    "STUDYID": "CDISCPILOT01",
    "DOMAIN": "SV",
    "USUBJID": "01-704-015",
    "SVSEQ": 7,
    "VISITNUM": 7,
    "VISIT": "WEEK 16",
    "VISITDY": 113,
    "SVSTDTC": "2013-08-26",
    "SVENDTC": "2013-08-26"
  },
  {
    "STUDYID": "CDISCPILOT01",
    "DOMAIN": "SV",
    "USUBJID": "01-704-015",
    "SVSEQ": 8,
    "VISITNUM": 8,
    "VISIT": "WEEK 20",
    "VISITDY": 141,
    "SVSTDTC": "2013-09-24",
    "SVENDTC": "2013-09-24"
  },
  {
    "STUDYID": "CDISCPILOT01",
    "DOMAIN": "SV",
    "USUBJID": "01-704-015",
    "SVSEQ": 9,
    "VISITNUM": 10,
    "VISIT": "END OF TREATMENT",
    "VISITDY": 143,
    "SVSTDTC": "2013-09-26",
    "SVENDTC": "2013-09-26"
  },
  {
    "STUDYID": "CDISCPILOT01",
    "DOMAIN": "SV",
    "USUBJID": "01-704-015",
    "SVSEQ": 10,
    "VISITNUM": 11,
    "VISIT": "WEEK 26",
    "VISITDY": 183,
    "SVSTDTC": "2013-11-07",
    "SVENDTC": "2013-11-07"
  },
  {
    "STUDYID": "CDISCPILOT01",
    "DOMAIN": "SV",
    "USUBJID": "01-704-016",
    "SVSEQ": 1,
    "VISITNUM": 1,
    "VISIT": "SCREENING",
    "VISITDY": -14,
    "SVSTDTC": "2013-08-22",
    "SVENDTC": "2013-08-22"
  },
  {
    "STUDYID": "CDISCPILOT01",
    "DOMAIN": "SV",
    "USUBJID": "01-704-016",
    "SVSEQ": 2,
    "VISITNUM": 2,
    "VISIT": "BASELINE",
    "VISITDY": 1,
    "SVSTDTC": "2013-09-01",
    "SVENDTC": "2013-09-01"
  },
  {
    "STUDYID": "CDISCPILOT01",
    "DOMAIN": "SV",
    "USUBJID": "01-704-016",
    "SVSEQ": 3,
    "VISITNUM": 3,
    "VISIT": "WEEK 2",
    "VISITDY": 15,
    "SVSTDTC": "2013-09-17",
    "SVENDTC": "2013-09-17"
  },
  {
    "STUDYID": "CDISCPILOT01",
    "DOMAIN": "SV",
    "USUBJID": "01-704-016",
    "SVSEQ": 4,
    "VISITNUM": 4,
    "VISIT": "WEEK 4",
    "VISITDY": 29,
    "SVSTDTC": "2013-10-02",
    "SVENDTC": "2013-10-02"
  },
  {
    "STUDYID": "CDISCPILOT01",
    "DOMAIN": "SV",
    "USUBJID": "01-704-016",
    "SVSEQ": 5,
    "VISITNUM": 5,
    "VISIT": "WEEK 8",
    "VISITDY": 57,
    "SVSTDTC": "2013-10-29",
    "SVENDTC": "2013-10-29"
  },
  {
    "STUDYID": "CDISCPILOT01",
    "DOMAIN": "SV",
    "USUBJID": "01-704-016",
    "SVSEQ": 6,
    "VISITNUM": 6,
    "VISIT": "WEEK 12",
    "VISITDY": 85,
    "SVSTDTC": "2013-11-25",
    "SVENDTC": "2013-11-25"
  },
  {
    "STUDYID": "CDISCPILOT01",
    "DOMAIN": "SV",
    "USUBJID": "01-704-016",
    "SVSEQ": 7,
    "VISITNUM": 7,
    "VISIT": "WEEK 16",
    "VISITDY": 113,
    "SVSTDTC": "2013-12-23",
    "SVENDTC": "2013-12-23"
  },
  {
    "STUDYID": "CDISCPILOT01",
    "DOMAIN": "SV",
    "USUBJID": "01-704-016",
    "SVSEQ": 8,
    "VISITNUM": 8,
    "VISIT": "WEEK 20",
    "VISITDY": 141,
    "SVSTDTC": "2014-01-22",
    "SVENDTC": "2014-01-22"
  },
  {
    "STUDYID": "CDISCPILOT01",
    "DOMAIN": "SV",
    "USUBJID": "01-704-016",
    "SVSEQ": 9,
    "VISITNUM": 9,
    "VISIT": "WEEK 24",
    "VISITDY": 169,
    "SVSTDTC": "2014-02-21",
    "SVENDTC": "2014-02-21"
  },
  {
    "STUDYID": "CDISCPILOT01",
    "DOMAIN": "SV",
    "USUBJID": "01-704-016",
    "SVSEQ": 10,
    "VISITNUM": 10,
    "VISIT": "END OF TREATMENT",
    "VISITDY": 169,
    "SVSTDTC": "2014-02-15",
    "SVENDTC": "2014-02-15"
  },
  {
    "STUDYID": "CDISCPILOT01",
    "DOMAIN": "SV",
    "USUBJID": "01-704-016",
    "SVSEQ": 11,
    "VISITNUM": 11,
    "VISIT": "WEEK 26",
    "VISITDY": 183,
    "SVSTDTC": "2014-03-03",
    "SVENDTC": "2014-03-03"
  },
  {
    "STUDYID": "CDISCPILOT01",
    "DOMAIN": "SV",
    "USUBJID": "01-704-017",
    "SVSEQ": 1,
    "VISITNUM": 1,
    "VISIT": "SCREENING",
    "VISITDY": -14,
    "SVSTDTC": "2012-12-23",
    "SVENDTC": "2012-12-23"
  },
  {
    "STUDYID": "CDISCPILOT01",
    "DOMAIN": "SV",
    "USUBJID": "01-704-017",
    "SVSEQ": 2,
    "VISITNUM": 2,
    "VISIT": "BASELINE",
    "VISITDY": 1,
    "SVSTDTC": "2013-01-11",
    "SVENDTC": "2013-01-11"
  },
  {
    "STUDYID": "CDISCPILOT01",
    "DOMAIN": "SV",
    "USUBJID": "01-704-017",
    "SVSEQ": 3,
    "VISITNUM": 3,
    "VISIT": "WEEK 2",
    "VISITDY": 15,
    "SVSTDTC": "2013-01-27",
    "SVENDTC": "2013-01-27"
  },
  {
    "STUDYID": "CDISCPILOT01",
    "DOMAIN": "SV",
    "USUBJID": "01-704-017",
    "SVSEQ": 4,
    "VISITNUM": 4,
    "VISIT": "WEEK 4",
    "VISITDY": 29,
    "SVSTDTC": "2013-02-12",
    "SVENDTC": "2013-02-12"
  },
  {
    "STUDYID": "CDISCPILOT01",
    "DOMAIN": "SV",
    "USUBJID": "01-704-017",
    "SVSEQ": 5,
    "VISITNUM": 5,
    "VISIT": "WEEK 8",
    "VISITDY": 57,
    "SVSTDTC": "2013-03-12",
    "SVENDTC": "2013-03-12"
  },
  {
    "STUDYID": "CDISCPILOT01",
    "DOMAIN": "SV",
    "USUBJID": "01-704-017",
    "SVSEQ": 6,
    "VISITNUM": 6,
    "VISIT": "WEEK 12",
    "VISITDY": 85,
    "SVSTDTC": "2013-04-09",
    "SVENDTC": "2013-04-09"
  },
  {
    "STUDYID": "CDISCPILOT01",
    "DOMAIN": "SV",
    "USUBJID": "01-704-017",
    "SVSEQ": 7,
    "VISITNUM": 7,
    "VISIT": "WEEK 16",
    "VISITDY": 113,
    "SVSTDTC": "2013-05-03",
    "SVENDTC": "2013-05-03"
  },
  {
    "STUDYID": "CDISCPILOT01",
    "DOMAIN": "SV",
    "USUBJID": "01-704-017",
    "SVSEQ": 8,
    "VISITNUM": 8,
    "VISIT": "WEEK 20",
    "VISITDY": 141,
    "SVSTDTC": "2013-06-01",
    "SVENDTC": "2013-06-01"
  },
  {
    "STUDYID": "CDISCPILOT01",
    "DOMAIN": "SV",
    "USUBJID": "01-704-017",
    "SVSEQ": 9,
    "VISITNUM": 9,
    "VISIT": "WEEK 24",
    "VISITDY": 169,
    "SVSTDTC": "2013-06-28",
    "SVENDTC": "2013-06-28"
  },
  {
    "STUDYID": "CDISCPILOT01",
    "DOMAIN": "SV",
    "USUBJID": "01-704-017",
    "SVSEQ": 10,
    "VISITNUM": 10,
    "VISIT": "END OF TREATMENT",
    "VISITDY": 169,
    "SVSTDTC": "2013-07-02",
    "SVENDTC": "2013-07-02"
  },
  {
    "STUDYID": "CDISCPILOT01",
    "DOMAIN": "SV",
    "USUBJID": "01-704-017",
    "SVSEQ": 11,
    "VISITNUM": 11,
    "VISIT": "WEEK 26",
    "VISITDY": 183,
    "SVSTDTC": "2013-07-10",
    "SVENDTC": "2013-07-10"
  },
  {
    "STUDYID": "CDISCPILOT01",
    "DOMAIN": "SV",
    "USUBJID": "01-704-018",
    "SVSEQ": 1,
    "VISITNUM": 1,
    "VISIT": "SCREENING",
    "VISITDY": -14,
    "SVSTDTC": "2013-06-07",
    "SVENDTC": "2013-06-07"
  },
  {
    "STUDYID": "CDISCPILOT01",
    "DOMAIN": "SV",
    "USUBJID": "01-704-018",
    "SVSEQ": 2,
    "VISITNUM": 2,
    "VISIT": "BASELINE",
    "VISITDY": 1,
    "SVSTDTC": "2013-06-24",
    "SVENDTC": "2013-06-24"
  },
  {
    "STUDYID": "CDISCPILOT01",
    "DOMAIN": "SV",
    "USUBJID": "01-704-018",
    "SVSEQ": 3,
    "VISITNUM": 3,
    "VISIT": "WEEK 2",
    "VISITDY": 15,
    "SVSTDTC": "2013-07-07",
    "SVENDTC": "2013-07-07"
  },
  {
    "STUDYID": "CDISCPILOT01",
    "DOMAIN": "SV",
    "USUBJID": "01-704-018",
    "SVSEQ": 4,
    "VISITNUM": 4,
    "VISIT": "WEEK 4",
    "VISITDY": 29,
    "SVSTDTC": "2013-07-17",
    "SVENDTC": "2013-07-17"
  },
  {
    "STUDYID": "CDISCPILOT01",
    "DOMAIN": "SV",
    "USUBJID": "01-704-018",
    "SVSEQ": 5,
    "VISITNUM": 5,
    "VISIT": "WEEK 8",
    "VISITDY": 57,
    "SVSTDTC": "2013-08-15",
    "SVENDTC": "2013-08-15"
  },
  {
    "STUDYID": "CDISCPILOT01",
    "DOMAIN": "SV",
    "USUBJID": "01-704-018",
    "SVSEQ": 6,
    "VISITNUM": 6,
    "VISIT": "WEEK 12",
    "VISITDY": 85,
    "SVSTDTC": "2013-09-13",
    "SVENDTC": "2013-09-13"
  },
  {
    "STUDYID": "CDISCPILOT01",
    "DOMAIN": "SV",
    "USUBJID": "01-704-018",
    "SVSEQ": 7,
    "VISITNUM": 7,
    "VISIT": "WEEK 16",
    "VISITDY": 113,
    "SVSTDTC": "2013-10-14",
    "SVENDTC": "2013-10-14"
  },
  {
    "STUDYID": "CDISCPILOT01",
    "DOMAIN": "SV",
    "USUBJID": "01-704-018",
    "SVSEQ": 8,
    "VISITNUM": 8,
    "VISIT": "WEEK 20",
    "VISITDY": 141,
    "SVSTDTC": "2013-11-06",
    "SVENDTC": "2013-11-06"
  },
  {
    "STUDYID": "CDISCPILOT01",
    "DOMAIN": "SV",
    "USUBJID": "01-704-018",
    "SVSEQ": 9,
    "VISITNUM": 10,
    "VISIT": "END OF TREATMENT",
    "VISITDY": 148,
    "SVSTDTC": "2013-11-17",
    "SVENDTC": "2013-11-17"
  },
  {
    "STUDYID": "CDISCPILOT01",
    "DOMAIN": "SV",
    "USUBJID": "01-704-018",
    "SVSEQ": 10,
    "VISITNUM": 11,
    "VISIT": "WEEK 26",
    "VISITDY": 183,
    "SVSTDTC": "2013-12-23",
    "SVENDTC": "2013-12-23"
  },
  {
    "STUDYID": "CDISCPILOT01",
    "DOMAIN": "SV",
    "USUBJID": "01-704-019",
    "SVSEQ": 1,
    "VISITNUM": 1,
    "VISIT": "SCREENING",
    "VISITDY": -14,
    "SVSTDTC": "2013-07-17",
    "SVENDTC": "2013-07-17"
  },
  {
    "STUDYID": "CDISCPILOT01",
    "DOMAIN": "SV",
    "USUBJID": "01-704-019",
    "SVSEQ": 2,
    "VISITNUM": 2,
    "VISIT": "BASELINE",
    "VISITDY": 1,
    "SVSTDTC": "2013-08-09",
    "SVENDTC": "2013-08-09"
  },
  {
    "STUDYID": "CDISCPILOT01",
    "DOMAIN": "SV",
    "USUBJID": "01-704-019",
    "SVSEQ": 3,
    "VISITNUM": 3,
    "VISIT": "WEEK 2",
    "VISITDY": 15,
    "SVSTDTC": "2013-08-18",
    "SVENDTC": "2013-08-18"
  },
  {
    "STUDYID": "CDISCPILOT01",
    "DOMAIN": "SV",
    "USUBJID": "01-704-019",
    "SVSEQ": 4,
    "VISITNUM": 4,
    "VISIT": "WEEK 4",
    "VISITDY": 29,
    "SVSTDTC": "2013-09-03",
    "SVENDTC": "2013-09-03"
  },
  {
    "STUDYID": "CDISCPILOT01",
    "DOMAIN": "SV",
    "USUBJID": "01-704-019",
    "SVSEQ": 5,
    "VISITNUM": 5,
    "VISIT": "WEEK 8",
    "VISITDY": 57,
    "SVSTDTC": "2013-10-03",
    "SVENDTC": "2013-10-03"
  },
  {
    "STUDYID": "CDISCPILOT01",
    "DOMAIN": "SV",
    "USUBJID": "01-704-019",
    "SVSEQ": 6,
    "VISITNUM": 6,
    "VISIT": "WEEK 12",
    "VISITDY": 85,
    "SVSTDTC": "2013-10-28",
    "SVENDTC": "2013-10-28"
  },
  {
    "STUDYID": "CDISCPILOT01",
    "DOMAIN": "SV",
    "USUBJID": "01-704-019",
    "SVSEQ": 7,
    "VISITNUM": 7,
    "VISIT": "WEEK 16",
    "VISITDY": 113,
    "SVSTDTC": "2013-11-30",
    "SVENDTC": "2013-11-30"
  },
  {
    "STUDYID": "CDISCPILOT01",
    "DOMAIN": "SV",
    "USUBJID": "01-704-019",
    "SVSEQ": 8,
    "VISITNUM": 8,
    "VISIT": "WEEK 20",
    "VISITDY": 141,
    "SVSTDTC": "2013-12-22",
    "SVENDTC": "2013-12-22"
  },
  {
    "STUDYID": "CDISCPILOT01",
    "DOMAIN": "SV",
    "USUBJID": "01-704-019",
    "SVSEQ": 9,
    "VISITNUM": 9,
    "VISIT": "WEEK 24",
    "VISITDY": 169,
    "SVSTDTC": "2014-01-20",
    "SVENDTC": "2014-01-20"
  },
  {
    "STUDYID": "CDISCPILOT01",
    "DOMAIN": "SV",
    "USUBJID": "01-704-019",
    "SVSEQ": 10,
    "VISITNUM": 10,
    "VISIT": "END OF TREATMENT",
    "VISITDY": 169,
    "SVSTDTC": "2014-01-25",
    "SVENDTC": "2014-01-25"
  },
  {
    "STUDYID": "CDISCPILOT01",
    "DOMAIN": "SV",
    "USUBJID": "01-704-019",
    "SVSEQ": 11,
    "VISITNUM": 11,
    "VISIT": "WEEK 26",
    "VISITDY": 183,
    "SVSTDTC": "2014-02-07",
    "SVENDTC": "2014-02-07"
  },
  {
    "STUDYID": "CDISCPILOT01",
    "DOMAIN": "SV",
    "USUBJID": "01-704-020",
    "SVSEQ": 1,
    "VISITNUM": 1,
    "VISIT": "SCREENING",
    "VISITDY": -14,
    "SVSTDTC": "2013-02-18",
    "SVENDTC": "2013-02-18"
  },
  {
    "STUDYID": "CDISCPILOT01",
    "DOMAIN": "SV",
    "USUBJID": "01-704-020",
    "SVSEQ": 2,
    "VISITNUM": 2,
    "VISIT": "BASELINE",
    "VISITDY": 1,
    "SVSTDTC": "2013-03-03",
    "SVENDTC": "2013-03-03"
  },
  {
    "STUDYID": "CDISCPILOT01",
    "DOMAIN": "SV",
    "USUBJID": "01-704-020",
    "SVSEQ": 3,
    "VISITNUM": 3,
    "VISIT": "WEEK 2",
    "VISITDY": 15,
    "SVSTDTC": "2013-03-16",
    "SVENDTC": "2013-03-16"
  },
  {
    "STUDYID": "CDISCPILOT01",
    "DOMAIN": "SV",
    "USUBJID": "01-704-020",
    "SVSEQ": 4,
    "VISITNUM": 4,
    "VISIT": "WEEK 4",
    "VISITDY": 29,
    "SVSTDTC": "2013-03-28",
    "SVENDTC": "2013-03-28"
  },
  {
    "STUDYID": "CDISCPILOT01",
    "DOMAIN": "SV",
    "USUBJID": "01-704-020",
    "SVSEQ": 5,
    "VISITNUM": 10,
    "VISIT": "END OF TREATMENT",
    "VISITDY": 36,
    "SVSTDTC": "2013-04-02",
    "SVENDTC": "2013-04-02"
  },
  {
    "STUDYID": "CDISCPILOT01",
    "DOMAIN": "SV",
    "USUBJID": "01-704-021",
    "SVSEQ": 1,
    "VISITNUM": 1,
    "VISIT": "SCREENING",
    "VISITDY": -14,
    "SVSTDTC": "2013-05-08",
    "SVENDTC": "2013-05-08"
  },
  {
    "STUDYID": "CDISCPILOT01",
    "DOMAIN": "SV",
    "USUBJID": "01-704-021",
    "SVSEQ": 2,
    "VISITNUM": 2,
    "VISIT": "BASELINE",
    "VISITDY": 1,
    "SVSTDTC": "2013-05-28",
    "SVENDTC": "2013-05-28"
  },
  {
    "STUDYID": "CDISCPILOT01",
    "DOMAIN": "SV",
    "USUBJID": "01-704-021",
    "SVSEQ": 3,
    "VISITNUM": 3,
    "VISIT": "WEEK 2",
    "VISITDY": 15,
    "SVSTDTC": "2013-06-15",
    "SVENDTC": "2013-06-15"
  },
  {
    "STUDYID": "CDISCPILOT01",
    "DOMAIN": "SV",
    "USUBJID": "01-704-021",
    "SVSEQ": 4,
    "VISITNUM": 4,
    "VISIT": "WEEK 4",
    "VISITDY": 29,
    "SVSTDTC": "2013-06-24",
    "SVENDTC": "2013-06-24"
  },
  {
    "STUDYID": "CDISCPILOT01",
    "DOMAIN": "SV",
    "USUBJID": "01-704-021",
    "SVSEQ": 5,
    "VISITNUM": 5,
    "VISIT": "WEEK 8",
    "VISITDY": 57,
    "SVSTDTC": "2013-07-26",
    "SVENDTC": "2013-07-26"
  },
  {
    "STUDYID": "CDISCPILOT01",
    "DOMAIN": "SV",
    "USUBJID": "01-704-021",
    "SVSEQ": 6,
    "VISITNUM": 6,
    "VISIT": "WEEK 12",
    "VISITDY": 85,
    "SVSTDTC": "2013-08-22",
    "SVENDTC": "2013-08-22"
  },
  {
    "STUDYID": "CDISCPILOT01",
    "DOMAIN": "SV",
    "USUBJID": "01-704-021",
    "SVSEQ": 7,
    "VISITNUM": 7,
    "VISIT": "WEEK 16",
    "VISITDY": 113,
    "SVSTDTC": "2013-09-22",
    "SVENDTC": "2013-09-22"
  },
  {
    "STUDYID": "CDISCPILOT01",
    "DOMAIN": "SV",
    "USUBJID": "01-704-021",
    "SVSEQ": 8,
    "VISITNUM": 8,
    "VISIT": "WEEK 20",
    "VISITDY": 141,
    "SVSTDTC": "2013-10-19",
    "SVENDTC": "2013-10-19"
  },
  {
    "STUDYID": "CDISCPILOT01",
    "DOMAIN": "SV",
    "USUBJID": "01-704-021",
    "SVSEQ": 9,
    "VISITNUM": 9,
    "VISIT": "WEEK 24",
    "VISITDY": 169,
    "SVSTDTC": "2013-11-16",
    "SVENDTC": "2013-11-16"
  },
  {
    "STUDYID": "CDISCPILOT01",
    "DOMAIN": "SV",
    "USUBJID": "01-704-021",
    "SVSEQ": 10,
    "VISITNUM": 10,
    "VISIT": "END OF TREATMENT",
    "VISITDY": 169,
    "SVSTDTC": "2013-11-13",
    "SVENDTC": "2013-11-13"
  },
  {
    "STUDYID": "CDISCPILOT01",
    "DOMAIN": "SV",
    "USUBJID": "01-704-021",
    "SVSEQ": 11,
    "VISITNUM": 11,
    "VISIT": "WEEK 26",
    "VISITDY": 183,
    "SVSTDTC": "2013-11-28",
    "SVENDTC": "2013-11-28"
  },
  {
    "STUDYID": "CDISCPILOT01",
    "DOMAIN": "SV",
    "USUBJID": "01-704-022",
    "SVSEQ": 1,
    "VISITNUM": 1,
    "VISIT": "SCREENING",
    "VISITDY": -14,
    "SVSTDTC": "2013-01-07",
    "SVENDTC": "2013-01-07"
  },
  {
    "STUDYID": "CDISCPILOT01",
    "DOMAIN": "SV",
    "USUBJID": "01-704-022",
    "SVSEQ": 2,
    "VISITNUM": 2,
    "VISIT": "BASELINE",
    "VISITDY": 1,
    "SVSTDTC": "2013-02-01",
    "SVENDTC": "2013-02-01"
  },
  {
    "STUDYID": "CDISCPILOT01",
    "DOMAIN": "SV",
    "USUBJID": "01-704-022",
    "SVSEQ": 3,
    "VISITNUM": 3,
    "VISIT": "WEEK 2",
    "VISITDY": 15,
    "SVSTDTC": "2013-02-10",
    "SVENDTC": "2013-02-10"
  },
  {
    "STUDYID": "CDISCPILOT01",
    "DOMAIN": "SV",
    "USUBJID": "01-704-022",
    "SVSEQ": 4,
    "VISITNUM": 4,
    "VISIT": "WEEK 4",
    "VISITDY": 29,
    "SVSTDTC": "2013-02-25",
    "SVENDTC": "2013-02-25"
  },
  {
    "STUDYID": "CDISCPILOT01",
    "DOMAIN": "SV",
    "USUBJID": "01-704-022",
    "SVSEQ": 5,
    "VISITNUM": 5,
    "VISIT": "WEEK 8",
    "VISITDY": 57,
    "SVSTDTC": "2013-03-26",
    "SVENDTC": "2013-03-26"
  },
  {
    "STUDYID": "CDISCPILOT01",
    "DOMAIN": "SV",
    "USUBJID": "01-704-022",
    "SVSEQ": 6,
    "VISITNUM": 10,
    "VISIT": "END OF TREATMENT",
    "VISITDY": 59,
    "SVSTDTC": "2013-03-31",
    "SVENDTC": "2013-03-31"
  },
  {
    "STUDYID": "CDISCPILOT01",
    "DOMAIN": "SV",
    "USUBJID": "01-704-023",
    "SVSEQ": 1,
    "VISITNUM": 1,
    "VISIT": "SCREENING",
    "VISITDY": -14,
    "SVSTDTC": "2013-08-23",
    "SVENDTC": "2013-08-23"
  },
  {
    "STUDYID": "CDISCPILOT01",
    "DOMAIN": "SV",
    "USUBJID": "01-704-023",
    "SVSEQ": 2,
    "VISITNUM": 2,
    "VISIT": "BASELINE",
    "VISITDY": 1,
    "SVSTDTC": "2013-09-04",
    "SVENDTC": "2013-09-04"
  },
  {
    "STUDYID": "CDISCPILOT01",
    "DOMAIN": "SV",
    "USUBJID": "01-704-023",
    "SVSEQ": 3,
    "VISITNUM": 3,
    "VISIT": "WEEK 2",
    "VISITDY": 15,
    "SVSTDTC": "2013-09-24",
    "SVENDTC": "2013-09-24"
  },
  {
    "STUDYID": "CDISCPILOT01",
    "DOMAIN": "SV",
    "USUBJID": "01-704-023",
    "SVSEQ": 4,
    "VISITNUM": 4,
    "VISIT": "WEEK 4",
    "VISITDY": 29,
    "SVSTDTC": "2013-10-08",
    "SVENDTC": "2013-10-08"
  },
  {
    "STUDYID": "CDISCPILOT01",
    "DOMAIN": "SV",
    "USUBJID": "01-704-023",
    "SVSEQ": 5,
    "VISITNUM": 5,
    "VISIT": "WEEK 8",
    "VISITDY": 57,
    "SVSTDTC": "2013-11-04",
    "SVENDTC": "2013-11-04"
  },
  {
    "STUDYID": "CDISCPILOT01",
    "DOMAIN": "SV",
    "USUBJID": "01-704-023",
    "SVSEQ": 6,
    "VISITNUM": 6,
    "VISIT": "WEEK 12",
    "VISITDY": 85,
    "SVSTDTC": "2013-11-30",
    "SVENDTC": "2013-11-30"
  },
  {
    "STUDYID": "CDISCPILOT01",
    "DOMAIN": "SV",
    "USUBJID": "01-704-023",
    "SVSEQ": 7,
    "VISITNUM": 7,
    "VISIT": "WEEK 16",
    "VISITDY": 113,
    "SVSTDTC": "2013-12-26",
    "SVENDTC": "2013-12-26"
  },
  {
    "STUDYID": "CDISCPILOT01",
    "DOMAIN": "SV",
    "USUBJID": "01-704-023",
    "SVSEQ": 8,
    "VISITNUM": 10,
    "VISIT": "END OF TREATMENT",
    "VISITDY": 116,
    "SVSTDTC": "2013-12-31",
    "SVENDTC": "2013-12-31"
  },
  {
    "STUDYID": "CDISCPILOT01",
    "DOMAIN": "SV",
    "USUBJID": "01-704-024",
    "SVSEQ": 1,
    "VISITNUM": 1,
    "VISIT": "SCREENING",
    "VISITDY": -14,
    "SVSTDTC": "2013-07-31",
    "SVENDTC": "2013-07-31"
  },
  {
    "STUDYID": "CDISCPILOT01",
    "DOMAIN": "SV",
    "USUBJID": "01-704-024",
    "SVSEQ": 2,
    "VISITNUM": 2,
    "VISIT": "BASELINE",
    "VISITDY": 1,
    "SVSTDTC": "2013-08-15",
    "SVENDTC": "2013-08-15"
  },
  {
    "STUDYID": "CDISCPILOT01",
    "DOMAIN": "SV",
    "USUBJID": "01-704-024",
    "SVSEQ": 3,
    "VISITNUM": 3,
    "VISIT": "WEEK 2",
    "VISITDY": 15,
    "SVSTDTC": "2013-08-29",
    "SVENDTC": "2013-08-29"
  },
  {
    "STUDYID": "CDISCPILOT01",
    "DOMAIN": "SV",
    "USUBJID": "01-704-024",
    "SVSEQ": 4,
    "VISITNUM": 4,
    "VISIT": "WEEK 4",
    "VISITDY": 29,
    "SVSTDTC": "2013-09-14",
    "SVENDTC": "2013-09-14"
  },
  {
    "STUDYID": "CDISCPILOT01",
    "DOMAIN": "SV",
    "USUBJID": "01-704-024",
    "SVSEQ": 5,
    "VISITNUM": 5,
    "VISIT": "WEEK 8",
    "VISITDY": 57,
    "SVSTDTC": "2013-10-12",
    "SVENDTC": "2013-10-12"
  },
  {
    "STUDYID": "CDISCPILOT01",
    "DOMAIN": "SV",
    "USUBJID": "01-704-024",
    "SVSEQ": 6,
    "VISITNUM": 6,
    "VISIT": "WEEK 12",
    "VISITDY": 85,
    "SVSTDTC": "2013-11-13",
    "SVENDTC": "2013-11-13"
  },
  {
    "STUDYID": "CDISCPILOT01",
    "DOMAIN": "SV",
    "USUBJID": "01-704-024",
    "SVSEQ": 7,
    "VISITNUM": 7,
    "VISIT": "WEEK 16",
    "VISITDY": 113,
    "SVSTDTC": "2013-12-05",
    "SVENDTC": "2013-12-05"
  },
  {
    "STUDYID": "CDISCPILOT01",
    "DOMAIN": "SV",
    "USUBJID": "01-704-024",
    "SVSEQ": 8,
    "VISITNUM": 8,
    "VISIT": "WEEK 20",
    "VISITDY": 141,
    "SVSTDTC": "2014-01-05",
    "SVENDTC": "2014-01-05"
  },
  {
    "STUDYID": "CDISCPILOT01",
    "DOMAIN": "SV",
    "USUBJID": "01-704-024",
    "SVSEQ": 9,
    "VISITNUM": 9,
    "VISIT": "WEEK 24",
    "VISITDY": 169,
    "SVSTDTC": "2014-02-02",
    "SVENDTC": "2014-02-02"
  },
  {
    "STUDYID": "CDISCPILOT01",
    "DOMAIN": "SV",
    "USUBJID": "01-704-024",
    "SVSEQ": 10,
    "VISITNUM": 10,
    "VISIT": "END OF TREATMENT",
    "VISITDY": 169,
    "SVSTDTC": "2014-02-01",
    "SVENDTC": "2014-02-01"
  },
  {
    "STUDYID": "CDISCPILOT01",
    "DOMAIN": "SV",
    "USUBJID": "01-704-024",
    "SVSEQ": 11,
    "VISITNUM": 11,
    "VISIT": "WEEK 26",
    "VISITDY": 183,
    "SVSTDTC": "2014-02-14",
    "SVENDTC": "2014-02-14"
  },
  {
    "STUDYID": "CDISCPILOT01",
    "DOMAIN": "SV",
    "USUBJID": "01-704-025",
    "SVSEQ": 1,
    "VISITNUM": 1,
    "VISIT": "SCREENING",
    "VISITDY": -14,
    "SVSTDTC": "2013-03-16",
    "SVENDTC": "2013-03-16"
  },
  {
    "STUDYID": "CDISCPILOT01",
    "DOMAIN": "SV",
    "USUBJID": "01-704-025",
    "SVSEQ": 2,
    "VISITNUM": 2,
    "VISIT": "BASELINE",
    "VISITDY": 1,
    "SVSTDTC": "2013-04-04",
    "SVENDTC": "2013-04-04"
  },
  {
    "STUDYID": "CDISCPILOT01",
    "DOMAIN": "SV",
    "USUBJID": "01-704-025",
    "SVSEQ": 3,
    "VISITNUM": 3,
    "VISIT": "WEEK 2",
    "VISITDY": 15,
    "SVSTDTC": "2013-04-20",
    "SVENDTC": "2013-04-20"
  },
  {
    "STUDYID": "CDISCPILOT01",
    "DOMAIN": "SV",
    "USUBJID": "01-704-025",
    "SVSEQ": 4,
    "VISITNUM": 4,
    "VISIT": "WEEK 4",
    "VISITDY": 29,
    "SVSTDTC": "2013-05-02",
    "SVENDTC": "2013-05-02"
  },
  {
    "STUDYID": "CDISCPILOT01",
    "DOMAIN": "SV",
    "USUBJID": "01-704-025",
    "SVSEQ": 5,
    "VISITNUM": 5,
    "VISIT": "WEEK 8",
    "VISITDY": 57,
    "SVSTDTC": "2013-06-03",
    "SVENDTC": "2013-06-03"
  },
  {
    "STUDYID": "CDISCPILOT01",
    "DOMAIN": "SV",
    "USUBJID": "01-704-025",
    "SVSEQ": 6,
    "VISITNUM": 6,
    "VISIT": "WEEK 12",
    "VISITDY": 85,
    "SVSTDTC": "2013-06-30",
    "SVENDTC": "2013-06-30"
  },
  {
    "STUDYID": "CDISCPILOT01",
    "DOMAIN": "SV",
    "USUBJID": "01-704-025",
    "SVSEQ": 7,
    "VISITNUM": 7,
    "VISIT": "WEEK 16",
    "VISITDY": 113,
    "SVSTDTC": "2013-07-26",
    "SVENDTC": "2013-07-26"
  },
  {
    "STUDYID": "CDISCPILOT01",
    "DOMAIN": "SV",
    "USUBJID": "01-704-025",
    "SVSEQ": 8,
    "VISITNUM": 8,
    "VISIT": "WEEK 20",
    "VISITDY": 141,
    "SVSTDTC": "2013-08-25",
    "SVENDTC": "2013-08-25"
  },
  {
    "STUDYID": "CDISCPILOT01",
    "DOMAIN": "SV",
    "USUBJID": "01-704-025",
    "SVSEQ": 9,
    "VISITNUM": 9,
    "VISIT": "WEEK 24",
    "VISITDY": 169,
    "SVSTDTC": "2013-09-22",
    "SVENDTC": "2013-09-22"
  },
  {
    "STUDYID": "CDISCPILOT01",
    "DOMAIN": "SV",
    "USUBJID": "01-704-025",
    "SVSEQ": 10,
    "VISITNUM": 10,
    "VISIT": "END OF TREATMENT",
    "VISITDY": 169,
    "SVSTDTC": "2013-09-22",
    "SVENDTC": "2013-09-22"
  },
  {
    "STUDYID": "CDISCPILOT01",
    "DOMAIN": "SV",
    "USUBJID": "01-704-025",
    "SVSEQ": 11,
    "VISITNUM": 11,
    "VISIT": "WEEK 26",
    "VISITDY": 183,
    "SVSTDTC": "2013-10-01",
    "SVENDTC": "2013-10-01"
  },
  {
    "STUDYID": "CDISCPILOT01",
    "DOMAIN": "SV",
    "USUBJID": "01-705-001",
    "SVSEQ": 1,
    "VISITNUM": 1,
    "VISIT": "SCREENING",
    "VISITDY": -14,
    "SVSTDTC": "2013-07-24",
    "SVENDTC": "2013-07-24"
  },
  {
    "STUDYID": "CDISCPILOT01",
    "DOMAIN": "SV",
    "USUBJID": "01-705-001",
    "SVSEQ": 2,
    "VISITNUM": 2,
    "VISIT": "BASELINE",
    "VISITDY": 1,
    "SVSTDTC": "2013-08-02",
    "SVENDTC": "2013-08-02"
  },
  {
    "STUDYID": "CDISCPILOT01",
    "DOMAIN": "SV",
    "USUBJID": "01-705-001",
    "SVSEQ": 3,
    "VISITNUM": 3,
    "VISIT": "WEEK 2",
    "VISITDY": 15,
    "SVSTDTC": "2013-08-16",
    "SVENDTC": "2013-08-16"
  },
  {
    "STUDYID": "CDISCPILOT01",
    "DOMAIN": "SV",
    "USUBJID": "01-705-001",
    "SVSEQ": 4,
    "VISITNUM": 4,
    "VISIT": "WEEK 4",
    "VISITDY": 29,
    "SVSTDTC": "2013-08-29",
    "SVENDTC": "2013-08-29"
  },
  {
    "STUDYID": "CDISCPILOT01",
    "DOMAIN": "SV",
    "USUBJID": "01-705-001",
    "SVSEQ": 5,
    "VISITNUM": 5,
    "VISIT": "WEEK 8",
    "VISITDY": 57,
    "SVSTDTC": "2013-09-25",
    "SVENDTC": "2013-09-25"
  },
  {
    "STUDYID": "CDISCPILOT01",
    "DOMAIN": "SV",
    "USUBJID": "01-705-001",
    "SVSEQ": 6,
    "VISITNUM": 6,
    "VISIT": "WEEK 12",
    "VISITDY": 85,
    "SVSTDTC": "2013-10-23",
    "SVENDTC": "2013-10-23"
  },
  {
    "STUDYID": "CDISCPILOT01",
    "DOMAIN": "SV",
    "USUBJID": "01-705-001",
    "SVSEQ": 7,
    "VISITNUM": 10,
    "VISIT": "END OF TREATMENT",
    "VISITDY": 88,
    "SVSTDTC": "2013-10-31",
    "SVENDTC": "2013-10-31"
  },
  {
    "STUDYID": "CDISCPILOT01",
    "DOMAIN": "SV",
    "USUBJID": "01-705-002",
    "SVSEQ": 1,
    "VISITNUM": 1,
    "VISIT": "SCREENING",
    "VISITDY": -14,
    "SVSTDTC": "2013-07-28",
    "SVENDTC": "2013-07-28"
  },
  {
    "STUDYID": "CDISCPILOT01",
    "DOMAIN": "SV",
    "USUBJID": "01-705-002",
    "SVSEQ": 2,
    "VISITNUM": 2,
    "VISIT": "BASELINE",
    "VISITDY": 1,
    "SVSTDTC": "2013-08-18",
    "SVENDTC": "2013-08-18"
  },
  {
    "STUDYID": "CDISCPILOT01",
    "DOMAIN": "SV",
    "USUBJID": "01-705-002",
    "SVSEQ": 3,
    "VISITNUM": 3,
    "VISIT": "WEEK 2",
    "VISITDY": 15,
    "SVSTDTC": "2013-08-30",
    "SVENDTC": "2013-08-30"
  },
  {
    "STUDYID": "CDISCPILOT01",
    "DOMAIN": "SV",
    "USUBJID": "01-705-002",
    "SVSEQ": 4,
    "VISITNUM": 4,
    "VISIT": "WEEK 4",
    "VISITDY": 29,
    "SVSTDTC": "2013-09-10",
    "SVENDTC": "2013-09-10"
  },
  {
    "STUDYID": "CDISCPILOT01",
    "DOMAIN": "SV",
    "USUBJID": "01-705-002",
    "SVSEQ": 5,
    "VISITNUM": 10,
    "VISIT": "END OF TREATMENT",
    "VISITDY": 31,
    "SVSTDTC": "2013-09-11",
    "SVENDTC": "2013-09-11"
  },
  {
    "STUDYID": "CDISCPILOT01",
    "DOMAIN": "SV",
    "USUBJID": "01-705-003",
    "SVSEQ": 1,
    "VISITNUM": 1,
    "VISIT": "SCREENING",
    "VISITDY": -14,
    "SVSTDTC": "2013-12-17",
    "SVENDTC": "2013-12-17"
  },
  {
    "STUDYID": "CDISCPILOT01",
    "DOMAIN": "SV",
    "USUBJID": "01-705-003",
    "SVSEQ": 2,
    "VISITNUM": 2,
    "VISIT": "BASELINE",
    "VISITDY": 1,
    "SVSTDTC": "2013-12-30",
    "SVENDTC": "2013-12-30"
  },
  {
    "STUDYID": "CDISCPILOT01",
    "DOMAIN": "SV",
    "USUBJID": "01-705-003",
    "SVSEQ": 3,
    "VISITNUM": 3,
    "VISIT": "WEEK 2",
    "VISITDY": 15,
    "SVSTDTC": "2014-01-15",
    "SVENDTC": "2014-01-15"
  },
  {
    "STUDYID": "CDISCPILOT01",
    "DOMAIN": "SV",
    "USUBJID": "01-705-003",
    "SVSEQ": 4,
    "VISITNUM": 4,
    "VISIT": "WEEK 4",
    "VISITDY": 29,
    "SVSTDTC": "2014-01-28",
    "SVENDTC": "2014-01-28"
  },
  {
    "STUDYID": "CDISCPILOT01",
    "DOMAIN": "SV",
    "USUBJID": "01-705-003",
    "SVSEQ": 5,
    "VISITNUM": 5,
    "VISIT": "WEEK 8",
    "VISITDY": 57,
    "SVSTDTC": "2014-02-21",
    "SVENDTC": "2014-02-21"
  },
  {
    "STUDYID": "CDISCPILOT01",
    "DOMAIN": "SV",
    "USUBJID": "01-705-003",
    "SVSEQ": 6,
    "VISITNUM": 6,
    "VISIT": "WEEK 12",
    "VISITDY": 85,
    "SVSTDTC": "2014-03-21",
    "SVENDTC": "2014-03-21"
  },
  {
    "STUDYID": "CDISCPILOT01",
    "DOMAIN": "SV",
    "USUBJID": "01-705-003",
    "SVSEQ": 7,
    "VISITNUM": 7,
    "VISIT": "WEEK 16",
    "VISITDY": 113,
    "SVSTDTC": "2014-04-20",
    "SVENDTC": "2014-04-20"
  },
  {
    "STUDYID": "CDISCPILOT01",
    "DOMAIN": "SV",
    "USUBJID": "01-705-003",
    "SVSEQ": 8,
    "VISITNUM": 8,
    "VISIT": "WEEK 20",
    "VISITDY": 141,
    "SVSTDTC": "2014-05-17",
    "SVENDTC": "2014-05-17"
  },
  {
    "STUDYID": "CDISCPILOT01",
    "DOMAIN": "SV",
    "USUBJID": "01-705-003",
    "SVSEQ": 9,
    "VISITNUM": 9,
    "VISIT": "WEEK 24",
    "VISITDY": 169,
    "SVSTDTC": "2014-06-14",
    "SVENDTC": "2014-06-14"
  },
  {
    "STUDYID": "CDISCPILOT01",
    "DOMAIN": "SV",
    "USUBJID": "01-705-003",
    "SVSEQ": 10,
    "VISITNUM": 10,
    "VISIT": "END OF TREATMENT",
    "VISITDY": 169,
    "SVSTDTC": "2014-06-17",
    "SVENDTC": "2014-06-17"
  },
  {
    "STUDYID": "CDISCPILOT01",
    "DOMAIN": "SV",
    "USUBJID": "01-705-003",
    "SVSEQ": 11,
    "VISITNUM": 11,
    "VISIT": "WEEK 26",
    "VISITDY": 183,
    "SVSTDTC": "2014-07-02",
    "SVENDTC": "2014-07-02"
  },
  {
    "STUDYID": "CDISCPILOT01",
    "DOMAIN": "SV",
    "USUBJID": "01-705-004",
    "SVSEQ": 1,
    "VISITNUM": 1,
    "VISIT": "SCREENING",
    "VISITDY": -14,
    "SVSTDTC": "2013-08-29",
    "SVENDTC": "2013-08-29"
  },
  {
    "STUDYID": "CDISCPILOT01",
    "DOMAIN": "SV",
    "USUBJID": "01-705-004",
    "SVSEQ": 2,
    "VISITNUM": 2,
    "VISIT": "BASELINE",
    "VISITDY": 1,
    "SVSTDTC": "2013-09-11",
    "SVENDTC": "2013-09-11"
  },
  {
    "STUDYID": "CDISCPILOT01",
    "DOMAIN": "SV",
    "USUBJID": "01-705-004",
    "SVSEQ": 3,
    "VISITNUM": 3,
    "VISIT": "WEEK 2",
    "VISITDY": 15,
    "SVSTDTC": "2013-09-24",
    "SVENDTC": "2013-09-24"
  },
  {
    "STUDYID": "CDISCPILOT01",
    "DOMAIN": "SV",
    "USUBJID": "01-705-004",
    "SVSEQ": 4,
    "VISITNUM": 4,
    "VISIT": "WEEK 4",
    "VISITDY": 29,
    "SVSTDTC": "2013-10-10",
    "SVENDTC": "2013-10-10"
  },
  {
    "STUDYID": "CDISCPILOT01",
    "DOMAIN": "SV",
    "USUBJID": "01-705-004",
    "SVSEQ": 5,
    "VISITNUM": 5,
    "VISIT": "WEEK 8",
    "VISITDY": 57,
    "SVSTDTC": "2013-11-04",
    "SVENDTC": "2013-11-04"
  },
  {
    "STUDYID": "CDISCPILOT01",
    "DOMAIN": "SV",
    "USUBJID": "01-705-004",
    "SVSEQ": 6,
    "VISITNUM": 6,
    "VISIT": "WEEK 12",
    "VISITDY": 85,
    "SVSTDTC": "2013-12-03",
    "SVENDTC": "2013-12-03"
  },
  {
    "STUDYID": "CDISCPILOT01",
    "DOMAIN": "SV",
    "USUBJID": "01-705-004",
    "SVSEQ": 7,
    "VISITNUM": 7,
    "VISIT": "WEEK 16",
    "VISITDY": 113,
    "SVSTDTC": "2013-12-29",
    "SVENDTC": "2013-12-29"
  },
  {
    "STUDYID": "CDISCPILOT01",
    "DOMAIN": "SV",
    "USUBJID": "01-705-004",
    "SVSEQ": 8,
    "VISITNUM": 8,
    "VISIT": "WEEK 20",
    "VISITDY": 141,
    "SVSTDTC": "2014-01-28",
    "SVENDTC": "2014-01-28"
  },
  {
    "STUDYID": "CDISCPILOT01",
    "DOMAIN": "SV",
    "USUBJID": "01-705-004",
    "SVSEQ": 9,
    "VISITNUM": 9,
    "VISIT": "WEEK 24",
    "VISITDY": 169,
    "SVSTDTC": "2014-02-24",
    "SVENDTC": "2014-02-24"
  },
  {
    "STUDYID": "CDISCPILOT01",
    "DOMAIN": "SV",
    "USUBJID": "01-705-004",
    "SVSEQ": 10,
    "VISITNUM": 10,
    "VISIT": "END OF TREATMENT",
    "VISITDY": 169,
    "SVSTDTC": "2014-02-25",
    "SVENDTC": "2014-02-25"
  },
  {
    "STUDYID": "CDISCPILOT01",
    "DOMAIN": "SV",
    "USUBJID": "01-705-004",
    "SVSEQ": 11,
    "VISITNUM": 11,
    "VISIT": "WEEK 26",
    "VISITDY": 183,
    "SVSTDTC": "2014-03-07",
    "SVENDTC": "2014-03-07"
  },
  {
    "STUDYID": "CDISCPILOT01",
    "DOMAIN": "SV",
    "USUBJID": "01-705-005",
    "SVSEQ": 1,
    "VISITNUM": 1,
    "VISIT": "SCREENING",
    "VISITDY": -14,
    "SVSTDTC": "2013-05-15",
    "SVENDTC": "2013-05-15"
  },
  {
    "STUDYID": "CDISCPILOT01",
    "DOMAIN": "SV",
    "USUBJID": "01-705-005",
    "SVSEQ": 2,
    "VISITNUM": 2,
    "VISIT": "BASELINE",
    "VISITDY": 1,
    "SVSTDTC": "2013-05-29",
    "SVENDTC": "2013-05-29"
  },
  {
    "STUDYID": "CDISCPILOT01",
    "DOMAIN": "SV",
    "USUBJID": "01-705-005",
    "SVSEQ": 3,
    "VISITNUM": 3,
    "VISIT": "WEEK 2",
    "VISITDY": 15,
    "SVSTDTC": "2013-06-08",
    "SVENDTC": "2013-06-08"
  },
  {
    "STUDYID": "CDISCPILOT01",
    "DOMAIN": "SV",
    "USUBJID": "01-705-005",
    "SVSEQ": 4,
    "VISITNUM": 10,
    "VISIT": "END OF TREATMENT",
    "VISITDY": 20,
    "SVSTDTC": "2013-06-14",
    "SVENDTC": "2013-06-14"
  },
  {
    "STUDYID": "CDISCPILOT01",
    "DOMAIN": "SV",
    "USUBJID": "01-705-006",
    "SVSEQ": 1,
    "VISITNUM": 1,
    "VISIT": "SCREENING",
    "VISITDY": -14,
    "SVSTDTC": "2013-11-27",
    "SVENDTC": "2013-11-27"
  },
  {
    "STUDYID": "CDISCPILOT01",
    "DOMAIN": "SV",
    "USUBJID": "01-705-006",
    "SVSEQ": 2,
    "VISITNUM": 2,
    "VISIT": "BASELINE",
    "VISITDY": 1,
    "SVSTDTC": "2013-12-12",
    "SVENDTC": "2013-12-12"
  },
  {
    "STUDYID": "CDISCPILOT01",
    "DOMAIN": "SV",
    "USUBJID": "01-705-006",
    "SVSEQ": 3,
    "VISITNUM": 3,
    "VISIT": "WEEK 2",
    "VISITDY": 15,
    "SVSTDTC": "2013-12-29",
    "SVENDTC": "2013-12-29"
  },
  {
    "STUDYID": "CDISCPILOT01",
    "DOMAIN": "SV",
    "USUBJID": "01-705-006",
    "SVSEQ": 4,
    "VISITNUM": 4,
    "VISIT": "WEEK 4",
    "VISITDY": 29,
    "SVSTDTC": "2014-01-13",
    "SVENDTC": "2014-01-13"
  },
  {
    "STUDYID": "CDISCPILOT01",
    "DOMAIN": "SV",
    "USUBJID": "01-705-006",
    "SVSEQ": 5,
    "VISITNUM": 5,
    "VISIT": "WEEK 8",
    "VISITDY": 57,
    "SVSTDTC": "2014-02-09",
    "SVENDTC": "2014-02-09"
  },
  {
    "STUDYID": "CDISCPILOT01",
    "DOMAIN": "SV",
    "USUBJID": "01-705-006",
    "SVSEQ": 6,
    "VISITNUM": 6,
    "VISIT": "WEEK 12",
    "VISITDY": 85,
    "SVSTDTC": "2014-03-07",
    "SVENDTC": "2014-03-07"
  },
  {
    "STUDYID": "CDISCPILOT01",
    "DOMAIN": "SV",
    "USUBJID": "01-705-006",
    "SVSEQ": 7,
    "VISITNUM": 10,
    "VISIT": "END OF TREATMENT",
    "VISITDY": 86,
    "SVSTDTC": "2014-03-06",
    "SVENDTC": "2014-03-06"
  },
  {
    "STUDYID": "CDISCPILOT01",
    "DOMAIN": "SV",
    "USUBJID": "01-705-007",
    "SVSEQ": 1,
    "VISITNUM": 1,
    "VISIT": "SCREENING",
    "VISITDY": -14,
    "SVSTDTC": "2013-09-15",
    "SVENDTC": "2013-09-15"
  },
  {
    "STUDYID": "CDISCPILOT01",
    "DOMAIN": "SV",
    "USUBJID": "01-705-007",
    "SVSEQ": 2,
    "VISITNUM": 2,
    "VISIT": "BASELINE",
    "VISITDY": 1,
    "SVSTDTC": "2013-10-05",
    "SVENDTC": "2013-10-05"
  },
  {
    "STUDYID": "CDISCPILOT01",
    "DOMAIN": "SV",
    "USUBJID": "01-705-007",
    "SVSEQ": 3,
    "VISITNUM": 3,
    "VISIT": "WEEK 2",
    "VISITDY": 15,
    "SVSTDTC": "2013-10-19",
    "SVENDTC": "2013-10-19"
  },
  {
    "STUDYID": "CDISCPILOT01",
    "DOMAIN": "SV",
    "USUBJID": "01-705-007",
    "SVSEQ": 4,
    "VISITNUM": 4,
    "VISIT": "WEEK 4",
    "VISITDY": 29,
    "SVSTDTC": "2013-11-02",
    "SVENDTC": "2013-11-02"
  },
  {
    "STUDYID": "CDISCPILOT01",
    "DOMAIN": "SV",
    "USUBJID": "01-705-007",
    "SVSEQ": 5,
    "VISITNUM": 5,
    "VISIT": "WEEK 8",
    "VISITDY": 57,
    "SVSTDTC": "2013-12-02",
    "SVENDTC": "2013-12-02"
  },
  {
    "STUDYID": "CDISCPILOT01",
    "DOMAIN": "SV",
    "USUBJID": "01-705-007",
    "SVSEQ": 6,
    "VISITNUM": 10,
    "VISIT": "END OF TREATMENT",
    "VISITDY": 58,
    "SVSTDTC": "2013-12-03",
    "SVENDTC": "2013-12-03"
  },
  {
    "STUDYID": "CDISCPILOT01",
    "DOMAIN": "SV",
    "USUBJID": "01-705-008",
    "SVSEQ": 1,
    "VISITNUM": 1,
    "VISIT": "SCREENING",
    "VISITDY": -14,
    "SVSTDTC": "2013-04-29",
    "SVENDTC": "2013-04-29"
  },
  {
    "STUDYID": "CDISCPILOT01",
    "DOMAIN": "SV",
    "USUBJID": "01-705-008",
    "SVSEQ": 2,
    "VISITNUM": 2,
    "VISIT": "BASELINE",
    "VISITDY": 1,
    "SVSTDTC": "2013-05-17",
    "SVENDTC": "2013-05-17"
  },
  {
    "STUDYID": "CDISCPILOT01",
    "DOMAIN": "SV",
    "USUBJID": "01-705-008",
    "SVSEQ": 3,
    "VISITNUM": 3,
    "VISIT": "WEEK 2",
    "VISITDY": 15,
    "SVSTDTC": "2013-05-29",
    "SVENDTC": "2013-05-29"
  },
  {
    "STUDYID": "CDISCPILOT01",
    "DOMAIN": "SV",
    "USUBJID": "01-705-008",
    "SVSEQ": 4,
    "VISITNUM": 4,
    "VISIT": "WEEK 4",
    "VISITDY": 29,
    "SVSTDTC": "2013-06-14",
    "SVENDTC": "2013-06-14"
  },
  {
    "STUDYID": "CDISCPILOT01",
    "DOMAIN": "SV",
    "USUBJID": "01-705-008",
    "SVSEQ": 5,
    "VISITNUM": 5,
    "VISIT": "WEEK 8",
    "VISITDY": 57,
    "SVSTDTC": "2013-07-13",
    "SVENDTC": "2013-07-13"
  },
  {
    "STUDYID": "CDISCPILOT01",
    "DOMAIN": "SV",
    "USUBJID": "01-705-008",
    "SVSEQ": 6,
    "VISITNUM": 6,
    "VISIT": "WEEK 12",
    "VISITDY": 85,
    "SVSTDTC": "2013-08-10",
    "SVENDTC": "2013-08-10"
  },
  {
    "STUDYID": "CDISCPILOT01",
    "DOMAIN": "SV",
    "USUBJID": "01-705-008",
    "SVSEQ": 7,
    "VISITNUM": 7,
    "VISIT": "WEEK 16",
    "VISITDY": 113,
    "SVSTDTC": "2013-09-09",
    "SVENDTC": "2013-09-09"
  },
  {
    "STUDYID": "CDISCPILOT01",
    "DOMAIN": "SV",
    "USUBJID": "01-705-008",
    "SVSEQ": 8,
    "VISITNUM": 8,
    "VISIT": "WEEK 20",
    "VISITDY": 141,
    "SVSTDTC": "2013-10-03",
    "SVENDTC": "2013-10-03"
  },
  {
    "STUDYID": "CDISCPILOT01",
    "DOMAIN": "SV",
    "USUBJID": "01-705-008",
    "SVSEQ": 9,
    "VISITNUM": 9,
    "VISIT": "WEEK 24",
    "VISITDY": 169,
    "SVSTDTC": "2013-11-01",
    "SVENDTC": "2013-11-01"
  },
  {
    "STUDYID": "CDISCPILOT01",
    "DOMAIN": "SV",
    "USUBJID": "01-705-008",
    "SVSEQ": 10,
    "VISITNUM": 10,
    "VISIT": "END OF TREATMENT",
    "VISITDY": 169,
    "SVSTDTC": "2013-10-31",
    "SVENDTC": "2013-10-31"
  },
  {
    "STUDYID": "CDISCPILOT01",
    "DOMAIN": "SV",
    "USUBJID": "01-705-008",
    "SVSEQ": 11,
    "VISITNUM": 11,
    "VISIT": "WEEK 26",
    "VISITDY": 183,
    "SVSTDTC": "2013-11-12",
    "SVENDTC": "2013-11-12"
  },
  {
    "STUDYID": "CDISCPILOT01",
    "DOMAIN": "SV",
    "USUBJID": "01-705-009",
    "SVSEQ": 1,
    "VISITNUM": 1,
    "VISIT": "SCREENING",
    "VISITDY": -14,
    "SVSTDTC": "2013-08-25",
    "SVENDTC": "2013-08-25"
  },
  {
    "STUDYID": "CDISCPILOT01",
    "DOMAIN": "SV",
    "USUBJID": "01-705-009",
    "SVSEQ": 2,
    "VISITNUM": 2,
    "VISIT": "BASELINE",
    "VISITDY": 1,
    "SVSTDTC": "2013-09-09",
    "SVENDTC": "2013-09-09"
  },
  {
    "STUDYID": "CDISCPILOT01",
    "DOMAIN": "SV",
    "USUBJID": "01-705-009",
    "SVSEQ": 3,
    "VISITNUM": 3,
    "VISIT": "WEEK 2",
    "VISITDY": 15,
    "SVSTDTC": "2013-09-23",
    "SVENDTC": "2013-09-23"
  },
  {
    "STUDYID": "CDISCPILOT01",
    "DOMAIN": "SV",
    "USUBJID": "01-705-009",
    "SVSEQ": 4,
    "VISITNUM": 4,
    "VISIT": "WEEK 4",
    "VISITDY": 29,
    "SVSTDTC": "2013-10-02",
    "SVENDTC": "2013-10-02"
  },
  {
    "STUDYID": "CDISCPILOT01",
    "DOMAIN": "SV",
    "USUBJID": "01-705-009",
    "SVSEQ": 5,
    "VISITNUM": 5,
    "VISIT": "WEEK 8",
    "VISITDY": 57,
    "SVSTDTC": "2013-11-04",
    "SVENDTC": "2013-11-04"
  },
  {
    "STUDYID": "CDISCPILOT01",
    "DOMAIN": "SV",
    "USUBJID": "01-705-009",
    "SVSEQ": 6,
    "VISITNUM": 6,
    "VISIT": "WEEK 12",
    "VISITDY": 85,
    "SVSTDTC": "2013-11-27",
    "SVENDTC": "2013-11-27"
  },
  {
    "STUDYID": "CDISCPILOT01",
    "DOMAIN": "SV",
    "USUBJID": "01-705-009",
    "SVSEQ": 7,
    "VISITNUM": 7,
    "VISIT": "WEEK 16",
    "VISITDY": 113,
    "SVSTDTC": "2013-12-25",
    "SVENDTC": "2013-12-25"
  },
  {
    "STUDYID": "CDISCPILOT01",
    "DOMAIN": "SV",
    "USUBJID": "01-705-009",
    "SVSEQ": 8,
    "VISITNUM": 8,
    "VISIT": "WEEK 20",
    "VISITDY": 141,
    "SVSTDTC": "2014-01-23",
    "SVENDTC": "2014-01-23"
  },
  {
    "STUDYID": "CDISCPILOT01",
    "DOMAIN": "SV",
    "USUBJID": "01-705-009",
    "SVSEQ": 9,
    "VISITNUM": 9,
    "VISIT": "WEEK 24",
    "VISITDY": 169,
    "SVSTDTC": "2014-02-21",
    "SVENDTC": "2014-02-21"
  },
  {
    "STUDYID": "CDISCPILOT01",
    "DOMAIN": "SV",
    "USUBJID": "01-705-009",
    "SVSEQ": 10,
    "VISITNUM": 10,
    "VISIT": "END OF TREATMENT",
    "VISITDY": 169,
    "SVSTDTC": "2014-02-20",
    "SVENDTC": "2014-02-20"
  },
  {
    "STUDYID": "CDISCPILOT01",
    "DOMAIN": "SV",
    "USUBJID": "01-705-009",
    "SVSEQ": 11,
    "VISITNUM": 11,
    "VISIT": "WEEK 26",
    "VISITDY": 183,
    "SVSTDTC": "2014-03-10",
    "SVENDTC": "2014-03-10"
  },
  {
    "STUDYID": "CDISCPILOT01",
    "DOMAIN": "SV",
    "USUBJID": "01-705-010",
    "SVSEQ": 1,
    "VISITNUM": 1,
    "VISIT": "SCREENING",
    "VISITDY": -14,
    "SVSTDTC": "2013-07-17",
    "SVENDTC": "2013-07-17"
  },
  {
    "STUDYID": "CDISCPILOT01",
    "DOMAIN": "SV",
    "USUBJID": "01-705-010",
    "SVSEQ": 2,
    "VISITNUM": 2,
    "VISIT": "BASELINE",
    "VISITDY": 1,
    "SVSTDTC": "2013-08-02",
    "SVENDTC": "2013-08-02"
  },
  {
    "STUDYID": "CDISCPILOT01",
    "DOMAIN": "SV",
    "USUBJID": "01-705-010",
    "SVSEQ": 3,
    "VISITNUM": 3,
    "VISIT": "WEEK 2",
    "VISITDY": 15,
    "SVSTDTC": "2013-08-15",
    "SVENDTC": "2013-08-15"
  },
  {
    "STUDYID": "CDISCPILOT01",
    "DOMAIN": "SV",
    "USUBJID": "01-705-010",
    "SVSEQ": 4,
    "VISITNUM": 4,
    "VISIT": "WEEK 4",
    "VISITDY": 29,
    "SVSTDTC": "2013-08-30",
    "SVENDTC": "2013-08-30"
  },
  {
    "STUDYID": "CDISCPILOT01",
    "DOMAIN": "SV",
    "USUBJID": "01-705-010",
    "SVSEQ": 5,
    "VISITNUM": 5,
    "VISIT": "WEEK 8",
    "VISITDY": 57,
    "SVSTDTC": "2013-09-28",
    "SVENDTC": "2013-09-28"
  },
  {
    "STUDYID": "CDISCPILOT01",
    "DOMAIN": "SV",
    "USUBJID": "01-705-010",
    "SVSEQ": 6,
    "VISITNUM": 6,
    "VISIT": "WEEK 12",
    "VISITDY": 85,
    "SVSTDTC": "2013-10-24",
    "SVENDTC": "2013-10-24"
  },
  {
    "STUDYID": "CDISCPILOT01",
    "DOMAIN": "SV",
    "USUBJID": "01-705-010",
    "SVSEQ": 7,
    "VISITNUM": 7,
    "VISIT": "WEEK 16",
    "VISITDY": 113,
    "SVSTDTC": "2013-11-26",
    "SVENDTC": "2013-11-26"
  },
  {
    "STUDYID": "CDISCPILOT01",
    "DOMAIN": "SV",
    "USUBJID": "01-705-010",
    "SVSEQ": 8,
    "VISITNUM": 8,
    "VISIT": "WEEK 20",
    "VISITDY": 141,
    "SVSTDTC": "2013-12-21",
    "SVENDTC": "2013-12-21"
  },
  {
    "STUDYID": "CDISCPILOT01",
    "DOMAIN": "SV",
    "USUBJID": "01-705-010",
    "SVSEQ": 9,
    "VISITNUM": 9,
    "VISIT": "WEEK 24",
    "VISITDY": 169,
    "SVSTDTC": "2014-01-15",
    "SVENDTC": "2014-01-15"
  },
  {
    "STUDYID": "CDISCPILOT01",
    "DOMAIN": "SV",
    "USUBJID": "01-705-010",
    "SVSEQ": 10,
    "VISITNUM": 10,
    "VISIT": "END OF TREATMENT",
    "VISITDY": 169,
    "SVSTDTC": "2014-01-17",
    "SVENDTC": "2014-01-17"
  },
  {
    "STUDYID": "CDISCPILOT01",
    "DOMAIN": "SV",
    "USUBJID": "01-705-010",
    "SVSEQ": 11,
    "VISITNUM": 11,
    "VISIT": "WEEK 26",
    "VISITDY": 183,
    "SVSTDTC": "2014-01-30",
    "SVENDTC": "2014-01-30"
  },
  {
    "STUDYID": "CDISCPILOT01",
    "DOMAIN": "SV",
    "USUBJID": "01-705-011",
    "SVSEQ": 1,
    "VISITNUM": 1,
    "VISIT": "SCREENING",
    "VISITDY": -14,
    "SVSTDTC": "2013-08-05",
    "SVENDTC": "2013-08-05"
  },
  {
    "STUDYID": "CDISCPILOT01",
    "DOMAIN": "SV",
    "USUBJID": "01-705-011",
    "SVSEQ": 2,
    "VISITNUM": 2,
    "VISIT": "BASELINE",
    "VISITDY": 1,
    "SVSTDTC": "2013-08-29",
    "SVENDTC": "2013-08-29"
  },
  {
    "STUDYID": "CDISCPILOT01",
    "DOMAIN": "SV",
    "USUBJID": "01-705-011",
    "SVSEQ": 3,
    "VISITNUM": 3,
    "VISIT": "WEEK 2",
    "VISITDY": 15,
    "SVSTDTC": "2013-09-10",
    "SVENDTC": "2013-09-10"
  },
  {
    "STUDYID": "CDISCPILOT01",
    "DOMAIN": "SV",
    "USUBJID": "01-705-011",
    "SVSEQ": 4,
    "VISITNUM": 4,
    "VISIT": "WEEK 4",
    "VISITDY": 29,
    "SVSTDTC": "2013-09-24",
    "SVENDTC": "2013-09-24"
  },
  {
    "STUDYID": "CDISCPILOT01",
    "DOMAIN": "SV",
    "USUBJID": "01-705-011",
    "SVSEQ": 5,
    "VISITNUM": 10,
    "VISIT": "END OF TREATMENT",
    "VISITDY": 34,
    "SVSTDTC": "2013-09-27",
    "SVENDTC": "2013-09-27"
  },
  {
    "STUDYID": "CDISCPILOT01",
    "DOMAIN": "SV",
    "USUBJID": "01-705-012",
    "SVSEQ": 1,
    "VISITNUM": 1,
    "VISIT": "SCREENING",
    "VISITDY": -14,
    "SVSTDTC": "2013-08-14",
    "SVENDTC": "2013-08-14"
  },
  {
    "STUDYID": "CDISCPILOT01",
    "DOMAIN": "SV",
    "USUBJID": "01-705-012",
    "SVSEQ": 2,
    "VISITNUM": 2,
    "VISIT": "BASELINE",
    "VISITDY": 1,
    "SVSTDTC": "2013-08-29",
    "SVENDTC": "2013-08-29"
  },
  {
    "STUDYID": "CDISCPILOT01",
    "DOMAIN": "SV",
    "USUBJID": "01-705-012",
    "SVSEQ": 3,
    "VISITNUM": 3,
    "VISIT": "WEEK 2",
    "VISITDY": 15,
    "SVSTDTC": "2013-09-12",
    "SVENDTC": "2013-09-12"
  },
  {
    "STUDYID": "CDISCPILOT01",
    "DOMAIN": "SV",
    "USUBJID": "01-705-012",
    "SVSEQ": 4,
    "VISITNUM": 4,
    "VISIT": "WEEK 4",
    "VISITDY": 29,
    "SVSTDTC": "2013-09-28",
    "SVENDTC": "2013-09-28"
  },
  {
    "STUDYID": "CDISCPILOT01",
    "DOMAIN": "SV",
    "USUBJID": "01-705-012",
    "SVSEQ": 5,
    "VISITNUM": 5,
    "VISIT": "WEEK 8",
    "VISITDY": 57,
    "SVSTDTC": "2013-10-25",
    "SVENDTC": "2013-10-25"
  },
  {
    "STUDYID": "CDISCPILOT01",
    "DOMAIN": "SV",
    "USUBJID": "01-705-012",
    "SVSEQ": 6,
    "VISITNUM": 6,
    "VISIT": "WEEK 12",
    "VISITDY": 85,
    "SVSTDTC": "2013-11-19",
    "SVENDTC": "2013-11-19"
  },
  {
    "STUDYID": "CDISCPILOT01",
    "DOMAIN": "SV",
    "USUBJID": "01-705-012",
    "SVSEQ": 7,
    "VISITNUM": 7,
    "VISIT": "WEEK 16",
    "VISITDY": 113,
    "SVSTDTC": "2013-12-18",
    "SVENDTC": "2013-12-18"
  },
  {
    "STUDYID": "CDISCPILOT01",
    "DOMAIN": "SV",
    "USUBJID": "01-705-012",
    "SVSEQ": 8,
    "VISITNUM": 8,
    "VISIT": "WEEK 20",
    "VISITDY": 141,
    "SVSTDTC": "2014-01-14",
    "SVENDTC": "2014-01-14"
  },
  {
    "STUDYID": "CDISCPILOT01",
    "DOMAIN": "SV",
    "USUBJID": "01-705-012",
    "SVSEQ": 9,
    "VISITNUM": 9,
    "VISIT": "WEEK 24",
    "VISITDY": 169,
    "SVSTDTC": "2014-02-15",
    "SVENDTC": "2014-02-15"
  },
  {
    "STUDYID": "CDISCPILOT01",
    "DOMAIN": "SV",
    "USUBJID": "01-705-012",
    "SVSEQ": 10,
    "VISITNUM": 10,
    "VISIT": "END OF TREATMENT",
    "VISITDY": 169,
    "SVSTDTC": "2014-02-10",
    "SVENDTC": "2014-02-10"
  },
  {
    "STUDYID": "CDISCPILOT01",
    "DOMAIN": "SV",
    "USUBJID": "01-705-012",
    "SVSEQ": 11,
    "VISITNUM": 11,
    "VISIT": "WEEK 26",
    "VISITDY": 183,
    "SVSTDTC": "2014-02-23",
    "SVENDTC": "2014-02-23"
  },
  {
    "STUDYID": "CDISCPILOT01",
    "DOMAIN": "SV",
    "USUBJID": "01-705-013",
    "SVSEQ": 1,
    "VISITNUM": 1,
    "VISIT": "SCREENING",
    "VISITDY": -14,
    "SVSTDTC": "2013-01-18",
    "SVENDTC": "2013-01-18"
  },
  {
    "STUDYID": "CDISCPILOT01",
    "DOMAIN": "SV",
    "USUBJID": "01-705-013",
    "SVSEQ": 2,
    "VISITNUM": 2,
    "VISIT": "BASELINE",
    "VISITDY": 1,
    "SVSTDTC": "2013-02-07",
    "SVENDTC": "2013-02-07"
  },
  {
    "STUDYID": "CDISCPILOT01",
    "DOMAIN": "SV",
    "USUBJID": "01-705-013",
    "SVSEQ": 3,
    "VISITNUM": 3,
    "VISIT": "WEEK 2",
    "VISITDY": 15,
    "SVSTDTC": "2013-02-24",
    "SVENDTC": "2013-02-24"
  },
  {
    "STUDYID": "CDISCPILOT01",
    "DOMAIN": "SV",
    "USUBJID": "01-705-013",
    "SVSEQ": 4,
    "VISITNUM": 4,
    "VISIT": "WEEK 4",
    "VISITDY": 29,
    "SVSTDTC": "2013-03-08",
    "SVENDTC": "2013-03-08"
  },
  {
