[
  {
    "STUDYID": "KN868",
    "DOMAIN": "TU",
    "USUBJID": "KN868-0001-0001",
    "TUSEQ": 1,
    "TULNKID": "T1",
    "TUTESTCD": "TUMIDENT",
    "TUTEST": "Tumor Identification",
    "TUORRES": "LYMPH NODE - PELVIC",
    "TUSTRESC": "LYMPH NODE - PELVIC",
    "TULOC": "LYMPH NODE - PELVIC",
    "TULAT": "LEFT",
    "TUMETHOD": "CT SCAN",
    "TUEVAL": "INVESTIGATOR",
    "TUACPTFL": "Y",
    "VISITNUM": 1,
    "VISIT": "SCREENING",
    "TUDTC": "2020-04-02",
    "TUDY": -7
  },
  {
    "STUDYID": "KN868",
    "DOMAIN": "TU",
    "USUBJID": "KN868-0001-0001",
    "TUSEQ": 2,
    "TULNKID": "T2",
    "TUTESTCD": "TUMIDENT",
    "TUTEST": "Tumor Identification",
    "TUORRES": "LUNG",
    "TUSTRESC": "LUNG",
    "TULOC": "LUNG",
    "TULAT": "RIGHT",
    "TUMETHOD": "CT SCAN",
    "TUEVAL": "INVESTIGATOR",
    "TUACPTFL": "Y",
    "VISITNUM": 1,
    "VISIT": "SCREENING",
    "TUDTC": "2020-04-04",
    "TUDY": -7
  },
  {
    "STUDYID": "KN868",
    "DOMAIN": "TU",
    "USUBJID": "KN868-0001-0002",
    "TUSEQ": 1,
    "TULNKID": "T1",
    "TUTESTCD": "TUMIDENT",
    "TUTEST": "Tumor Identification",
    "TUORRES": "PERITONEUM",
    "TUSTRESC": "PERITONEUM",
    "TULOC": "PERITONEUM",
    "TULAT": "LEFT",
    "TUMETHOD": "CT SCAN",
    "TUEVAL": "INVESTIGATOR",
    "TUACPTFL": "Y",
    "VISITNUM": 1,
    "VISIT": "SCREENING",
    "TUDTC": "2020-05-26",
    "TUDY": -7
  },
  {
    "STUDYID": "KN868",
    "DOMAIN": "TU",
    "USUBJID": "KN868-0001-0003",
    "TUSEQ": 1,
    "TULNKID": "T1",
    "TUTESTCD": "TUMIDENT",
    "TUTEST": "Tumor Identification",
    "TUORRES": "LUNG",
    "TUSTRESC": "LUNG",
    "TULOC": "LUNG",
    "TULAT": "",
    "TUMETHOD": "CT SCAN",
    "TUEVAL": "INVESTIGATOR",
    "TUACPTFL": "Y",
    "VISITNUM": 1,
    "VISIT": "SCREENING",
    "TUDTC": "2022-01-06",
    "TUDY": -7
  },
  {
    "STUDYID": "KN868",
    "DOMAIN": "TU",
    "USUBJID": "KN868-0001-0003",
    "TUSEQ": 2,
    "TULNKID": "T2",
    "TUTESTCD": "TUMIDENT",
    "TUTEST": "Tumor Identification",
    "TUORRES": "VAGINA",
    "TUSTRESC": "VAGINA",
    "TULOC": "VAGINA",
    "TULAT": "BILATERAL",
    "TUMETHOD": "CT SCAN",
    "TUEVAL": "INVESTIGATOR",
    "TUACPTFL": "Y",
    "VISITNUM": 1,
    "VISIT": "SCREENING",
    "TUDTC": "2022-01-10",
    "TUDY": -7
  },
  {
    "STUDYID": "KN868",
    "DOMAIN": "TU",
    "USUBJID": "KN868-0001-0003",
    "TUSEQ": 3,
    "TULNKID": "NT1",
    "TUTESTCD": "TUMIDENT",
    "TUTEST": "Tumor Identification",
    "TUORRES": "LIVER",
    "TUSTRESC": "LIVER",
    "TULOC": "LIVER",
    "TULAT": "RIGHT",
    "TUMETHOD": "CT SCAN",
    "TUEVAL": "INVESTIGATOR",
    "TUACPTFL": "Y",
    "VISITNUM": 1,
    "VISIT": "SCREENING",
    "TUDTC": "2022-01-06",
    "TUDY": -7
  },
  {
    "STUDYID": "KN868",
    "DOMAIN": "TU",
    "USUBJID": "KN868-0001-0003",
    "TUSEQ": 4,
    "TULNKID": "NT2",
    "TUTESTCD": "TUMIDENT",
    "TUTEST": "Tumor Identification",
    "TUORRES": "OMENTUM",
    "TUSTRESC": "OMENTUM",
    "TULOC": "OMENTUM",
    "TULAT": "RIGHT",
    "TUMETHOD": "CT SCAN",
    "TUEVAL": "INVESTIGATOR",
    "TUACPTFL": "Y",
    "VISITNUM": 1,
    "VISIT": "SCREENING",
    "TUDTC": "2022-01-05",
    "TUDY": -7
  },
  {
    "STUDYID": "KN868",
    "DOMAIN": "TU",
    "USUBJID": "KN868-0001-0004",
    "TUSEQ": 1,
    "TULNKID": "T1",
    "TUTESTCD": "TUMIDENT",
    "TUTEST": "Tumor Identification",
    "TUORRES": "LYMPH NODE - PELVIC",
    "TUSTRESC": "LYMPH NODE - PELVIC",
    "TULOC": "LYMPH NODE - PELVIC",
    "TULAT": "",
    "TUMETHOD": "CT SCAN",
    "TUEVAL": "INVESTIGATOR",
    "TUACPTFL": "Y",
    "VISITNUM": 1,
    "VISIT": "SCREENING",
    "TUDTC": "2021-09-04",
    "TUDY": -7
  },
  {
    "STUDYID": "KN868",
    "DOMAIN": "TU",
    "USUBJID": "KN868-0001-0004",
    "TUSEQ": 2,
    "TULNKID": "T2",
    "TUTESTCD": "TUMIDENT",
    "TUTEST": "Tumor Identification",
    "TUORRES": "UTERUS",
    "TUSTRESC": "UTERUS",
    "TULOC": "UTERUS",
    "TULAT": "LEFT",
    "TUMETHOD": "CT SCAN",
    "TUEVAL": "INVESTIGATOR",
    "TUACPTFL": "Y",
    "VISITNUM": 1,
    "VISIT": "SCREENING",
    "TUDTC": "2021-09-01",
    "TUDY": -7
  },
  {
    "STUDYID": "KN868",
    "DOMAIN": "TU",
    "USUBJID": "KN868-0001-0004",
    "TUSEQ": 3,
    "TULNKID": "T3",
    "TUTESTCD": "TUMIDENT",
    "TUTEST": "Tumor Identification",
    "TUORRES": "VAGINA",
    "TUSTRESC": "VAGINA",
    "TULOC": "VAGINA",
    "TULAT": "BILATERAL",
    "TUMETHOD": "CT SCAN",
    "TUEVAL": "INVESTIGATOR",
    "TUACPTFL": "Y",
    "VISITNUM": 1,
    "VISIT": "SCREENING",
    "TUDTC": "2021-09-02",
    "TUDY": -7
  },
  {
    "STUDYID": "KN868",
    "DOMAIN": "TU",
    "USUBJID": "KN868-0001-0004",
    "TUSEQ": 4,
    "TULNKID": "T4",
    "TUTESTCD": "TUMIDENT",
    "TUTEST": "Tumor Identification",
    "TUORRES": "LUNG",
    "TUSTRESC": "LUNG",
    "TULOC": "LUNG",
    "TULAT": "LEFT",
    "TUMETHOD": "CT SCAN",
    "TUEVAL": "INVESTIGATOR",
    "TUACPTFL": "Y",
    "VISITNUM": 1,
    "VISIT": "SCREENING",
    "TUDTC": "2021-08-31",
    "TUDY": -7
  },
  {
    "STUDYID": "KN868",
    "DOMAIN": "TU",
    "USUBJID": "KN868-0001-0005",
    "TUSEQ": 1,
    "TULNKID": "T1",
    "TUTESTCD": "TUMIDENT",
    "TUTEST": "Tumor Identification",
    "TUORRES": "VAGINA",
    "TUSTRESC": "VAGINA",
    "TULOC": "VAGINA",
    "TULAT": "RIGHT",
    "TUMETHOD": "CT SCAN",
    "TUEVAL": "INVESTIGATOR",
    "TUACPTFL": "Y",
    "VISITNUM": 1,
    "VISIT": "SCREENING",
    "TUDTC": "2020-12-12",
    "TUDY": -7
  },
  {
    "STUDYID": "KN868",
    "DOMAIN": "TU",
    "USUBJID": "KN868-0001-0005",
    "TUSEQ": 2,
    "TULNKID": "T2",
    "TUTESTCD": "TUMIDENT",
    "TUTEST": "Tumor Identification",
    "TUORRES": "PELVIS",
    "TUSTRESC": "PELVIS",
    "TULOC": "PELVIS",
    "TULAT": "LEFT",
    "TUMETHOD": "CT SCAN",
    "TUEVAL": "INVESTIGATOR",
    "TUACPTFL": "Y",
    "VISITNUM": 1,
    "VISIT": "SCREENING",
    "TUDTC": "2020-12-13",
    "TUDY": -7
  },
  {
    "STUDYID": "KN868",
    "DOMAIN": "TU",
    "USUBJID": "KN868-0001-0005",
    "TUSEQ": 3,
    "TULNKID": "T3",
    "TUTESTCD": "TUMIDENT",
    "TUTEST": "Tumor Identification",
    "TUORRES": "LUNG",
    "TUSTRESC": "LUNG",
    "TULOC": "LUNG",
    "TULAT": "",
    "TUMETHOD": "CT SCAN",
    "TUEVAL": "INVESTIGATOR",
    "TUACPTFL": "Y",
    "VISITNUM": 1,
    "VISIT": "SCREENING",
    "TUDTC": "2020-12-08",
    "TUDY": -7
  },
  {
    "STUDYID": "KN868",
    "DOMAIN": "TU",
    "USUBJID": "KN868-0001-0006",
    "TUSEQ": 1,
    "TULNKID": "T1",
    "TUTESTCD": "TUMIDENT",
    "TUTEST": "Tumor Identification",
    "TUORRES": "OMENTUM",
    "TUSTRESC": "OMENTUM",
    "TULOC": "OMENTUM",
    "TULAT": "BILATERAL",
    "TUMETHOD": "CT SCAN",
    "TUEVAL": "INVESTIGATOR",
    "TUACPTFL": "Y",
    "VISITNUM": 1,
    "VISIT": "SCREENING",
    "TUDTC": "2022-01-24",
    "TUDY": -7
  },
  {
    "STUDYID": "KN868",
    "DOMAIN": "TU",
    "USUBJID": "KN868-0001-0006",
    "TUSEQ": 2,
    "TULNKID": "T2",
    "TUTESTCD": "TUMIDENT",
    "TUTEST": "Tumor Identification",
    "TUORRES": "UTERUS",
    "TUSTRESC": "UTERUS",
    "TULOC": "UTERUS",
    "TULAT": "BILATERAL",
    "TUMETHOD": "CT SCAN",
    "TUEVAL": "INVESTIGATOR",
    "TUACPTFL": "Y",
    "VISITNUM": 1,
    "VISIT": "SCREENING",
    "TUDTC": "2022-01-30",
    "TUDY": -7
  },
  {
    "STUDYID": "KN868",
    "DOMAIN": "TU",
    "USUBJID": "KN868-0001-0006",
    "TUSEQ": 3,
    "TULNKID": "NT1",
    "TUTESTCD": "TUMIDENT",
    "TUTEST": "Tumor Identification",
    "TUORRES": "LYMPH NODE - PARA-AORTIC",
    "TUSTRESC": "LYMPH NODE - PARA-AORTIC",
    "TULOC": "LYMPH NODE - PARA-AORTIC",
    "TULAT": "LEFT",
    "TUMETHOD": "CT SCAN",
    "TUEVAL": "INVESTIGATOR",
    "TUACPTFL": "Y",
    "VISITNUM": 1,
    "VISIT": "SCREENING",
    "TUDTC": "2022-01-27",
    "TUDY": -7
  },
  {
    "STUDYID": "KN868",
    "DOMAIN": "TU",
    "USUBJID": "KN868-0001-0007",
    "TUSEQ": 1,
    "TULNKID": "T1",
    "TUTESTCD": "TUMIDENT",
    "TUTEST": "Tumor Identification",
    "TUORRES": "PERITONEUM",
    "TUSTRESC": "PERITONEUM",
    "TULOC": "PERITONEUM",
    "TULAT": "RIGHT",
    "TUMETHOD": "CT SCAN",
    "TUEVAL": "INVESTIGATOR",
    "TUACPTFL": "Y",
    "VISITNUM": 1,
    "VISIT": "SCREENING",
    "TUDTC": "2020-07-09",
    "TUDY": -7
  },
  {
    "STUDYID": "KN868",
    "DOMAIN": "TU",
    "USUBJID": "KN868-0001-0007",
    "TUSEQ": 2,
    "TULNKID": "T2",
    "TUTESTCD": "TUMIDENT",
    "TUTEST": "Tumor Identification",
    "TUORRES": "LYMPH NODE - PELVIC",
    "TUSTRESC": "LYMPH NODE - PELVIC",
    "TULOC": "LYMPH NODE - PELVIC",
    "TULAT": "RIGHT",
    "TUMETHOD": "CT SCAN",
    "TUEVAL": "INVESTIGATOR",
    "TUACPTFL": "Y",
    "VISITNUM": 1,
    "VISIT": "SCREENING",
    "TUDTC": "2020-07-05",
    "TUDY": -7
  },
  {
    "STUDYID": "KN868",
    "DOMAIN": "TU",
    "USUBJID": "KN868-0001-0008",
    "TUSEQ": 1,
    "TULNKID": "T1",
    "TUTESTCD": "TUMIDENT",
    "TUTEST": "Tumor Identification",
    "TUORRES": "VAGINA",
    "TUSTRESC": "VAGINA",
    "TULOC": "VAGINA",
    "TULAT": "",
    "TUMETHOD": "CT SCAN",
    "TUEVAL": "INVESTIGATOR",
    "TUACPTFL": "Y",
    "VISITNUM": 1,
    "VISIT": "SCREENING",
    "TUDTC": "2021-12-25",
    "TUDY": -7
  },
  {
    "STUDYID": "KN868",
    "DOMAIN": "TU",
    "USUBJID": "KN868-0001-0008",
    "TUSEQ": 2,
    "TULNKID": "T2",
    "TUTESTCD": "TUMIDENT",
    "TUTEST": "Tumor Identification",
    "TUORRES": "PELVIS",
    "TUSTRESC": "PELVIS",
    "TULOC": "PELVIS",
    "TULAT": "",
    "TUMETHOD": "CT SCAN",
    "TUEVAL": "INVESTIGATOR",
    "TUACPTFL": "Y",
    "VISITNUM": 1,
    "VISIT": "SCREENING",
    "TUDTC": "2022-01-01",
    "TUDY": -7
  },
  {
    "STUDYID": "KN868",
    "DOMAIN": "TU",
    "USUBJID": "KN868-0001-0008",
    "TUSEQ": 3,
    "TULNKID": "T3",
    "TUTESTCD": "TUMIDENT",
    "TUTEST": "Tumor Identification",
    "TUORRES": "LYMPH NODE - PELVIC",
    "TUSTRESC": "LYMPH NODE - PELVIC",
    "TULOC": "LYMPH NODE - PELVIC",
    "TULAT": "RIGHT",
    "TUMETHOD": "CT SCAN",
    "TUEVAL": "INVESTIGATOR",
    "TUACPTFL": "Y",
    "VISITNUM": 1,
    "VISIT": "SCREENING",
    "TUDTC": "2021-12-30",
    "TUDY": -7
  },
  {
    "STUDYID": "KN868",
    "DOMAIN": "TU",
    "USUBJID": "KN868-0001-0008",
    "TUSEQ": 4,
    "TULNKID": "NT1",
    "TUTESTCD": "TUMIDENT",
    "TUTEST": "Tumor Identification",
    "TUORRES": "LYMPH NODE - PARA-AORTIC",
    "TUSTRESC": "LYMPH NODE - PARA-AORTIC",
    "TULOC": "LYMPH NODE - PARA-AORTIC",
    "TULAT": "BILATERAL",
    "TUMETHOD": "CT SCAN",
    "TUEVAL": "INVESTIGATOR",
    "TUACPTFL": "Y",
    "VISITNUM": 1,
    "VISIT": "SCREENING",
    "TUDTC": "2021-12-29",
    "TUDY": -7
  },
  {
    "STUDYID": "KN868",
    "DOMAIN": "TU",
    "USUBJID": "KN868-0001-0008",
    "TUSEQ": 5,
    "TULNKID": "NT2",
    "TUTESTCD": "TUMIDENT",
    "TUTEST": "Tumor Identification",
    "TUORRES": "UTERUS",
    "TUSTRESC": "UTERUS",
    "TULOC": "UTERUS",
    "TULAT": "",
    "TUMETHOD": "CT SCAN",
    "TUEVAL": "INVESTIGATOR",
    "TUACPTFL": "Y",
    "VISITNUM": 1,
    "VISIT": "SCREENING",
    "TUDTC": "2021-12-30",
    "TUDY": -7
  },
  {
    "STUDYID": "KN868",
    "DOMAIN": "TU",
    "USUBJID": "KN868-0001-0009",
    "TUSEQ": 1,
    "TULNKID": "T1",
    "TUTESTCD": "TUMIDENT",
    "TUTEST": "Tumor Identification",
    "TUORRES": "LUNG",
    "TUSTRESC": "LUNG",
    "TULOC": "LUNG",
    "TULAT": "",
    "TUMETHOD": "CT SCAN",
    "TUEVAL": "INVESTIGATOR",
    "TUACPTFL": "Y",
    "VISITNUM": 1,
    "VISIT": "SCREENING",
    "TUDTC": "2021-06-23",
    "TUDY": -7
  },
  {
    "STUDYID": "KN868",
    "DOMAIN": "TU",
    "USUBJID": "KN868-0001-0009",
    "TUSEQ": 2,
    "TULNKID": "T2",
    "TUTESTCD": "TUMIDENT",
    "TUTEST": "Tumor Identification",
    "TUORRES": "LIVER",
    "TUSTRESC": "LIVER",
    "TULOC": "LIVER",
    "TULAT": "LEFT",
    "TUMETHOD": "CT SCAN",
    "TUEVAL": "INVESTIGATOR",
    "TUACPTFL": "Y",
    "VISITNUM": 1,
    "VISIT": "SCREENING",
    "TUDTC": "2021-06-21",
    "TUDY": -7
  },
  {
    "STUDYID": "KN868",
    "DOMAIN": "TU",
    "USUBJID": "KN868-0001-0009",
    "TUSEQ": 3,
    "TULNKID": "NT1",
    "TUTESTCD": "TUMIDENT",
    "TUTEST": "Tumor Identification",
    "TUORRES": "PERITONEUM",
    "TUSTRESC": "PERITONEUM",
    "TULOC": "PERITONEUM",
    "TULAT": "RIGHT",
    "TUMETHOD": "CT SCAN",
    "TUEVAL": "INVESTIGATOR",
    "TUACPTFL": "Y",
    "VISITNUM": 1,
    "VISIT": "SCREENING",
    "TUDTC": "2021-06-20",
    "TUDY": -7
  },
  {
    "STUDYID": "KN868",
    "DOMAIN": "TU",
    "USUBJID": "KN868-0001-0009",
    "TUSEQ": 4,
    "TULNKID": "NT2",
    "TUTESTCD": "TUMIDENT",
    "TUTEST": "Tumor Identification",
    "TUORRES": "VAGINA",
    "TUSTRESC": "VAGINA",
    "TULOC": "VAGINA",
    "TULAT": "",
    "TUMETHOD": "CT SCAN",
    "TUEVAL": "INVESTIGATOR",
    "TUACPTFL": "Y",
    "VISITNUM": 1,
    "VISIT": "SCREENING",
    "TUDTC": "2021-06-23",
    "TUDY": -7
  },
  {
    "STUDYID": "KN868",
    "DOMAIN": "TU",
    "USUBJID": "KN868-0001-0010",
    "TUSEQ": 1,
    "TULNKID": "T1",
    "TUTESTCD": "TUMIDENT",
    "TUTEST": "Tumor Identification",
    "TUORRES": "OMENTUM",
    "TUSTRESC": "OMENTUM",
    "TULOC": "OMENTUM",
    "TULAT": "BILATERAL",
    "TUMETHOD": "CT SCAN",
    "TUEVAL": "INVESTIGATOR",
    "TUACPTFL": "Y",
    "VISITNUM": 1,
    "VISIT": "SCREENING",
    "TUDTC": "2021-04-29",
    "TUDY": -7
  },
  {
    "STUDYID": "KN868",
    "DOMAIN": "TU",
    "USUBJID": "KN868-0001-0010",
    "TUSEQ": 2,
    "TULNKID": "T2",
    "TUTESTCD": "TUMIDENT",
    "TUTEST": "Tumor Identification",
    "TUORRES": "LIVER",
    "TUSTRESC": "LIVER",
    "TULOC": "LIVER",
    "TULAT": "LEFT",
    "TUMETHOD": "CT SCAN",
    "TUEVAL": "INVESTIGATOR",
    "TUACPTFL": "Y",
    "VISITNUM": 1,
    "VISIT": "SCREENING",
    "TUDTC": "2021-04-28",
    "TUDY": -7
  },
  {
    "STUDYID": "KN868",
    "DOMAIN": "TU",
    "USUBJID": "KN868-0001-0010",
    "TUSEQ": 3,
    "TULNKID": "NT1",
    "TUTESTCD": "TUMIDENT",
    "TUTEST": "Tumor Identification",
    "TUORRES": "PELVIS",
    "TUSTRESC": "PELVIS",
    "TULOC": "PELVIS",
    "TULAT": "",
    "TUMETHOD": "CT SCAN",
    "TUEVAL": "INVESTIGATOR",
    "TUACPTFL": "Y",
    "VISITNUM": 1,
    "VISIT": "SCREENING",
    "TUDTC": "2021-04-25",
    "TUDY": -7
  },
  {
    "STUDYID": "KN868",
    "DOMAIN": "TU",
    "USUBJID": "KN868-0001-0011",
    "TUSEQ": 1,
    "TULNKID": "T1",
    "TUTESTCD": "TUMIDENT",
    "TUTEST": "Tumor Identification",
    "TUORRES": "PERITONEUM",
    "TUSTRESC": "PERITONEUM",
    "TULOC": "PERITONEUM",
    "TULAT": "BILATERAL",
    "TUMETHOD": "CT SCAN",
    "TUEVAL": "INVESTIGATOR",
    "TUACPTFL": "Y",
    "VISITNUM": 1,
    "VISIT": "SCREENING",
    "TUDTC": "2021-04-26",
    "TUDY": -7
  },
  {
    "STUDYID": "KN868",
    "DOMAIN": "TU",
    "USUBJID": "KN868-0001-0011",
    "TUSEQ": 2,
    "TULNKID": "T2",
    "TUTESTCD": "TUMIDENT",
    "TUTEST": "Tumor Identification",
    "TUORRES": "OMENTUM",
    "TUSTRESC": "OMENTUM",
    "TULOC": "OMENTUM",
    "TULAT": "BILATERAL",
    "TUMETHOD": "CT SCAN",
    "TUEVAL": "INVESTIGATOR",
    "TUACPTFL": "Y",
    "VISITNUM": 1,
    "VISIT": "SCREENING",
    "TUDTC": "2021-04-24",
    "TUDY": -7
  },
  {
    "STUDYID": "KN868",
    "DOMAIN": "TU",
    "USUBJID": "KN868-0001-0011",
    "TUSEQ": 3,
    "TULNKID": "NT1",
    "TUTESTCD": "TUMIDENT",
    "TUTEST": "Tumor Identification",
    "TUORRES": "LYMPH NODE - PELVIC",
    "TUSTRESC": "LYMPH NODE - PELVIC",
    "TULOC": "LYMPH NODE - PELVIC",
    "TULAT": "BILATERAL",
    "TUMETHOD": "CT SCAN",
    "TUEVAL": "INVESTIGATOR",
    "TUACPTFL": "Y",
    "VISITNUM": 1,
    "VISIT": "SCREENING",
    "TUDTC": "2021-04-26",
    "TUDY": -7
  },
  {
    "STUDYID": "KN868",
    "DOMAIN": "TU",
    "USUBJID": "KN868-0001-0011",
    "TUSEQ": 4,
    "TULNKID": "NT2",
    "TUTESTCD": "TUMIDENT",
    "TUTEST": "Tumor Identification",
    "TUORRES": "LYMPH NODE - PARA-AORTIC",
    "TUSTRESC": "LYMPH NODE - PARA-AORTIC",
    "TULOC": "LYMPH NODE - PARA-AORTIC",
    "TULAT": "LEFT",
    "TUMETHOD": "CT SCAN",
    "TUEVAL": "INVESTIGATOR",
    "TUACPTFL": "Y",
    "VISITNUM": 1,
    "VISIT": "SCREENING",
    "TUDTC": "2021-04-30",
    "TUDY": -7
  },
  {
    "STUDYID": "KN868",
    "DOMAIN": "TU",
    "USUBJID": "KN868-0001-0012",
    "TUSEQ": 1,
    "TULNKID": "T1",
    "TUTESTCD": "TUMIDENT",
    "TUTEST": "Tumor Identification",
    "TUORRES": "LYMPH NODE - PARA-AORTIC",
    "TUSTRESC": "LYMPH NODE - PARA-AORTIC",
    "TULOC": "LYMPH NODE - PARA-AORTIC",
    "TULAT": "LEFT",
    "TUMETHOD": "CT SCAN",
    "TUEVAL": "INVESTIGATOR",
    "TUACPTFL": "Y",
    "VISITNUM": 1,
    "VISIT": "SCREENING",
    "TUDTC": "2021-11-20",
    "TUDY": -7
  },
  {
    "STUDYID": "KN868",
    "DOMAIN": "TU",
    "USUBJID": "KN868-0001-0012",
    "TUSEQ": 2,
    "TULNKID": "T2",
    "TUTESTCD": "TUMIDENT",
    "TUTEST": "Tumor Identification",
    "TUORRES": "VAGINA",
    "TUSTRESC": "VAGINA",
    "TULOC": "VAGINA",
    "TULAT": "RIGHT",
    "TUMETHOD": "CT SCAN",
    "TUEVAL": "INVESTIGATOR",
    "TUACPTFL": "Y",
    "VISITNUM": 1,
    "VISIT": "SCREENING",
    "TUDTC": "2021-11-16",
    "TUDY": -7
  },
  {
    "STUDYID": "KN868",
    "DOMAIN": "TU",
    "USUBJID": "KN868-0001-0012",
    "TUSEQ": 3,
    "TULNKID": "NT1",
    "TUTESTCD": "TUMIDENT",
    "TUTEST": "Tumor Identification",
    "TUORRES": "PERITONEUM",
    "TUSTRESC": "PERITONEUM",
    "TULOC": "PERITONEUM",
    "TULAT": "RIGHT",
    "TUMETHOD": "CT SCAN",
    "TUEVAL": "INVESTIGATOR",
    "TUACPTFL": "Y",
    "VISITNUM": 1,
    "VISIT": "SCREENING",
    "TUDTC": "2021-11-14",
    "TUDY": -7
  },
  {
    "STUDYID": "KN868",
    "DOMAIN": "TU",
    "USUBJID": "KN868-0001-0012",
    "TUSEQ": 4,
    "TULNKID": "NT2",
    "TUTESTCD": "TUMIDENT",
    "TUTEST": "Tumor Identification",
    "TUORRES": "PELVIS",
    "TUSTRESC": "PELVIS",
    "TULOC": "PELVIS",
    "TULAT": "LEFT",
    "TUMETHOD": "CT SCAN",
    "TUEVAL": "INVESTIGATOR",
    "TUACPTFL": "Y",
    "VISITNUM": 1,
    "VISIT": "SCREENING",
    "TUDTC": "2021-11-18",
    "TUDY": -7
  },
  {
    "STUDYID": "KN868",
    "DOMAIN": "TU",
    "USUBJID": "KN868-0001-0013",
    "TUSEQ": 1,
    "TULNKID": "T1",
    "TUTESTCD": "TUMIDENT",
    "TUTEST": "Tumor Identification",
    "TUORRES": "PELVIS",
    "TUSTRESC": "PELVIS",
    "TULOC": "PELVIS",
    "TULAT": "",
    "TUMETHOD": "CT SCAN",
    "TUEVAL": "INVESTIGATOR",
    "TUACPTFL": "Y",
    "VISITNUM": 1,
    "VISIT": "SCREENING",
    "TUDTC": "2021-01-06",
    "TUDY": -7
  },
  {
    "STUDYID": "KN868",
    "DOMAIN": "TU",
    "USUBJID": "KN868-0001-0013",
    "TUSEQ": 2,
    "TULNKID": "T2",
    "TUTESTCD": "TUMIDENT",
    "TUTEST": "Tumor Identification",
    "TUORRES": "LUNG",
    "TUSTRESC": "LUNG",
    "TULOC": "LUNG",
    "TULAT": "RIGHT",
    "TUMETHOD": "CT SCAN",
    "TUEVAL": "INVESTIGATOR",
    "TUACPTFL": "Y",
    "VISITNUM": 1,
    "VISIT": "SCREENING",
    "TUDTC": "2021-01-07",
    "TUDY": -7
  },
  {
    "STUDYID": "KN868",
    "DOMAIN": "TU",
    "USUBJID": "KN868-0001-0014",
    "TUSEQ": 1,
    "TULNKID": "T1",
    "TUTESTCD": "TUMIDENT",
    "TUTEST": "Tumor Identification",
    "TUORRES": "PERITONEUM",
    "TUSTRESC": "PERITONEUM",
    "TULOC": "PERITONEUM",
    "TULAT": "LEFT",
    "TUMETHOD": "CT SCAN",
    "TUEVAL": "INVESTIGATOR",
    "TUACPTFL": "Y",
    "VISITNUM": 1,
    "VISIT": "SCREENING",
    "TUDTC": "2020-03-07",
    "TUDY": -7
  },
  {
    "STUDYID": "KN868",
    "DOMAIN": "TU",
    "USUBJID": "KN868-0001-0014",
    "TUSEQ": 2,
    "TULNKID": "NT1",
    "TUTESTCD": "TUMIDENT",
    "TUTEST": "Tumor Identification",
    "TUORRES": "LIVER",
    "TUSTRESC": "LIVER",
    "TULOC": "LIVER",
    "TULAT": "",
    "TUMETHOD": "CT SCAN",
    "TUEVAL": "INVESTIGATOR",
    "TUACPTFL": "Y",
    "VISITNUM": 1,
    "VISIT": "SCREENING",
    "TUDTC": "2020-03-12",
    "TUDY": -7
  },
  {
    "STUDYID": "KN868",
    "DOMAIN": "TU",
    "USUBJID": "KN868-0001-0014",
    "TUSEQ": 3,
    "TULNKID": "NT2",
    "TUTESTCD": "TUMIDENT",
    "TUTEST": "Tumor Identification",
    "TUORRES": "OMENTUM",
    "TUSTRESC": "OMENTUM",
    "TULOC": "OMENTUM",
    "TULAT": "LEFT",
    "TUMETHOD": "CT SCAN",
    "TUEVAL": "INVESTIGATOR",
    "TUACPTFL": "Y",
    "VISITNUM": 1,
    "VISIT": "SCREENING",
    "TUDTC": "2020-03-14",
    "TUDY": -7
  },
  {
    "STUDYID": "KN868",
    "DOMAIN": "TU",
    "USUBJID": "KN868-0001-0015",
    "TUSEQ": 1,
    "TULNKID": "T1",
    "TUTESTCD": "TUMIDENT",
    "TUTEST": "Tumor Identification",
    "TUORRES": "LIVER",
    "TUSTRESC": "LIVER",
    "TULOC": "LIVER",
    "TULAT": "LEFT",
    "TUMETHOD": "CT SCAN",
    "TUEVAL": "INVESTIGATOR",
    "TUACPTFL": "Y",
    "VISITNUM": 1,
    "VISIT": "SCREENING",
    "TUDTC": "2021-03-30",
    "TUDY": -7
  },
  {
    "STUDYID": "KN868",
    "DOMAIN": "TU",
    "USUBJID": "KN868-0001-0015",
    "TUSEQ": 2,
    "TULNKID": "T2",
    "TUTESTCD": "TUMIDENT",
    "TUTEST": "Tumor Identification",
    "TUORRES": "PERITONEUM",
    "TUSTRESC": "PERITONEUM",
    "TULOC": "PERITONEUM",
    "TULAT": "BILATERAL",
    "TUMETHOD": "CT SCAN",
    "TUEVAL": "INVESTIGATOR",
    "TUACPTFL": "Y",
    "VISITNUM": 1,
    "VISIT": "SCREENING",
    "TUDTC": "2021-03-29",
    "TUDY": -7
  },
  {
    "STUDYID": "KN868",
    "DOMAIN": "TU",
    "USUBJID": "KN868-0001-0015",
    "TUSEQ": 3,
    "TULNKID": "NT1",
    "TUTESTCD": "TUMIDENT",
    "TUTEST": "Tumor Identification",
    "TUORRES": "OMENTUM",
    "TUSTRESC": "OMENTUM",
    "TULOC": "OMENTUM",
    "TULAT": "BILATERAL",
    "TUMETHOD": "CT SCAN",
    "TUEVAL": "INVESTIGATOR",
    "TUACPTFL": "Y",
    "VISITNUM": 1,
    "VISIT": "SCREENING",
    "TUDTC": "2021-03-29",
    "TUDY": -7
  },
  {
    "STUDYID": "KN868",
    "DOMAIN": "TU",
    "USUBJID": "KN868-0001-0016",
    "TUSEQ": 1,
    "TULNKID": "T1",
    "TUTESTCD": "TUMIDENT",
    "TUTEST": "Tumor Identification",
    "TUORRES": "LIVER",
    "TUSTRESC": "LIVER",
    "TULOC": "LIVER",
    "TULAT": "",
    "TUMETHOD": "CT SCAN",
    "TUEVAL": "INVESTIGATOR",
    "TUACPTFL": "Y",
    "VISITNUM": 1,
    "VISIT": "SCREENING",
    "TUDTC": "2021-09-17",
    "TUDY": -7
  },
  {
    "STUDYID": "KN868",
    "DOMAIN": "TU",
    "USUBJID": "KN868-0001-0016",
    "TUSEQ": 2,
    "TULNKID": "T2",
    "TUTESTCD": "TUMIDENT",
    "TUTEST": "Tumor Identification",
    "TUORRES": "LYMPH NODE - PELVIC",
    "TUSTRESC": "LYMPH NODE - PELVIC",
    "TULOC": "LYMPH NODE - PELVIC",
    "TULAT": "",
    "TUMETHOD": "CT SCAN",
    "TUEVAL": "INVESTIGATOR",
    "TUACPTFL": "Y",
    "VISITNUM": 1,
    "VISIT": "SCREENING",
    "TUDTC": "2021-09-20",
    "TUDY": -7
  },
  {
    "STUDYID": "KN868",
    "DOMAIN": "TU",
    "USUBJID": "KN868-0001-0016",
    "TUSEQ": 3,
    "TULNKID": "NT1",
    "TUTESTCD": "TUMIDENT",
    "TUTEST": "Tumor Identification",
    "TUORRES": "LYMPH NODE - PARA-AORTIC",
    "TUSTRESC": "LYMPH NODE - PARA-AORTIC",
    "TULOC": "LYMPH NODE - PARA-AORTIC",
    "TULAT": "BILATERAL",
    "TUMETHOD": "CT SCAN",
    "TUEVAL": "INVESTIGATOR",
    "TUACPTFL": "Y",
    "VISITNUM": 1,
    "VISIT": "SCREENING",
    "TUDTC": "2021-09-22",
    "TUDY": -7
  },
  {
    "STUDYID": "KN868",
    "DOMAIN": "TU",
    "USUBJID": "KN868-0001-0017",
    "TUSEQ": 1,
    "TULNKID": "T1",
    "TUTESTCD": "TUMIDENT",
    "TUTEST": "Tumor Identification",
    "TUORRES": "LUNG",
    "TUSTRESC": "LUNG",
    "TULOC": "LUNG",
    "TULAT": "LEFT",
    "TUMETHOD": "CT SCAN",
    "TUEVAL": "INVESTIGATOR",
    "TUACPTFL": "Y",
    "VISITNUM": 1,
    "VISIT": "SCREENING",
    "TUDTC": "2020-02-27",
    "TUDY": -7
  },
  {
    "STUDYID": "KN868",
    "DOMAIN": "TU",
    "USUBJID": "KN868-0001-0017",
    "TUSEQ": 2,
    "TULNKID": "T2",
    "TUTESTCD": "TUMIDENT",
    "TUTEST": "Tumor Identification",
    "TUORRES": "PELVIS",
    "TUSTRESC": "PELVIS",
    "TULOC": "PELVIS",
    "TULAT": "",
    "TUMETHOD": "CT SCAN",
    "TUEVAL": "INVESTIGATOR",
    "TUACPTFL": "Y",
    "VISITNUM": 1,
    "VISIT": "SCREENING",
    "TUDTC": "2020-02-25",
    "TUDY": -7
  },
  {
    "STUDYID": "KN868",
    "DOMAIN": "TU",
    "USUBJID": "KN868-0001-0017",
    "TUSEQ": 3,
    "TULNKID": "NT1",
    "TUTESTCD": "TUMIDENT",
    "TUTEST": "Tumor Identification",
    "TUORRES": "LYMPH NODE - PARA-AORTIC",
    "TUSTRESC": "LYMPH NODE - PARA-AORTIC",
    "TULOC": "LYMPH NODE - PARA-AORTIC",
    "TULAT": "",
    "TUMETHOD": "CT SCAN",
    "TUEVAL": "INVESTIGATOR",
    "TUACPTFL": "Y",
    "VISITNUM": 1,
    "VISIT": "SCREENING",
    "TUDTC": "2020-02-27",
    "TUDY": -7
  },
  {
    "STUDYID": "KN868",
    "DOMAIN": "TU",
    "USUBJID": "KN868-0001-0018",
    "TUSEQ": 1,
    "TULNKID": "T1",
    "TUTESTCD": "TUMIDENT",
    "TUTEST": "Tumor Identification",
    "TUORRES": "OMENTUM",
    "TUSTRESC": "OMENTUM",
    "TULOC": "OMENTUM",
    "TULAT": "LEFT",
    "TUMETHOD": "CT SCAN",
    "TUEVAL": "INVESTIGATOR",
    "TUACPTFL": "Y",
    "VISITNUM": 1,
    "VISIT": "SCREENING",
    "TUDTC": "2021-12-16",
    "TUDY": -7
  },
  {
    "STUDYID": "KN868",
    "DOMAIN": "TU",
    "USUBJID": "KN868-0001-0018",
    "TUSEQ": 2,
    "TULNKID": "T2",
    "TUTESTCD": "TUMIDENT",
    "TUTEST": "Tumor Identification",
    "TUORRES": "VAGINA",
    "TUSTRESC": "VAGINA",
    "TULOC": "VAGINA",
    "TULAT": "RIGHT",
    "TUMETHOD": "CT SCAN",
    "TUEVAL": "INVESTIGATOR",
    "TUACPTFL": "Y",
    "VISITNUM": 1,
    "VISIT": "SCREENING",
    "TUDTC": "2021-12-10",
    "TUDY": -7
  },
  {
    "STUDYID": "KN868",
    "DOMAIN": "TU",
    "USUBJID": "KN868-0001-0019",
    "TUSEQ": 1,
    "TULNKID": "T1",
    "TUTESTCD": "TUMIDENT",
    "TUTEST": "Tumor Identification",
    "TUORRES": "LUNG",
    "TUSTRESC": "LUNG",
    "TULOC": "LUNG",
    "TULAT": "BILATERAL",
    "TUMETHOD": "CT SCAN",
    "TUEVAL": "INVESTIGATOR",
    "TUACPTFL": "Y",
    "VISITNUM": 1,
    "VISIT": "SCREENING",
    "TUDTC": "2020-03-31",
    "TUDY": -7
  },
  {
    "STUDYID": "KN868",
    "DOMAIN": "TU",
    "USUBJID": "KN868-0001-0019",
    "TUSEQ": 2,
    "TULNKID": "T2",
    "TUTESTCD": "TUMIDENT",
    "TUTEST": "Tumor Identification",
    "TUORRES": "PELVIS",
    "TUSTRESC": "PELVIS",
    "TULOC": "PELVIS",
    "TULAT": "",
    "TUMETHOD": "CT SCAN",
    "TUEVAL": "INVESTIGATOR",
    "TUACPTFL": "Y",
    "VISITNUM": 1,
    "VISIT": "SCREENING",
    "TUDTC": "2020-04-01",
    "TUDY": -7
  },
  {
    "STUDYID": "KN868",
    "DOMAIN": "TU",
    "USUBJID": "KN868-0001-0019",
    "TUSEQ": 3,
    "TULNKID": "T3",
    "TUTESTCD": "TUMIDENT",
    "TUTEST": "Tumor Identification",
    "TUORRES": "VAGINA",
    "TUSTRESC": "VAGINA",
    "TULOC": "VAGINA",
    "TULAT": "",
    "TUMETHOD": "CT SCAN",
    "TUEVAL": "INVESTIGATOR",
    "TUACPTFL": "Y",
    "VISITNUM": 1,
    "VISIT": "SCREENING",
    "TUDTC": "2020-03-31",
    "TUDY": -7
  },
  {
    "STUDYID": "KN868",
    "DOMAIN": "TU",
    "USUBJID": "KN868-0001-0019",
    "TUSEQ": 4,
    "TULNKID": "NT1",
    "TUTESTCD": "TUMIDENT",
    "TUTEST": "Tumor Identification",
    "TUORRES": "LYMPH NODE - PARA-AORTIC",
    "TUSTRESC": "LYMPH NODE - PARA-AORTIC",
    "TULOC": "LYMPH NODE - PARA-AORTIC",
    "TULAT": "LEFT",
    "TUMETHOD": "CT SCAN",
    "TUEVAL": "INVESTIGATOR",
    "TUACPTFL": "Y",
    "VISITNUM": 1,
    "VISIT": "SCREENING",
    "TUDTC": "2020-04-01",
    "TUDY": -7
  },
  {
    "STUDYID": "KN868",
    "DOMAIN": "TU",
    "USUBJID": "KN868-0001-0019",
    "TUSEQ": 5,
    "TULNKID": "NT2",
    "TUTESTCD": "TUMIDENT",
    "TUTEST": "Tumor Identification",
    "TUORRES": "UTERUS",
    "TUSTRESC": "UTERUS",
    "TULOC": "UTERUS",
    "TULAT": "RIGHT",
    "TUMETHOD": "CT SCAN",
    "TUEVAL": "INVESTIGATOR",
    "TUACPTFL": "Y",
    "VISITNUM": 1,
    "VISIT": "SCREENING",
    "TUDTC": "2020-03-31",
    "TUDY": -7
  },
  {
    "STUDYID": "KN868",
    "DOMAIN": "TU",
    "USUBJID": "KN868-0001-0020",
    "TUSEQ": 1,
    "TULNKID": "T1",
    "TUTESTCD": "TUMIDENT",
    "TUTEST": "Tumor Identification",
    "TUORRES": "VAGINA",
    "TUSTRESC": "VAGINA",
    "TULOC": "VAGINA",
    "TULAT": "BILATERAL",
    "TUMETHOD": "CT SCAN",
    "TUEVAL": "INVESTIGATOR",
    "TUACPTFL": "Y",
    "VISITNUM": 1,
    "VISIT": "SCREENING",
    "TUDTC": "2021-06-02",
    "TUDY": -7
  },
  {
    "STUDYID": "KN868",
    "DOMAIN": "TU",
    "USUBJID": "KN868-0001-0020",
    "TUSEQ": 2,
    "TULNKID": "T2",
    "TUTESTCD": "TUMIDENT",
    "TUTEST": "Tumor Identification",
    "TUORRES": "PELVIS",
    "TUSTRESC": "PELVIS",
    "TULOC": "PELVIS",
    "TULAT": "",
    "TUMETHOD": "CT SCAN",
    "TUEVAL": "INVESTIGATOR",
    "TUACPTFL": "Y",
    "VISITNUM": 1,
    "VISIT": "SCREENING",
    "TUDTC": "2021-05-29",
    "TUDY": -7
  },
  {
    "STUDYID": "KN868",
    "DOMAIN": "TU",
    "USUBJID": "KN868-0001-0020",
    "TUSEQ": 3,
    "TULNKID": "NT1",
    "TUTESTCD": "TUMIDENT",
    "TUTEST": "Tumor Identification",
    "TUORRES": "UTERUS",
    "TUSTRESC": "UTERUS",
    "TULOC": "UTERUS",
    "TULAT": "",
    "TUMETHOD": "CT SCAN",
    "TUEVAL": "INVESTIGATOR",
    "TUACPTFL": "Y",
    "VISITNUM": 1,
    "VISIT": "SCREENING",
    "TUDTC": "2021-06-01",
    "TUDY": -7
  },
  {
    "STUDYID": "KN868",
    "DOMAIN": "TU",
    "USUBJID": "KN868-0001-0021",
    "TUSEQ": 1,
    "TULNKID": "T1",
    "TUTESTCD": "TUMIDENT",
    "TUTEST": "Tumor Identification",
    "TUORRES": "LYMPH NODE - PELVIC",
    "TUSTRESC": "LYMPH NODE - PELVIC",
    "TULOC": "LYMPH NODE - PELVIC",
    "TULAT": "LEFT",
    "TUMETHOD": "CT SCAN",
    "TUEVAL": "INVESTIGATOR",
    "TUACPTFL": "Y",
    "VISITNUM": 1,
    "VISIT": "SCREENING",
    "TUDTC": "2021-03-31",
    "TUDY": -7
  },
  {
    "STUDYID": "KN868",
    "DOMAIN": "TU",
    "USUBJID": "KN868-0001-0021",
    "TUSEQ": 2,
    "TULNKID": "T2",
    "TUTESTCD": "TUMIDENT",
    "TUTEST": "Tumor Identification",
    "TUORRES": "OMENTUM",
    "TUSTRESC": "OMENTUM",
    "TULOC": "OMENTUM",
    "TULAT": "BILATERAL",
    "TUMETHOD": "CT SCAN",
    "TUEVAL": "INVESTIGATOR",
    "TUACPTFL": "Y",
    "VISITNUM": 1,
    "VISIT": "SCREENING",
    "TUDTC": "2021-04-07",
    "TUDY": -7
  },
  {
    "STUDYID": "KN868",
    "DOMAIN": "TU",
    "USUBJID": "KN868-0001-0021",
    "TUSEQ": 3,
    "TULNKID": "T3",
    "TUTESTCD": "TUMIDENT",
    "TUTEST": "Tumor Identification",
    "TUORRES": "LYMPH NODE - PARA-AORTIC",
    "TUSTRESC": "LYMPH NODE - PARA-AORTIC",
    "TULOC": "LYMPH NODE - PARA-AORTIC",
    "TULAT": "RIGHT",
    "TUMETHOD": "CT SCAN",
    "TUEVAL": "INVESTIGATOR",
    "TUACPTFL": "Y",
    "VISITNUM": 1,
    "VISIT": "SCREENING",
    "TUDTC": "2021-04-06",
    "TUDY": -7
  },
  {
    "STUDYID": "KN868",
    "DOMAIN": "TU",
    "USUBJID": "KN868-0001-0022",
    "TUSEQ": 1,
    "TULNKID": "T1",
    "TUTESTCD": "TUMIDENT",
    "TUTEST": "Tumor Identification",
    "TUORRES": "UTERUS",
    "TUSTRESC": "UTERUS",
    "TULOC": "UTERUS",
    "TULAT": "LEFT",
    "TUMETHOD": "CT SCAN",
    "TUEVAL": "INVESTIGATOR",
    "TUACPTFL": "Y",
    "VISITNUM": 1,
    "VISIT": "SCREENING",
    "TUDTC": "2021-01-24",
    "TUDY": -7
  },
  {
    "STUDYID": "KN868",
    "DOMAIN": "TU",
    "USUBJID": "KN868-0001-0022",
    "TUSEQ": 2,
    "TULNKID": "T2",
    "TUTESTCD": "TUMIDENT",
    "TUTEST": "Tumor Identification",
    "TUORRES": "PELVIS",
    "TUSTRESC": "PELVIS",
    "TULOC": "PELVIS",
    "TULAT": "BILATERAL",
    "TUMETHOD": "CT SCAN",
    "TUEVAL": "INVESTIGATOR",
    "TUACPTFL": "Y",
    "VISITNUM": 1,
    "VISIT": "SCREENING",
    "TUDTC": "2021-01-21",
    "TUDY": -7
  },
  {
    "STUDYID": "KN868",
    "DOMAIN": "TU",
    "USUBJID": "KN868-0001-0022",
    "TUSEQ": 3,
    "TULNKID": "T3",
    "TUTESTCD": "TUMIDENT",
    "TUTEST": "Tumor Identification",
    "TUORRES": "OMENTUM",
    "TUSTRESC": "OMENTUM",
    "TULOC": "OMENTUM",
    "TULAT": "RIGHT",
    "TUMETHOD": "CT SCAN",
    "TUEVAL": "INVESTIGATOR",
    "TUACPTFL": "Y",
    "VISITNUM": 1,
    "VISIT": "SCREENING",
    "TUDTC": "2021-01-26",
    "TUDY": -7
  },
  {
    "STUDYID": "KN868",
    "DOMAIN": "TU",
    "USUBJID": "KN868-0001-0022",
    "TUSEQ": 4,
    "TULNKID": "T4",
    "TUTESTCD": "TUMIDENT",
    "TUTEST": "Tumor Identification",
    "TUORRES": "PERITONEUM",
    "TUSTRESC": "PERITONEUM",
    "TULOC": "PERITONEUM",
    "TULAT": "RIGHT",
    "TUMETHOD": "CT SCAN",
    "TUEVAL": "INVESTIGATOR",
    "TUACPTFL": "Y",
    "VISITNUM": 1,
    "VISIT": "SCREENING",
    "TUDTC": "2021-01-25",
    "TUDY": -7
  },
  {
    "STUDYID": "KN868",
    "DOMAIN": "TU",
    "USUBJID": "KN868-0001-0022",
    "TUSEQ": 5,
    "TULNKID": "T5",
    "TUTESTCD": "TUMIDENT",
    "TUTEST": "Tumor Identification",
    "TUORRES": "VAGINA",
    "TUSTRESC": "VAGINA",
    "TULOC": "VAGINA",
    "TULAT": "BILATERAL",
    "TUMETHOD": "CT SCAN",
    "TUEVAL": "INVESTIGATOR",
    "TUACPTFL": "Y",
    "VISITNUM": 1,
    "VISIT": "SCREENING",
    "TUDTC": "2021-01-21",
    "TUDY": -7
  },
  {
    "STUDYID": "KN868",
    "DOMAIN": "TU",
    "USUBJID": "KN868-0001-0022",
    "TUSEQ": 6,
    "TULNKID": "NT1",
    "TUTESTCD": "TUMIDENT",
    "TUTEST": "Tumor Identification",
    "TUORRES": "LYMPH NODE - PARA-AORTIC",
    "TUSTRESC": "LYMPH NODE - PARA-AORTIC",
    "TULOC": "LYMPH NODE - PARA-AORTIC",
    "TULAT": "",
    "TUMETHOD": "CT SCAN",
    "TUEVAL": "INVESTIGATOR",
    "TUACPTFL": "Y",
    "VISITNUM": 1,
    "VISIT": "SCREENING",
    "TUDTC": "2021-01-24",
    "TUDY": -7
  },
  {
    "STUDYID": "KN868",
    "DOMAIN": "TU",
    "USUBJID": "KN868-0001-0022",
    "TUSEQ": 7,
    "TULNKID": "NT2",
    "TUTESTCD": "TUMIDENT",
    "TUTEST": "Tumor Identification",
    "TUORRES": "LYMPH NODE - PELVIC",
    "TUSTRESC": "LYMPH NODE - PELVIC",
    "TULOC": "LYMPH NODE - PELVIC",
    "TULAT": "BILATERAL",
    "TUMETHOD": "CT SCAN",
    "TUEVAL": "INVESTIGATOR",
    "TUACPTFL": "Y",
    "VISITNUM": 1,
    "VISIT": "SCREENING",
    "TUDTC": "2021-01-24",
    "TUDY": -7
  },
  {
    "STUDYID": "KN868",
    "DOMAIN": "TU",
    "USUBJID": "KN868-0001-0022",
    "TUSEQ": 8,
    "TULNKID": "NT3",
    "TUTESTCD": "TUMIDENT",
    "TUTEST": "Tumor Identification",
    "TUORRES": "LIVER",
    "TUSTRESC": "LIVER",
    "TULOC": "LIVER",
    "TULAT": "LEFT",
    "TUMETHOD": "CT SCAN",
    "TUEVAL": "INVESTIGATOR",
    "TUACPTFL": "Y",
    "VISITNUM": 1,
    "VISIT": "SCREENING",
    "TUDTC": "2021-01-24",
    "TUDY": -7
  },
  {
    "STUDYID": "KN868",
    "DOMAIN": "TU",
    "USUBJID": "KN868-0001-0023",
    "TUSEQ": 1,
    "TULNKID": "T1",
    "TUTESTCD": "TUMIDENT",
    "TUTEST": "Tumor Identification",
    "TUORRES": "LYMPH NODE - PARA-AORTIC",
    "TUSTRESC": "LYMPH NODE - PARA-AORTIC",
    "TULOC": "LYMPH NODE - PARA-AORTIC",
    "TULAT": "LEFT",
    "TUMETHOD": "CT SCAN",
    "TUEVAL": "INVESTIGATOR",
    "TUACPTFL": "Y",
    "VISITNUM": 1,
    "VISIT": "SCREENING",
    "TUDTC": "2022-02-19",
    "TUDY": -7
  },
  {
    "STUDYID": "KN868",
    "DOMAIN": "TU",
    "USUBJID": "KN868-0001-0023",
    "TUSEQ": 2,
    "TULNKID": "T2",
    "TUTESTCD": "TUMIDENT",
    "TUTEST": "Tumor Identification",
    "TUORRES": "LIVER",
    "TUSTRESC": "LIVER",
    "TULOC": "LIVER",
    "TULAT": "RIGHT",
    "TUMETHOD": "CT SCAN",
    "TUEVAL": "INVESTIGATOR",
    "TUACPTFL": "Y",
    "VISITNUM": 1,
    "VISIT": "SCREENING",
    "TUDTC": "2022-02-12",
    "TUDY": -7
  },
  {
    "STUDYID": "KN868",
    "DOMAIN": "TU",
    "USUBJID": "KN868-0001-0023",
    "TUSEQ": 3,
    "TULNKID": "T3",
    "TUTESTCD": "TUMIDENT",
    "TUTEST": "Tumor Identification",
    "TUORRES": "LUNG",
    "TUSTRESC": "LUNG",
    "TULOC": "LUNG",
    "TULAT": "LEFT",
    "TUMETHOD": "CT SCAN",
    "TUEVAL": "INVESTIGATOR",
    "TUACPTFL": "Y",
    "VISITNUM": 1,
    "VISIT": "SCREENING",
    "TUDTC": "2022-02-15",
    "TUDY": -7
  },
  {
    "STUDYID": "KN868",
    "DOMAIN": "TU",
    "USUBJID": "KN868-0001-0023",
    "TUSEQ": 4,
    "TULNKID": "NT1",
    "TUTESTCD": "TUMIDENT",
    "TUTEST": "Tumor Identification",
    "TUORRES": "VAGINA",
    "TUSTRESC": "VAGINA",
    "TULOC": "VAGINA",
    "TULAT": "RIGHT",
    "TUMETHOD": "CT SCAN",
    "TUEVAL": "INVESTIGATOR",
    "TUACPTFL": "Y",
    "VISITNUM": 1,
    "VISIT": "SCREENING",
    "TUDTC": "2022-02-14",
    "TUDY": -7
  },
  {
    "STUDYID": "KN868",
    "DOMAIN": "TU",
    "USUBJID": "KN868-0001-0024",
    "TUSEQ": 1,
    "TULNKID": "T1",
    "TUTESTCD": "TUMIDENT",
    "TUTEST": "Tumor Identification",
    "TUORRES": "LUNG",
    "TUSTRESC": "LUNG",
    "TULOC": "LUNG",
    "TULAT": "BILATERAL",
    "TUMETHOD": "CT SCAN",
    "TUEVAL": "INVESTIGATOR",
    "TUACPTFL": "Y",
    "VISITNUM": 1,
    "VISIT": "SCREENING",
    "TUDTC": "2020-04-29",
    "TUDY": -7
  },
  {
    "STUDYID": "KN868",
    "DOMAIN": "TU",
    "USUBJID": "KN868-0001-0024",
    "TUSEQ": 2,
    "TULNKID": "T2",
    "TUTESTCD": "TUMIDENT",
    "TUTEST": "Tumor Identification",
    "TUORRES": "PERITONEUM",
    "TUSTRESC": "PERITONEUM",
    "TULOC": "PERITONEUM",
    "TULAT": "RIGHT",
    "TUMETHOD": "CT SCAN",
    "TUEVAL": "INVESTIGATOR",
    "TUACPTFL": "Y",
    "VISITNUM": 1,
    "VISIT": "SCREENING",
    "TUDTC": "2020-05-02",
    "TUDY": -7
  },
  {
    "STUDYID": "KN868",
    "DOMAIN": "TU",
    "USUBJID": "KN868-0001-0024",
    "TUSEQ": 3,
    "TULNKID": "NT1",
    "TUTESTCD": "TUMIDENT",
    "TUTEST": "Tumor Identification",
    "TUORRES": "UTERUS",
    "TUSTRESC": "UTERUS",
    "TULOC": "UTERUS",
    "TULAT": "BILATERAL",
    "TUMETHOD": "CT SCAN",
    "TUEVAL": "INVESTIGATOR",
    "TUACPTFL": "Y",
    "VISITNUM": 1,
    "VISIT": "SCREENING",
    "TUDTC": "2020-04-29",
    "TUDY": -7
  },
  {
    "STUDYID": "KN868",
    "DOMAIN": "TU",
    "USUBJID": "KN868-0001-0025",
    "TUSEQ": 1,
    "TULNKID": "T1",
    "TUTESTCD": "TUMIDENT",
    "TUTEST": "Tumor Identification",
    "TUORRES": "LIVER",
    "TUSTRESC": "LIVER",
    "TULOC": "LIVER",
    "TULAT": "LEFT",
    "TUMETHOD": "CT SCAN",
    "TUEVAL": "INVESTIGATOR",
    "TUACPTFL": "Y",
    "VISITNUM": 1,
    "VISIT": "SCREENING",
    "TUDTC": "2021-06-12",
    "TUDY": -7
  },
  {
    "STUDYID": "KN868",
    "DOMAIN": "TU",
    "USUBJID": "KN868-0002-0001",
    "TUSEQ": 1,
    "TULNKID": "T1",
    "TUTESTCD": "TUMIDENT",
    "TUTEST": "Tumor Identification",
    "TUORRES": "PERITONEUM",
    "TUSTRESC": "PERITONEUM",
    "TULOC": "PERITONEUM",
    "TULAT": "LEFT",
    "TUMETHOD": "CT SCAN",
    "TUEVAL": "INVESTIGATOR",
    "TUACPTFL": "Y",
    "VISITNUM": 1,
    "VISIT": "SCREENING",
    "TUDTC": "2021-03-28",
    "TUDY": -7
  },
  {
    "STUDYID": "KN868",
    "DOMAIN": "TU",
    "USUBJID": "KN868-0002-0001",
    "TUSEQ": 2,
    "TULNKID": "T2",
    "TUTESTCD": "TUMIDENT",
    "TUTEST": "Tumor Identification",
    "TUORRES": "LIVER",
    "TUSTRESC": "LIVER",
    "TULOC": "LIVER",
    "TULAT": "",
    "TUMETHOD": "CT SCAN",
    "TUEVAL": "INVESTIGATOR",
    "TUACPTFL": "Y",
    "VISITNUM": 1,
    "VISIT": "SCREENING",
    "TUDTC": "2021-03-26",
    "TUDY": -7
  },
  {
    "STUDYID": "KN868",
    "DOMAIN": "TU",
    "USUBJID": "KN868-0002-0001",
    "TUSEQ": 3,
    "TULNKID": "NT1",
    "TUTESTCD": "TUMIDENT",
    "TUTEST": "Tumor Identification",
    "TUORRES": "UTERUS",
    "TUSTRESC": "UTERUS",
    "TULOC": "UTERUS",
    "TULAT": "",
    "TUMETHOD": "CT SCAN",
    "TUEVAL": "INVESTIGATOR",
    "TUACPTFL": "Y",
    "VISITNUM": 1,
    "VISIT": "SCREENING",
    "TUDTC": "2021-03-27",
    "TUDY": -7
  },
  {
    "STUDYID": "KN868",
    "DOMAIN": "TU",
    "USUBJID": "KN868-0002-0001",
    "TUSEQ": 4,
    "TULNKID": "NT2",
    "TUTESTCD": "TUMIDENT",
    "TUTEST": "Tumor Identification",
    "TUORRES": "LYMPH NODE - PARA-AORTIC",
    "TUSTRESC": "LYMPH NODE - PARA-AORTIC",
    "TULOC": "LYMPH NODE - PARA-AORTIC",
    "TULAT": "RIGHT",
    "TUMETHOD": "CT SCAN",
    "TUEVAL": "INVESTIGATOR",
    "TUACPTFL": "Y",
    "VISITNUM": 1,
    "VISIT": "SCREENING",
    "TUDTC": "2021-03-22",
    "TUDY": -7
  },
  {
    "STUDYID": "KN868",
    "DOMAIN": "TU",
    "USUBJID": "KN868-0002-0001",
    "TUSEQ": 5,
    "TULNKID": "NT3",
    "TUTESTCD": "TUMIDENT",
    "TUTEST": "Tumor Identification",
    "TUORRES": "VAGINA",
    "TUSTRESC": "VAGINA",
    "TULOC": "VAGINA",
    "TULAT": "",
    "TUMETHOD": "CT SCAN",
    "TUEVAL": "INVESTIGATOR",
    "TUACPTFL": "Y",
    "VISITNUM": 1,
    "VISIT": "SCREENING",
    "TUDTC": "2021-03-28",
    "TUDY": -7
  },
  {
    "STUDYID": "KN868",
    "DOMAIN": "TU",
    "USUBJID": "KN868-0002-0002",
    "TUSEQ": 1,
    "TULNKID": "T1",
    "TUTESTCD": "TUMIDENT",
    "TUTEST": "Tumor Identification",
    "TUORRES": "LYMPH NODE - PARA-AORTIC",
    "TUSTRESC": "LYMPH NODE - PARA-AORTIC",
    "TULOC": "LYMPH NODE - PARA-AORTIC",
    "TULAT": "BILATERAL",
    "TUMETHOD": "CT SCAN",
    "TUEVAL": "INVESTIGATOR",
    "TUACPTFL": "Y",
    "VISITNUM": 1,
    "VISIT": "SCREENING",
    "TUDTC": "2022-01-05",
    "TUDY": -7
  },
  {
    "STUDYID": "KN868",
    "DOMAIN": "TU",
    "USUBJID": "KN868-0002-0002",
    "TUSEQ": 2,
    "TULNKID": "T2",
    "TUTESTCD": "TUMIDENT",
    "TUTEST": "Tumor Identification",
    "TUORRES": "LUNG",
    "TUSTRESC": "LUNG",
    "TULOC": "LUNG",
    "TULAT": "LEFT",
    "TUMETHOD": "CT SCAN",
    "TUEVAL": "INVESTIGATOR",
    "TUACPTFL": "Y",
    "VISITNUM": 1,
    "VISIT": "SCREENING",
    "TUDTC": "2022-01-06",
    "TUDY": -7
  },
  {
    "STUDYID": "KN868",
    "DOMAIN": "TU",
    "USUBJID": "KN868-0002-0002",
    "TUSEQ": 3,
    "TULNKID": "T3",
    "TUTESTCD": "TUMIDENT",
    "TUTEST": "Tumor Identification",
    "TUORRES": "PERITONEUM",
    "TUSTRESC": "PERITONEUM",
    "TULOC": "PERITONEUM",
    "TULAT": "",
    "TUMETHOD": "CT SCAN",
    "TUEVAL": "INVESTIGATOR",
    "TUACPTFL": "Y",
    "VISITNUM": 1,
    "VISIT": "SCREENING",
    "TUDTC": "2022-01-11",
    "TUDY": -7
  },
  {
    "STUDYID": "KN868",
    "DOMAIN": "TU",
    "USUBJID": "KN868-0002-0002",
    "TUSEQ": 4,
    "TULNKID": "T4",
    "TUTESTCD": "TUMIDENT",
    "TUTEST": "Tumor Identification",
    "TUORRES": "LIVER",
    "TUSTRESC": "LIVER",
    "TULOC": "LIVER",
    "TULAT": "RIGHT",
    "TUMETHOD": "CT SCAN",
    "TUEVAL": "INVESTIGATOR",
    "TUACPTFL": "Y",
    "VISITNUM": 1,
    "VISIT": "SCREENING",
    "TUDTC": "2022-01-05",
    "TUDY": -7
  },
  {
    "STUDYID": "KN868",
    "DOMAIN": "TU",
    "USUBJID": "KN868-0002-0002",
    "TUSEQ": 5,
    "TULNKID": "NT1",
    "TUTESTCD": "TUMIDENT",
    "TUTEST": "Tumor Identification",
    "TUORRES": "UTERUS",
    "TUSTRESC": "UTERUS",
    "TULOC": "UTERUS",
    "TULAT": "",
    "TUMETHOD": "CT SCAN",
    "TUEVAL": "INVESTIGATOR",
    "TUACPTFL": "Y",
    "VISITNUM": 1,
    "VISIT": "SCREENING",
    "TUDTC": "2022-01-10",
    "TUDY": -7
  },
  {
    "STUDYID": "KN868",
    "DOMAIN": "TU",
    "USUBJID": "KN868-0002-0003",
    "TUSEQ": 1,
    "TULNKID": "T1",
    "TUTESTCD": "TUMIDENT",
    "TUTEST": "Tumor Identification",
    "TUORRES": "LYMPH NODE - PELVIC",
    "TUSTRESC": "LYMPH NODE - PELVIC",
    "TULOC": "LYMPH NODE - PELVIC",
    "TULAT": "RIGHT",
    "TUMETHOD": "CT SCAN",
    "TUEVAL": "INVESTIGATOR",
    "TUACPTFL": "Y",
    "VISITNUM": 1,
    "VISIT": "SCREENING",
    "TUDTC": "2020-09-21",
    "TUDY": -7
  },
  {
    "STUDYID": "KN868",
    "DOMAIN": "TU",
    "USUBJID": "KN868-0002-0003",
    "TUSEQ": 2,
    "TULNKID": "T2",
    "TUTESTCD": "TUMIDENT",
    "TUTEST": "Tumor Identification",
    "TUORRES": "UTERUS",
    "TUSTRESC": "UTERUS",
    "TULOC": "UTERUS",
    "TULAT": "RIGHT",
    "TUMETHOD": "CT SCAN",
    "TUEVAL": "INVESTIGATOR",
    "TUACPTFL": "Y",
    "VISITNUM": 1,
    "VISIT": "SCREENING",
    "TUDTC": "2020-09-23",
    "TUDY": -7
  },
  {
    "STUDYID": "KN868",
    "DOMAIN": "TU",
    "USUBJID": "KN868-0002-0003",
    "TUSEQ": 3,
    "TULNKID": "T3",
    "TUTESTCD": "TUMIDENT",
    "TUTEST": "Tumor Identification",
    "TUORRES": "LIVER",
    "TUSTRESC": "LIVER",
    "TULOC": "LIVER",
    "TULAT": "RIGHT",
    "TUMETHOD": "CT SCAN",
    "TUEVAL": "INVESTIGATOR",
    "TUACPTFL": "Y",
    "VISITNUM": 1,
    "VISIT": "SCREENING",
    "TUDTC": "2020-09-24",
    "TUDY": -7
  },
  {
    "STUDYID": "KN868",
    "DOMAIN": "TU",
    "USUBJID": "KN868-0002-0004",
    "TUSEQ": 1,
    "TULNKID": "T1",
    "TUTESTCD": "TUMIDENT",
    "TUTEST": "Tumor Identification",
    "TUORRES": "LIVER",
    "TUSTRESC": "LIVER",
    "TULOC": "LIVER",
    "TULAT": "RIGHT",
    "TUMETHOD": "CT SCAN",
    "TUEVAL": "INVESTIGATOR",
    "TUACPTFL": "Y",
    "VISITNUM": 1,
    "VISIT": "SCREENING",
    "TUDTC": "2020-05-26",
    "TUDY": -7
  },
  {
    "STUDYID": "KN868",
    "DOMAIN": "TU",
    "USUBJID": "KN868-0002-0005",
    "TUSEQ": 1,
    "TULNKID": "T1",
    "TUTESTCD": "TUMIDENT",
    "TUTEST": "Tumor Identification",
    "TUORRES": "UTERUS",
    "TUSTRESC": "UTERUS",
    "TULOC": "UTERUS",
    "TULAT": "",
    "TUMETHOD": "CT SCAN",
    "TUEVAL": "INVESTIGATOR",
    "TUACPTFL": "Y",
    "VISITNUM": 1,
    "VISIT": "SCREENING",
    "TUDTC": "2021-07-16",
    "TUDY": -7
  },
  {
    "STUDYID": "KN868",
    "DOMAIN": "TU",
    "USUBJID": "KN868-0002-0005",
    "TUSEQ": 2,
    "TULNKID": "NT1",
    "TUTESTCD": "TUMIDENT",
    "TUTEST": "Tumor Identification",
    "TUORRES": "OMENTUM",
    "TUSTRESC": "OMENTUM",
    "TULOC": "OMENTUM",
    "TULAT": "RIGHT",
    "TUMETHOD": "CT SCAN",
    "TUEVAL": "INVESTIGATOR",
    "TUACPTFL": "Y",
    "VISITNUM": 1,
    "VISIT": "SCREENING",
    "TUDTC": "2021-07-17",
    "TUDY": -7
  },
  {
    "STUDYID": "KN868",
    "DOMAIN": "TU",
    "USUBJID": "KN868-0002-0005",
    "TUSEQ": 3,
    "TULNKID": "NT2",
    "TUTESTCD": "TUMIDENT",
    "TUTEST": "Tumor Identification",
    "TUORRES": "LYMPH NODE - PELVIC",
    "TUSTRESC": "LYMPH NODE - PELVIC",
    "TULOC": "LYMPH NODE - PELVIC",
    "TULAT": "",
    "TUMETHOD": "CT SCAN",
    "TUEVAL": "INVESTIGATOR",
    "TUACPTFL": "Y",
    "VISITNUM": 1,
    "VISIT": "SCREENING",
    "TUDTC": "2021-07-18",
    "TUDY": -7
  },
  {
    "STUDYID": "KN868",
    "DOMAIN": "TU",
    "USUBJID": "KN868-0002-0006",
    "TUSEQ": 1,
    "TULNKID": "T1",
    "TUTESTCD": "TUMIDENT",
    "TUTEST": "Tumor Identification",
    "TUORRES": "LYMPH NODE - PARA-AORTIC",
    "TUSTRESC": "LYMPH NODE - PARA-AORTIC",
    "TULOC": "LYMPH NODE - PARA-AORTIC",
    "TULAT": "",
    "TUMETHOD": "CT SCAN",
    "TUEVAL": "INVESTIGATOR",
    "TUACPTFL": "Y",
    "VISITNUM": 1,
    "VISIT": "SCREENING",
    "TUDTC": "2021-07-25",
    "TUDY": -7
  },
  {
    "STUDYID": "KN868",
    "DOMAIN": "TU",
    "USUBJID": "KN868-0002-0006",
    "TUSEQ": 2,
    "TULNKID": "T2",
    "TUTESTCD": "TUMIDENT",
    "TUTEST": "Tumor Identification",
    "TUORRES": "OMENTUM",
    "TUSTRESC": "OMENTUM",
    "TULOC": "OMENTUM",
    "TULAT": "",
    "TUMETHOD": "CT SCAN",
    "TUEVAL": "INVESTIGATOR",
    "TUACPTFL": "Y",
    "VISITNUM": 1,
    "VISIT": "SCREENING",
    "TUDTC": "2021-07-23",
    "TUDY": -7
  },
  {
    "STUDYID": "KN868",
    "DOMAIN": "TU",
    "USUBJID": "KN868-0002-0006",
    "TUSEQ": 3,
    "TULNKID": "T3",
    "TUTESTCD": "TUMIDENT",
    "TUTEST": "Tumor Identification",
    "TUORRES": "LYMPH NODE - PELVIC",
    "TUSTRESC": "LYMPH NODE - PELVIC",
    "TULOC": "LYMPH NODE - PELVIC",
    "TULAT": "RIGHT",
    "TUMETHOD": "CT SCAN",
    "TUEVAL": "INVESTIGATOR",
    "TUACPTFL": "Y",
    "VISITNUM": 1,
    "VISIT": "SCREENING",
    "TUDTC": "2021-07-25",
    "TUDY": -7
  },
  {
    "STUDYID": "KN868",
    "DOMAIN": "TU",
    "USUBJID": "KN868-0002-0006",
    "TUSEQ": 4,
    "TULNKID": "T4",
    "TUTESTCD": "TUMIDENT",
    "TUTEST": "Tumor Identification",
    "TUORRES": "UTERUS",
    "TUSTRESC": "UTERUS",
    "TULOC": "UTERUS",
    "TULAT": "RIGHT",
    "TUMETHOD": "CT SCAN",
    "TUEVAL": "INVESTIGATOR",
    "TUACPTFL": "Y",
    "VISITNUM": 1,
    "VISIT": "SCREENING",
    "TUDTC": "2021-07-26",
    "TUDY": -7
  },
  {
    "STUDYID": "KN868",
    "DOMAIN": "TU",
    "USUBJID": "KN868-0002-0007",
    "TUSEQ": 1,
    "TULNKID": "T1",
    "TUTESTCD": "TUMIDENT",
    "TUTEST": "Tumor Identification",
    "TUORRES": "LUNG",
    "TUSTRESC": "LUNG",
    "TULOC": "LUNG",
    "TULAT": "BILATERAL",
    "TUMETHOD": "CT SCAN",
    "TUEVAL": "INVESTIGATOR",
    "TUACPTFL": "Y",
    "VISITNUM": 1,
    "VISIT": "SCREENING",
    "TUDTC": "2021-01-23",
    "TUDY": -7
  },
  {
    "STUDYID": "KN868",
    "DOMAIN": "TU",
    "USUBJID": "KN868-0002-0007",
    "TUSEQ": 2,
    "TULNKID": "T2",
    "TUTESTCD": "TUMIDENT",
    "TUTEST": "Tumor Identification",
    "TUORRES": "PELVIS",
    "TUSTRESC": "PELVIS",
    "TULOC": "PELVIS",
    "TULAT": "",
    "TUMETHOD": "CT SCAN",
    "TUEVAL": "INVESTIGATOR",
    "TUACPTFL": "Y",
    "VISITNUM": 1,
    "VISIT": "SCREENING",
    "TUDTC": "2021-01-19",
    "TUDY": -7
  },
  {
    "STUDYID": "KN868",
    "DOMAIN": "TU",
    "USUBJID": "KN868-0002-0008",
    "TUSEQ": 1,
    "TULNKID": "T1",
    "TUTESTCD": "TUMIDENT",
    "TUTEST": "Tumor Identification",
    "TUORRES": "VAGINA",
    "TUSTRESC": "VAGINA",
    "TULOC": "VAGINA",
    "TULAT": "BILATERAL",
    "TUMETHOD": "CT SCAN",
    "TUEVAL": "INVESTIGATOR",
    "TUACPTFL": "Y",
    "VISITNUM": 1,
    "VISIT": "SCREENING",
    "TUDTC": "2022-01-17",
    "TUDY": -7
  },
  {
    "STUDYID": "KN868",
    "DOMAIN": "TU",
    "USUBJID": "KN868-0002-0008",
    "TUSEQ": 2,
    "TULNKID": "T2",
    "TUTESTCD": "TUMIDENT",
    "TUTEST": "Tumor Identification",
    "TUORRES": "OMENTUM",
    "TUSTRESC": "OMENTUM",
    "TULOC": "OMENTUM",
    "TULAT": "LEFT",
    "TUMETHOD": "CT SCAN",
    "TUEVAL": "INVESTIGATOR",
    "TUACPTFL": "Y",
    "VISITNUM": 1,
    "VISIT": "SCREENING",
    "TUDTC": "2022-01-20",
    "TUDY": -7
  },
  {
    "STUDYID": "KN868",
    "DOMAIN": "TU",
    "USUBJID": "KN868-0002-0008",
    "TUSEQ": 3,
    "TULNKID": "T3",
    "TUTESTCD": "TUMIDENT",
    "TUTEST": "Tumor Identification",
    "TUORRES": "UTERUS",
    "TUSTRESC": "UTERUS",
    "TULOC": "UTERUS",
    "TULAT": "BILATERAL",
    "TUMETHOD": "CT SCAN",
    "TUEVAL": "INVESTIGATOR",
    "TUACPTFL": "Y",
    "VISITNUM": 1,
    "VISIT": "SCREENING",
    "TUDTC": "2022-01-18",
    "TUDY": -7
  },
  {
    "STUDYID": "KN868",
    "DOMAIN": "TU",
    "USUBJID": "KN868-0002-0008",
    "TUSEQ": 4,
    "TULNKID": "NT1",
    "TUTESTCD": "TUMIDENT",
    "TUTEST": "Tumor Identification",
    "TUORRES": "PELVIS",
    "TUSTRESC": "PELVIS",
    "TULOC": "PELVIS",
    "TULAT": "BILATERAL",
    "TUMETHOD": "CT SCAN",
    "TUEVAL": "INVESTIGATOR",
    "TUACPTFL": "Y",
    "VISITNUM": 1,
    "VISIT": "SCREENING",
    "TUDTC": "2022-01-16",
    "TUDY": -7
  },
  {
    "STUDYID": "KN868",
    "DOMAIN": "TU",
    "USUBJID": "KN868-0002-0009",
    "TUSEQ": 1,
    "TULNKID": "T1",
    "TUTESTCD": "TUMIDENT",
    "TUTEST": "Tumor Identification",
    "TUORRES": "UTERUS",
    "TUSTRESC": "UTERUS",
    "TULOC": "UTERUS",
    "TULAT": "BILATERAL",
    "TUMETHOD": "CT SCAN",
    "TUEVAL": "INVESTIGATOR",
    "TUACPTFL": "Y",
    "VISITNUM": 1,
    "VISIT": "SCREENING",
    "TUDTC": "2021-12-08",
    "TUDY": -7
  },
  {
    "STUDYID": "KN868",
    "DOMAIN": "TU",
    "USUBJID": "KN868-0002-0009",
    "TUSEQ": 2,
    "TULNKID": "T2",
    "TUTESTCD": "TUMIDENT",
    "TUTEST": "Tumor Identification",
    "TUORRES": "LYMPH NODE - PELVIC",
    "TUSTRESC": "LYMPH NODE - PELVIC",
    "TULOC": "LYMPH NODE - PELVIC",
    "TULAT": "RIGHT",
    "TUMETHOD": "CT SCAN",
    "TUEVAL": "INVESTIGATOR",
    "TUACPTFL": "Y",
    "VISITNUM": 1,
    "VISIT": "SCREENING",
    "TUDTC": "2021-12-14",
    "TUDY": -7
  },
  {
    "STUDYID": "KN868",
    "DOMAIN": "TU",
    "USUBJID": "KN868-0002-0009",
    "TUSEQ": 3,
    "TULNKID": "T3",
    "TUTESTCD": "TUMIDENT",
    "TUTEST": "Tumor Identification",
    "TUORRES": "LIVER",
    "TUSTRESC": "LIVER",
    "TULOC": "LIVER",
    "TULAT": "LEFT",
    "TUMETHOD": "CT SCAN",
    "TUEVAL": "INVESTIGATOR",
    "TUACPTFL": "Y",
    "VISITNUM": 1,
    "VISIT": "SCREENING",
    "TUDTC": "2021-12-14",
    "TUDY": -7
  },
  {
    "STUDYID": "KN868",
    "DOMAIN": "TU",
    "USUBJID": "KN868-0002-0009",
    "TUSEQ": 4,
    "TULNKID": "NT1",
    "TUTESTCD": "TUMIDENT",
    "TUTEST": "Tumor Identification",
    "TUORRES": "OMENTUM",
    "TUSTRESC": "OMENTUM",
    "TULOC": "OMENTUM",
    "TULAT": "RIGHT",
    "TUMETHOD": "CT SCAN",
    "TUEVAL": "INVESTIGATOR",
    "TUACPTFL": "Y",
    "VISITNUM": 1,
    "VISIT": "SCREENING",
    "TUDTC": "2021-12-09",
    "TUDY": -7
  },
  {
    "STUDYID": "KN868",
    "DOMAIN": "TU",
    "USUBJID": "KN868-0002-0009",
    "TUSEQ": 5,
    "TULNKID": "NT2",
    "TUTESTCD": "TUMIDENT",
    "TUTEST": "Tumor Identification",
    "TUORRES": "LYMPH NODE - PARA-AORTIC",
    "TUSTRESC": "LYMPH NODE - PARA-AORTIC",
    "TULOC": "LYMPH NODE - PARA-AORTIC",
    "TULAT": "",
    "TUMETHOD": "CT SCAN",
    "TUEVAL": "INVESTIGATOR",
    "TUACPTFL": "Y",
    "VISITNUM": 1,
    "VISIT": "SCREENING",
    "TUDTC": "2021-12-08",
    "TUDY": -7
  },
  {
    "STUDYID": "KN868",
    "DOMAIN": "TU",
    "USUBJID": "KN868-0002-0010",
    "TUSEQ": 1,
    "TULNKID": "T1",
    "TUTESTCD": "TUMIDENT",
    "TUTEST": "Tumor Identification",
    "TUORRES": "LYMPH NODE - PELVIC",
    "TUSTRESC": "LYMPH NODE - PELVIC",
    "TULOC": "LYMPH NODE - PELVIC",
    "TULAT": "RIGHT",
    "TUMETHOD": "CT SCAN",
    "TUEVAL": "INVESTIGATOR",
    "TUACPTFL": "Y",
    "VISITNUM": 1,
    "VISIT": "SCREENING",
    "TUDTC": "2020-04-22",
    "TUDY": -7
  },
  {
    "STUDYID": "KN868",
    "DOMAIN": "TU",
    "USUBJID": "KN868-0002-0010",
    "TUSEQ": 2,
    "TULNKID": "T2",
    "TUTESTCD": "TUMIDENT",
    "TUTEST": "Tumor Identification",
    "TUORRES": "OMENTUM",
    "TUSTRESC": "OMENTUM",
    "TULOC": "OMENTUM",
    "TULAT": "",
    "TUMETHOD": "CT SCAN",
    "TUEVAL": "INVESTIGATOR",
    "TUACPTFL": "Y",
    "VISITNUM": 1,
    "VISIT": "SCREENING",
    "TUDTC": "2020-04-22",
    "TUDY": -7
  },
  {
    "STUDYID": "KN868",
    "DOMAIN": "TU",
    "USUBJID": "KN868-0002-0010",
    "TUSEQ": 3,
    "TULNKID": "T3",
    "TUTESTCD": "TUMIDENT",
    "TUTEST": "Tumor Identification",
    "TUORRES": "LIVER",
    "TUSTRESC": "LIVER",
    "TULOC": "LIVER",
    "TULAT": "LEFT",
    "TUMETHOD": "CT SCAN",
    "TUEVAL": "INVESTIGATOR",
    "TUACPTFL": "Y",
    "VISITNUM": 1,
    "VISIT": "SCREENING",
    "TUDTC": "2020-04-25",
    "TUDY": -7
  },
  {
    "STUDYID": "KN868",
    "DOMAIN": "TU",
    "USUBJID": "KN868-0002-0010",
    "TUSEQ": 4,
    "TULNKID": "T4",
    "TUTESTCD": "TUMIDENT",
    "TUTEST": "Tumor Identification",
    "TUORRES": "LYMPH NODE - PARA-AORTIC",
    "TUSTRESC": "LYMPH NODE - PARA-AORTIC",
    "TULOC": "LYMPH NODE - PARA-AORTIC",
    "TULAT": "RIGHT",
    "TUMETHOD": "CT SCAN",
    "TUEVAL": "INVESTIGATOR",
    "TUACPTFL": "Y",
    "VISITNUM": 1,
    "VISIT": "SCREENING",
    "TUDTC": "2020-04-20",
    "TUDY": -7
  },
  {
    "STUDYID": "KN868",
    "DOMAIN": "TU",
    "USUBJID": "KN868-0002-0010",
    "TUSEQ": 5,
    "TULNKID": "NT1",
    "TUTESTCD": "TUMIDENT",
    "TUTEST": "Tumor Identification",
    "TUORRES": "LUNG",
    "TUSTRESC": "LUNG",
    "TULOC": "LUNG",
    "TULAT": "LEFT",
    "TUMETHOD": "CT SCAN",
    "TUEVAL": "INVESTIGATOR",
    "TUACPTFL": "Y",
    "VISITNUM": 1,
    "VISIT": "SCREENING",
    "TUDTC": "2020-04-22",
    "TUDY": -7
  },
  {
    "STUDYID": "KN868",
    "DOMAIN": "TU",
    "USUBJID": "KN868-0002-0011",
    "TUSEQ": 1,
    "TULNKID": "T1",
    "TUTESTCD": "TUMIDENT",
    "TUTEST": "Tumor Identification",
    "TUORRES": "OMENTUM",
    "TUSTRESC": "OMENTUM",
    "TULOC": "OMENTUM",
    "TULAT": "BILATERAL",
    "TUMETHOD": "CT SCAN",
    "TUEVAL": "INVESTIGATOR",
    "TUACPTFL": "Y",
    "VISITNUM": 1,
    "VISIT": "SCREENING",
    "TUDTC": "2020-03-24",
    "TUDY": -7
  },
  {
    "STUDYID": "KN868",
    "DOMAIN": "TU",
    "USUBJID": "KN868-0002-0011",
    "TUSEQ": 2,
    "TULNKID": "T2",
    "TUTESTCD": "TUMIDENT",
    "TUTEST": "Tumor Identification",
    "TUORRES": "VAGINA",
    "TUSTRESC": "VAGINA",
    "TULOC": "VAGINA",
    "TULAT": "RIGHT",
    "TUMETHOD": "CT SCAN",
    "TUEVAL": "INVESTIGATOR",
    "TUACPTFL": "Y",
    "VISITNUM": 1,
    "VISIT": "SCREENING",
    "TUDTC": "2020-03-25",
    "TUDY": -7
  },
  {
    "STUDYID": "KN868",
    "DOMAIN": "TU",
    "USUBJID": "KN868-0002-0011",
    "TUSEQ": 3,
    "TULNKID": "T3",
    "TUTESTCD": "TUMIDENT",
    "TUTEST": "Tumor Identification",
    "TUORRES": "UTERUS",
    "TUSTRESC": "UTERUS",
    "TULOC": "UTERUS",
    "TULAT": "BILATERAL",
    "TUMETHOD": "CT SCAN",
    "TUEVAL": "INVESTIGATOR",
    "TUACPTFL": "Y",
    "VISITNUM": 1,
    "VISIT": "SCREENING",
    "TUDTC": "2020-03-30",
    "TUDY": -7
  },
  {
    "STUDYID": "KN868",
    "DOMAIN": "TU",
    "USUBJID": "KN868-0002-0011",
    "TUSEQ": 4,
    "TULNKID": "T4",
    "TUTESTCD": "TUMIDENT",
    "TUTEST": "Tumor Identification",
    "TUORRES": "LYMPH NODE - PELVIC",
    "TUSTRESC": "LYMPH NODE - PELVIC",
    "TULOC": "LYMPH NODE - PELVIC",
    "TULAT": "RIGHT",
    "TUMETHOD": "CT SCAN",
    "TUEVAL": "INVESTIGATOR",
    "TUACPTFL": "Y",
    "VISITNUM": 1,
    "VISIT": "SCREENING",
    "TUDTC": "2020-03-30",
    "TUDY": -7
  },
  {
    "STUDYID": "KN868",
    "DOMAIN": "TU",
    "USUBJID": "KN868-0002-0011",
    "TUSEQ": 5,
    "TULNKID": "T5",
    "TUTESTCD": "TUMIDENT",
    "TUTEST": "Tumor Identification",
    "TUORRES": "LIVER",
    "TUSTRESC": "LIVER",
    "TULOC": "LIVER",
    "TULAT": "BILATERAL",
    "TUMETHOD": "CT SCAN",
    "TUEVAL": "INVESTIGATOR",
    "TUACPTFL": "Y",
    "VISITNUM": 1,
    "VISIT": "SCREENING",
    "TUDTC": "2020-03-26",
    "TUDY": -7
  },
  {
    "STUDYID": "KN868",
    "DOMAIN": "TU",
    "USUBJID": "KN868-0002-0012",
    "TUSEQ": 1,
    "TULNKID": "T1",
    "TUTESTCD": "TUMIDENT",
    "TUTEST": "Tumor Identification",
    "TUORRES": "PERITONEUM",
    "TUSTRESC": "PERITONEUM",
    "TULOC": "PERITONEUM",
    "TULAT": "LEFT",
    "TUMETHOD": "CT SCAN",
    "TUEVAL": "INVESTIGATOR",
    "TUACPTFL": "Y",
    "VISITNUM": 1,
    "VISIT": "SCREENING",
    "TUDTC": "2020-05-08",
    "TUDY": -7
  },
  {
    "STUDYID": "KN868",
    "DOMAIN": "TU",
    "USUBJID": "KN868-0002-0012",
    "TUSEQ": 2,
    "TULNKID": "T2",
    "TUTESTCD": "TUMIDENT",
    "TUTEST": "Tumor Identification",
    "TUORRES": "PELVIS",
    "TUSTRESC": "PELVIS",
    "TULOC": "PELVIS",
    "TULAT": "BILATERAL",
    "TUMETHOD": "CT SCAN",
    "TUEVAL": "INVESTIGATOR",
    "TUACPTFL": "Y",
    "VISITNUM": 1,
    "VISIT": "SCREENING",
    "TUDTC": "2020-05-04",
    "TUDY": -7
  },
  {
    "STUDYID": "KN868",
    "DOMAIN": "TU",
    "USUBJID": "KN868-0002-0012",
    "TUSEQ": 3,
    "TULNKID": "T3",
    "TUTESTCD": "TUMIDENT",
    "TUTEST": "Tumor Identification",
    "TUORRES": "LYMPH NODE - PARA-AORTIC",
    "TUSTRESC": "LYMPH NODE - PARA-AORTIC",
    "TULOC": "LYMPH NODE - PARA-AORTIC",
    "TULAT": "LEFT",
    "TUMETHOD": "CT SCAN",
    "TUEVAL": "INVESTIGATOR",
    "TUACPTFL": "Y",
    "VISITNUM": 1,
    "VISIT": "SCREENING",
    "TUDTC": "2020-05-05",
    "TUDY": -7
  },
  {
    "STUDYID": "KN868",
    "DOMAIN": "TU",
    "USUBJID": "KN868-0002-0012",
    "TUSEQ": 4,
    "TULNKID": "T4",
    "TUTESTCD": "TUMIDENT",
    "TUTEST": "Tumor Identification",
    "TUORRES": "LUNG",
    "TUSTRESC": "LUNG",
    "TULOC": "LUNG",
    "TULAT": "RIGHT",
    "TUMETHOD": "CT SCAN",
    "TUEVAL": "INVESTIGATOR",
    "TUACPTFL": "Y",
    "VISITNUM": 1,
    "VISIT": "SCREENING",
    "TUDTC": "2020-05-09",
    "TUDY": -7
  },
  {
    "STUDYID": "KN868",
    "DOMAIN": "TU",
    "USUBJID": "KN868-0002-0012",
    "TUSEQ": 5,
    "TULNKID": "NT1",
    "TUTESTCD": "TUMIDENT",
    "TUTEST": "Tumor Identification",
    "TUORRES": "VAGINA",
    "TUSTRESC": "VAGINA",
    "TULOC": "VAGINA",
    "TULAT": "RIGHT",
    "TUMETHOD": "CT SCAN",
    "TUEVAL": "INVESTIGATOR",
    "TUACPTFL": "Y",
    "VISITNUM": 1,
    "VISIT": "SCREENING",
    "TUDTC": "2020-05-08",
    "TUDY": -7
  },
  {
    "STUDYID": "KN868",
    "DOMAIN": "TU",
    "USUBJID": "KN868-0002-0013",
    "TUSEQ": 1,
    "TULNKID": "T1",
    "TUTESTCD": "TUMIDENT",
    "TUTEST": "Tumor Identification",
    "TUORRES": "LYMPH NODE - PELVIC",
    "TUSTRESC": "LYMPH NODE - PELVIC",
    "TULOC": "LYMPH NODE - PELVIC",
    "TULAT": "",
    "TUMETHOD": "CT SCAN",
    "TUEVAL": "INVESTIGATOR",
    "TUACPTFL": "Y",
    "VISITNUM": 1,
    "VISIT": "SCREENING",
    "TUDTC": "2021-08-07",
    "TUDY": -7
  },
  {
    "STUDYID": "KN868",
    "DOMAIN": "TU",
    "USUBJID": "KN868-0002-0013",
    "TUSEQ": 2,
    "TULNKID": "T2",
    "TUTESTCD": "TUMIDENT",
    "TUTEST": "Tumor Identification",
    "TUORRES": "LYMPH NODE - PARA-AORTIC",
    "TUSTRESC": "LYMPH NODE - PARA-AORTIC",
    "TULOC": "LYMPH NODE - PARA-AORTIC",
    "TULAT": "RIGHT",
    "TUMETHOD": "CT SCAN",
    "TUEVAL": "INVESTIGATOR",
    "TUACPTFL": "Y",
    "VISITNUM": 1,
    "VISIT": "SCREENING",
    "TUDTC": "2021-08-08",
    "TUDY": -7
  },
  {
    "STUDYID": "KN868",
    "DOMAIN": "TU",
    "USUBJID": "KN868-0002-0013",
    "TUSEQ": 3,
    "TULNKID": "T3",
    "TUTESTCD": "TUMIDENT",
    "TUTEST": "Tumor Identification",
    "TUORRES": "VAGINA",
    "TUSTRESC": "VAGINA",
    "TULOC": "VAGINA",
    "TULAT": "",
    "TUMETHOD": "CT SCAN",
    "TUEVAL": "INVESTIGATOR",
    "TUACPTFL": "Y",
    "VISITNUM": 1,
    "VISIT": "SCREENING",
    "TUDTC": "2021-08-12",
    "TUDY": -7
  },
  {
    "STUDYID": "KN868",
    "DOMAIN": "TU",
    "USUBJID": "KN868-0002-0013",
    "TUSEQ": 4,
    "TULNKID": "T4",
    "TUTESTCD": "TUMIDENT",
    "TUTEST": "Tumor Identification",
    "TUORRES": "OMENTUM",
    "TUSTRESC": "OMENTUM",
    "TULOC": "OMENTUM",
    "TULAT": "RIGHT",
    "TUMETHOD": "CT SCAN",
    "TUEVAL": "INVESTIGATOR",
    "TUACPTFL": "Y",
    "VISITNUM": 1,
    "VISIT": "SCREENING",
    "TUDTC": "2021-08-08",
    "TUDY": -7
  },
  {
    "STUDYID": "KN868",
    "DOMAIN": "TU",
    "USUBJID": "KN868-0002-0013",
    "TUSEQ": 5,
    "TULNKID": "T5",
    "TUTESTCD": "TUMIDENT",
    "TUTEST": "Tumor Identification",
    "TUORRES": "UTERUS",
    "TUSTRESC": "UTERUS",
    "TULOC": "UTERUS",
    "TULAT": "RIGHT",
    "TUMETHOD": "CT SCAN",
    "TUEVAL": "INVESTIGATOR",
    "TUACPTFL": "Y",
    "VISITNUM": 1,
    "VISIT": "SCREENING",
    "TUDTC": "2021-08-11",
    "TUDY": -7
  },
  {
    "STUDYID": "KN868",
    "DOMAIN": "TU",
    "USUBJID": "KN868-0002-0013",
    "TUSEQ": 6,
    "TULNKID": "NT1",
    "TUTESTCD": "TUMIDENT",
    "TUTEST": "Tumor Identification",
    "TUORRES": "LIVER",
    "TUSTRESC": "LIVER",
    "TULOC": "LIVER",
    "TULAT": "LEFT",
    "TUMETHOD": "CT SCAN",
    "TUEVAL": "INVESTIGATOR",
    "TUACPTFL": "Y",
    "VISITNUM": 1,
    "VISIT": "SCREENING",
    "TUDTC": "2021-08-12",
    "TUDY": -7
  },
  {
    "STUDYID": "KN868",
    "DOMAIN": "TU",
    "USUBJID": "KN868-0002-0013",
    "TUSEQ": 7,
    "TULNKID": "NT2",
    "TUTESTCD": "TUMIDENT",
    "TUTEST": "Tumor Identification",
    "TUORRES": "PERITONEUM",
    "TUSTRESC": "PERITONEUM",
    "TULOC": "PERITONEUM",
    "TULAT": "BILATERAL",
    "TUMETHOD": "CT SCAN",
    "TUEVAL": "INVESTIGATOR",
    "TUACPTFL": "Y",
    "VISITNUM": 1,
    "VISIT": "SCREENING",
    "TUDTC": "2021-08-08",
    "TUDY": -7
  },
  {
    "STUDYID": "KN868",
    "DOMAIN": "TU",
    "USUBJID": "KN868-0002-0014",
    "TUSEQ": 1,
    "TULNKID": "T1",
    "TUTESTCD": "TUMIDENT",
    "TUTEST": "Tumor Identification",
    "TUORRES": "PERITONEUM",
    "TUSTRESC": "PERITONEUM",
    "TULOC": "PERITONEUM",
    "TULAT": "",
    "TUMETHOD": "CT SCAN",
    "TUEVAL": "INVESTIGATOR",
    "TUACPTFL": "Y",
    "VISITNUM": 1,
    "VISIT": "SCREENING",
    "TUDTC": "2021-04-13",
    "TUDY": -7
  },
  {
    "STUDYID": "KN868",
    "DOMAIN": "TU",
    "USUBJID": "KN868-0002-0015",
    "TUSEQ": 1,
    "TULNKID": "T1",
    "TUTESTCD": "TUMIDENT",
    "TUTEST": "Tumor Identification",
    "TUORRES": "UTERUS",
    "TUSTRESC": "UTERUS",
    "TULOC": "UTERUS",
    "TULAT": "LEFT",
    "TUMETHOD": "CT SCAN",
    "TUEVAL": "INVESTIGATOR",
    "TUACPTFL": "Y",
    "VISITNUM": 1,
    "VISIT": "SCREENING",
    "TUDTC": "2021-02-08",
    "TUDY": -7
  },
  {
    "STUDYID": "KN868",
    "DOMAIN": "TU",
    "USUBJID": "KN868-0002-0015",
    "TUSEQ": 2,
    "TULNKID": "T2",
    "TUTESTCD": "TUMIDENT",
    "TUTEST": "Tumor Identification",
    "TUORRES": "LIVER",
    "TUSTRESC": "LIVER",
    "TULOC": "LIVER",
    "TULAT": "RIGHT",
    "TUMETHOD": "CT SCAN",
    "TUEVAL": "INVESTIGATOR",
    "TUACPTFL": "Y",
    "VISITNUM": 1,
    "VISIT": "SCREENING",
    "TUDTC": "2021-02-08",
    "TUDY": -7
  },
  {
    "STUDYID": "KN868",
    "DOMAIN": "TU",
    "USUBJID": "KN868-0002-0015",
    "TUSEQ": 3,
    "TULNKID": "NT1",
    "TUTESTCD": "TUMIDENT",
    "TUTEST": "Tumor Identification",
    "TUORRES": "LYMPH NODE - PELVIC",
    "TUSTRESC": "LYMPH NODE - PELVIC",
    "TULOC": "LYMPH NODE - PELVIC",
    "TULAT": "",
    "TUMETHOD": "CT SCAN",
    "TUEVAL": "INVESTIGATOR",
    "TUACPTFL": "Y",
    "VISITNUM": 1,
    "VISIT": "SCREENING",
    "TUDTC": "2021-02-02",
    "TUDY": -7
  },
  {
    "STUDYID": "KN868",
    "DOMAIN": "TU",
    "USUBJID": "KN868-0002-0015",
    "TUSEQ": 4,
    "TULNKID": "NT2",
    "TUTESTCD": "TUMIDENT",
    "TUTEST": "Tumor Identification",
    "TUORRES": "LUNG",
    "TUSTRESC": "LUNG",
    "TULOC": "LUNG",
    "TULAT": "",
    "TUMETHOD": "CT SCAN",
    "TUEVAL": "INVESTIGATOR",
    "TUACPTFL": "Y",
    "VISITNUM": 1,
    "VISIT": "SCREENING",
    "TUDTC": "2021-02-02",
    "TUDY": -7
  },
  {
    "STUDYID": "KN868",
    "DOMAIN": "TU",
    "USUBJID": "KN868-0002-0016",
    "TUSEQ": 1,
    "TULNKID": "T1",
    "TUTESTCD": "TUMIDENT",
    "TUTEST": "Tumor Identification",
    "TUORRES": "PERITONEUM",
    "TUSTRESC": "PERITONEUM",
    "TULOC": "PERITONEUM",
    "TULAT": "RIGHT",
    "TUMETHOD": "CT SCAN",
    "TUEVAL": "INVESTIGATOR",
    "TUACPTFL": "Y",
    "VISITNUM": 1,
    "VISIT": "SCREENING",
    "TUDTC": "2020-08-31",
    "TUDY": -7
  },
  {
    "STUDYID": "KN868",
    "DOMAIN": "TU",
    "USUBJID": "KN868-0002-0016",
    "TUSEQ": 2,
    "TULNKID": "T2",
    "TUTESTCD": "TUMIDENT",
    "TUTEST": "Tumor Identification",
    "TUORRES": "PELVIS",
    "TUSTRESC": "PELVIS",
    "TULOC": "PELVIS",
    "TULAT": "RIGHT",
    "TUMETHOD": "CT SCAN",
    "TUEVAL": "INVESTIGATOR",
    "TUACPTFL": "Y",
    "VISITNUM": 1,
    "VISIT": "SCREENING",
    "TUDTC": "2020-08-28",
    "TUDY": -7
  },
  {
    "STUDYID": "KN868",
    "DOMAIN": "TU",
    "USUBJID": "KN868-0002-0016",
    "TUSEQ": 3,
    "TULNKID": "T3",
    "TUTESTCD": "TUMIDENT",
    "TUTEST": "Tumor Identification",
    "TUORRES": "OMENTUM",
    "TUSTRESC": "OMENTUM",
    "TULOC": "OMENTUM",
    "TULAT": "BILATERAL",
    "TUMETHOD": "CT SCAN",
    "TUEVAL": "INVESTIGATOR",
    "TUACPTFL": "Y",
    "VISITNUM": 1,
    "VISIT": "SCREENING",
    "TUDTC": "2020-08-27",
    "TUDY": -7
  },
  {
    "STUDYID": "KN868",
    "DOMAIN": "TU",
    "USUBJID": "KN868-0002-0016",
    "TUSEQ": 4,
    "TULNKID": "NT1",
    "TUTESTCD": "TUMIDENT",
    "TUTEST": "Tumor Identification",
    "TUORRES": "LYMPH NODE - PARA-AORTIC",
    "TUSTRESC": "LYMPH NODE - PARA-AORTIC",
    "TULOC": "LYMPH NODE - PARA-AORTIC",
    "TULAT": "",
    "TUMETHOD": "CT SCAN",
    "TUEVAL": "INVESTIGATOR",
    "TUACPTFL": "Y",
    "VISITNUM": 1,
    "VISIT": "SCREENING",
    "TUDTC": "2020-09-01",
    "TUDY": -7
  },
  {
    "STUDYID": "KN868",
    "DOMAIN": "TU",
    "USUBJID": "KN868-0002-0016",
    "TUSEQ": 5,
    "TULNKID": "NT2",
    "TUTESTCD": "TUMIDENT",
    "TUTEST": "Tumor Identification",
    "TUORRES": "UTERUS",
    "TUSTRESC": "UTERUS",
    "TULOC": "UTERUS",
    "TULAT": "LEFT",
    "TUMETHOD": "CT SCAN",
    "TUEVAL": "INVESTIGATOR",
    "TUACPTFL": "Y",
    "VISITNUM": 1,
    "VISIT": "SCREENING",
    "TUDTC": "2020-08-31",
    "TUDY": -7
  },
  {
    "STUDYID": "KN868",
    "DOMAIN": "TU",
    "USUBJID": "KN868-0002-0017",
    "TUSEQ": 1,
    "TULNKID": "T1",
    "TUTESTCD": "TUMIDENT",
    "TUTEST": "Tumor Identification",
    "TUORRES": "LUNG",
    "TUSTRESC": "LUNG",
    "TULOC": "LUNG",
    "TULAT": "RIGHT",
    "TUMETHOD": "CT SCAN",
    "TUEVAL": "INVESTIGATOR",
    "TUACPTFL": "Y",
    "VISITNUM": 1,
    "VISIT": "SCREENING",
    "TUDTC": "2020-04-02",
    "TUDY": -7
  },
  {
    "STUDYID": "KN868",
    "DOMAIN": "TU",
    "USUBJID": "KN868-0002-0017",
    "TUSEQ": 2,
    "TULNKID": "T2",
    "TUTESTCD": "TUMIDENT",
    "TUTEST": "Tumor Identification",
    "TUORRES": "VAGINA",
    "TUSTRESC": "VAGINA",
    "TULOC": "VAGINA",
    "TULAT": "",
    "TUMETHOD": "CT SCAN",
    "TUEVAL": "INVESTIGATOR",
    "TUACPTFL": "Y",
    "VISITNUM": 1,
    "VISIT": "SCREENING",
    "TUDTC": "2020-04-01",
    "TUDY": -7
  },
  {
    "STUDYID": "KN868",
    "DOMAIN": "TU",
    "USUBJID": "KN868-0002-0017",
    "TUSEQ": 3,
    "TULNKID": "T3",
    "TUTESTCD": "TUMIDENT",
    "TUTEST": "Tumor Identification",
    "TUORRES": "LYMPH NODE - PARA-AORTIC",
    "TUSTRESC": "LYMPH NODE - PARA-AORTIC",
    "TULOC": "LYMPH NODE - PARA-AORTIC",
    "TULAT": "RIGHT",
    "TUMETHOD": "CT SCAN",
    "TUEVAL": "INVESTIGATOR",
    "TUACPTFL": "Y",
    "VISITNUM": 1,
    "VISIT": "SCREENING",
    "TUDTC": "2020-04-02",
    "TUDY": -7
  },
  {
    "STUDYID": "KN868",
    "DOMAIN": "TU",
    "USUBJID": "KN868-0002-0017",
    "TUSEQ": 4,
    "TULNKID": "T4",
    "TUTESTCD": "TUMIDENT",
    "TUTEST": "Tumor Identification",
    "TUORRES": "UTERUS",
    "TUSTRESC": "UTERUS",
    "TULOC": "UTERUS",
    "TULAT": "",
    "TUMETHOD": "CT SCAN",
    "TUEVAL": "INVESTIGATOR",
    "TUACPTFL": "Y",
    "VISITNUM": 1,
    "VISIT": "SCREENING",
    "TUDTC": "2020-04-02",
    "TUDY": -7
  },
  {
    "STUDYID": "KN868",
    "DOMAIN": "TU",
    "USUBJID": "KN868-0002-0017",
    "TUSEQ": 5,
    "TULNKID": "NT1",
    "TUTESTCD": "TUMIDENT",
    "TUTEST": "Tumor Identification",
    "TUORRES": "PERITONEUM",
    "TUSTRESC": "PERITONEUM",
    "TULOC": "PERITONEUM",
    "TULAT": "BILATERAL",
    "TUMETHOD": "CT SCAN",
    "TUEVAL": "INVESTIGATOR",
    "TUACPTFL": "Y",
    "VISITNUM": 1,
    "VISIT": "SCREENING",
    "TUDTC": "2020-03-30",
    "TUDY": -7
  },
  {
    "STUDYID": "KN868",
    "DOMAIN": "TU",
    "USUBJID": "KN868-0002-0018",
    "TUSEQ": 1,
    "TULNKID": "T1",
    "TUTESTCD": "TUMIDENT",
    "TUTEST": "Tumor Identification",
    "TUORRES": "UTERUS",
    "TUSTRESC": "UTERUS",
    "TULOC": "UTERUS",
    "TULAT": "BILATERAL",
    "TUMETHOD": "CT SCAN",
    "TUEVAL": "INVESTIGATOR",
    "TUACPTFL": "Y",
    "VISITNUM": 1,
    "VISIT": "SCREENING",
    "TUDTC": "2021-05-11",
    "TUDY": -7
  },
  {
    "STUDYID": "KN868",
    "DOMAIN": "TU",
    "USUBJID": "KN868-0002-0018",
    "TUSEQ": 2,
    "TULNKID": "T2",
    "TUTESTCD": "TUMIDENT",
    "TUTEST": "Tumor Identification",
    "TUORRES": "LYMPH NODE - PARA-AORTIC",
    "TUSTRESC": "LYMPH NODE - PARA-AORTIC",
    "TULOC": "LYMPH NODE - PARA-AORTIC",
    "TULAT": "RIGHT",
    "TUMETHOD": "CT SCAN",
    "TUEVAL": "INVESTIGATOR",
    "TUACPTFL": "Y",
    "VISITNUM": 1,
    "VISIT": "SCREENING",
    "TUDTC": "2021-05-15",
    "TUDY": -7
  },
  {
    "STUDYID": "KN868",
    "DOMAIN": "TU",
    "USUBJID": "KN868-0002-0018",
    "TUSEQ": 3,
    "TULNKID": "T3",
    "TUTESTCD": "TUMIDENT",
    "TUTEST": "Tumor Identification",
    "TUORRES": "VAGINA",
    "TUSTRESC": "VAGINA",
    "TULOC": "VAGINA",
    "TULAT": "",
    "TUMETHOD": "CT SCAN",
    "TUEVAL": "INVESTIGATOR",
    "TUACPTFL": "Y",
    "VISITNUM": 1,
    "VISIT": "SCREENING",
    "TUDTC": "2021-05-10",
    "TUDY": -7
  },
  {
    "STUDYID": "KN868",
    "DOMAIN": "TU",
    "USUBJID": "KN868-0002-0018",
    "TUSEQ": 4,
    "TULNKID": "NT1",
    "TUTESTCD": "TUMIDENT",
    "TUTEST": "Tumor Identification",
    "TUORRES": "PERITONEUM",
    "TUSTRESC": "PERITONEUM",
    "TULOC": "PERITONEUM",
    "TULAT": "BILATERAL",
    "TUMETHOD": "CT SCAN",
    "TUEVAL": "INVESTIGATOR",
    "TUACPTFL": "Y",
    "VISITNUM": 1,
    "VISIT": "SCREENING",
    "TUDTC": "2021-05-14",
    "TUDY": -7
  },
  {
    "STUDYID": "KN868",
    "DOMAIN": "TU",
    "USUBJID": "KN868-0002-0018",
    "TUSEQ": 5,
    "TULNKID": "NT2",
    "TUTESTCD": "TUMIDENT",
    "TUTEST": "Tumor Identification",
    "TUORRES": "LIVER",
    "TUSTRESC": "LIVER",
    "TULOC": "LIVER",
    "TULAT": "RIGHT",
    "TUMETHOD": "CT SCAN",
    "TUEVAL": "INVESTIGATOR",
    "TUACPTFL": "Y",
    "VISITNUM": 1,
    "VISIT": "SCREENING",
    "TUDTC": "2021-05-10",
    "TUDY": -7
  },
  {
    "STUDYID": "KN868",
    "DOMAIN": "TU",
    "USUBJID": "KN868-0002-0019",
    "TUSEQ": 1,
    "TULNKID": "T1",
    "TUTESTCD": "TUMIDENT",
    "TUTEST": "Tumor Identification",
    "TUORRES": "VAGINA",
    "TUSTRESC": "VAGINA",
    "TULOC": "VAGINA",
    "TULAT": "LEFT",
    "TUMETHOD": "CT SCAN",
    "TUEVAL": "INVESTIGATOR",
    "TUACPTFL": "Y",
    "VISITNUM": 1,
    "VISIT": "SCREENING",
    "TUDTC": "2022-01-14",
    "TUDY": -7
  },
  {
    "STUDYID": "KN868",
    "DOMAIN": "TU",
    "USUBJID": "KN868-0002-0019",
    "TUSEQ": 2,
    "TULNKID": "T2",
    "TUTESTCD": "TUMIDENT",
    "TUTEST": "Tumor Identification",
    "TUORRES": "PERITONEUM",
    "TUSTRESC": "PERITONEUM",
    "TULOC": "PERITONEUM",
    "TULAT": "RIGHT",
    "TUMETHOD": "CT SCAN",
    "TUEVAL": "INVESTIGATOR",
    "TUACPTFL": "Y",
    "VISITNUM": 1,
    "VISIT": "SCREENING",
    "TUDTC": "2022-01-20",
    "TUDY": -7
  },
  {
    "STUDYID": "KN868",
    "DOMAIN": "TU",
    "USUBJID": "KN868-0002-0019",
    "TUSEQ": 3,
    "TULNKID": "NT1",
    "TUTESTCD": "TUMIDENT",
    "TUTEST": "Tumor Identification",
    "TUORRES": "LIVER",
    "TUSTRESC": "LIVER",
    "TULOC": "LIVER",
    "TULAT": "LEFT",
    "TUMETHOD": "CT SCAN",
    "TUEVAL": "INVESTIGATOR",
    "TUACPTFL": "Y",
    "VISITNUM": 1,
    "VISIT": "SCREENING",
    "TUDTC": "2022-01-19",
    "TUDY": -7
  },
  {
    "STUDYID": "KN868",
    "DOMAIN": "TU",
    "USUBJID": "KN868-0002-0019",
    "TUSEQ": 4,
    "TULNKID": "NT2",
    "TUTESTCD": "TUMIDENT",
    "TUTEST": "Tumor Identification",
    "TUORRES": "PELVIS",
    "TUSTRESC": "PELVIS",
    "TULOC": "PELVIS",
    "TULAT": "BILATERAL",
    "TUMETHOD": "CT SCAN",
    "TUEVAL": "INVESTIGATOR",
    "TUACPTFL": "Y",
    "VISITNUM": 1,
    "VISIT": "SCREENING",
    "TUDTC": "2022-01-15",
    "TUDY": -7
  },
  {
    "STUDYID": "KN868",
    "DOMAIN": "TU",
    "USUBJID": "KN868-0002-0020",
    "TUSEQ": 1,
    "TULNKID": "T1",
    "TUTESTCD": "TUMIDENT",
    "TUTEST": "Tumor Identification",
    "TUORRES": "UTERUS",
    "TUSTRESC": "UTERUS",
    "TULOC": "UTERUS",
    "TULAT": "RIGHT",
    "TUMETHOD": "CT SCAN",
    "TUEVAL": "INVESTIGATOR",
    "TUACPTFL": "Y",
    "VISITNUM": 1,
    "VISIT": "SCREENING",
    "TUDTC": "2020-03-19",
    "TUDY": -7
  },
  {
    "STUDYID": "KN868",
    "DOMAIN": "TU",
    "USUBJID": "KN868-0002-0020",
    "TUSEQ": 2,
    "TULNKID": "NT1",
    "TUTESTCD": "TUMIDENT",
    "TUTEST": "Tumor Identification",
    "TUORRES": "LYMPH NODE - PELVIC",
    "TUSTRESC": "LYMPH NODE - PELVIC",
    "TULOC": "LYMPH NODE - PELVIC",
    "TULAT": "",
    "TUMETHOD": "CT SCAN",
    "TUEVAL": "INVESTIGATOR",
    "TUACPTFL": "Y",
    "VISITNUM": 1,
    "VISIT": "SCREENING",
    "TUDTC": "2020-03-13",
    "TUDY": -7
  },
  {
    "STUDYID": "KN868",
    "DOMAIN": "TU",
    "USUBJID": "KN868-0002-0021",
    "TUSEQ": 1,
    "TULNKID": "T1",
    "TUTESTCD": "TUMIDENT",
    "TUTEST": "Tumor Identification",
    "TUORRES": "VAGINA",
    "TUSTRESC": "VAGINA",
    "TULOC": "VAGINA",
    "TULAT": "BILATERAL",
    "TUMETHOD": "CT SCAN",
    "TUEVAL": "INVESTIGATOR",
    "TUACPTFL": "Y",
    "VISITNUM": 1,
    "VISIT": "SCREENING",
    "TUDTC": "2020-11-19",
    "TUDY": -7
  },
  {
    "STUDYID": "KN868",
    "DOMAIN": "TU",
    "USUBJID": "KN868-0002-0021",
    "TUSEQ": 2,
    "TULNKID": "T2",
    "TUTESTCD": "TUMIDENT",
    "TUTEST": "Tumor Identification",
    "TUORRES": "LYMPH NODE - PARA-AORTIC",
    "TUSTRESC": "LYMPH NODE - PARA-AORTIC",
    "TULOC": "LYMPH NODE - PARA-AORTIC",
    "TULAT": "",
    "TUMETHOD": "CT SCAN",
    "TUEVAL": "INVESTIGATOR",
    "TUACPTFL": "Y",
    "VISITNUM": 1,
    "VISIT": "SCREENING",
    "TUDTC": "2020-11-21",
    "TUDY": -7
  },
  {
    "STUDYID": "KN868",
    "DOMAIN": "TU",
    "USUBJID": "KN868-0002-0022",
    "TUSEQ": 1,
    "TULNKID": "T1",
    "TUTESTCD": "TUMIDENT",
    "TUTEST": "Tumor Identification",
    "TUORRES": "LUNG",
    "TUSTRESC": "LUNG",
    "TULOC": "LUNG",
    "TULAT": "LEFT",
    "TUMETHOD": "CT SCAN",
    "TUEVAL": "INVESTIGATOR",
    "TUACPTFL": "Y",
    "VISITNUM": 1,
    "VISIT": "SCREENING",
    "TUDTC": "2020-05-17",
    "TUDY": -7
  },
  {
    "STUDYID": "KN868",
    "DOMAIN": "TU",
    "USUBJID": "KN868-0002-0022",
    "TUSEQ": 2,
    "TULNKID": "T2",
    "TUTESTCD": "TUMIDENT",
    "TUTEST": "Tumor Identification",
    "TUORRES": "UTERUS",
    "TUSTRESC": "UTERUS",
    "TULOC": "UTERUS",
    "TULAT": "RIGHT",
    "TUMETHOD": "CT SCAN",
    "TUEVAL": "INVESTIGATOR",
    "TUACPTFL": "Y",
    "VISITNUM": 1,
    "VISIT": "SCREENING",
    "TUDTC": "2020-05-19",
    "TUDY": -7
  },
  {
    "STUDYID": "KN868",
    "DOMAIN": "TU",
    "USUBJID": "KN868-0002-0022",
    "TUSEQ": 3,
    "TULNKID": "NT1",
    "TUTESTCD": "TUMIDENT",
    "TUTEST": "Tumor Identification",
    "TUORRES": "OMENTUM",
    "TUSTRESC": "OMENTUM",
    "TULOC": "OMENTUM",
    "TULAT": "RIGHT",
    "TUMETHOD": "CT SCAN",
    "TUEVAL": "INVESTIGATOR",
    "TUACPTFL": "Y",
    "VISITNUM": 1,
    "VISIT": "SCREENING",
    "TUDTC": "2020-05-14",
    "TUDY": -7
  },
  {
    "STUDYID": "KN868",
    "DOMAIN": "TU",
    "USUBJID": "KN868-0002-0023",
    "TUSEQ": 1,
    "TULNKID": "T1",
    "TUTESTCD": "TUMIDENT",
    "TUTEST": "Tumor Identification",
    "TUORRES": "PELVIS",
    "TUSTRESC": "PELVIS",
    "TULOC": "PELVIS",
    "TULAT": "RIGHT",
    "TUMETHOD": "CT SCAN",
    "TUEVAL": "INVESTIGATOR",
    "TUACPTFL": "Y",
    "VISITNUM": 1,
    "VISIT": "SCREENING",
    "TUDTC": "2020-10-04",
    "TUDY": -7
  },
  {
    "STUDYID": "KN868",
    "DOMAIN": "TU",
    "USUBJID": "KN868-0002-0023",
    "TUSEQ": 2,
    "TULNKID": "T2",
    "TUTESTCD": "TUMIDENT",
    "TUTEST": "Tumor Identification",
    "TUORRES": "PERITONEUM",
    "TUSTRESC": "PERITONEUM",
    "TULOC": "PERITONEUM",
    "TULAT": "RIGHT",
    "TUMETHOD": "CT SCAN",
    "TUEVAL": "INVESTIGATOR",
    "TUACPTFL": "Y",
    "VISITNUM": 1,
    "VISIT": "SCREENING",
    "TUDTC": "2020-10-02",
    "TUDY": -7
  },
  {
    "STUDYID": "KN868",
    "DOMAIN": "TU",
    "USUBJID": "KN868-0002-0023",
    "TUSEQ": 3,
    "TULNKID": "NT1",
    "TUTESTCD": "TUMIDENT",
    "TUTEST": "Tumor Identification",
    "TUORRES": "LUNG",
    "TUSTRESC": "LUNG",
    "TULOC": "LUNG",
    "TULAT": "LEFT",
    "TUMETHOD": "CT SCAN",
    "TUEVAL": "INVESTIGATOR",
    "TUACPTFL": "Y",
    "VISITNUM": 1,
    "VISIT": "SCREENING",
    "TUDTC": "2020-10-04",
    "TUDY": -7
  },
  {
    "STUDYID": "KN868",
    "DOMAIN": "TU",
    "USUBJID": "KN868-0002-0023",
    "TUSEQ": 4,
    "TULNKID": "NT2",
    "TUTESTCD": "TUMIDENT",
    "TUTEST": "Tumor Identification",
    "TUORRES": "LIVER",
    "TUSTRESC": "LIVER",
    "TULOC": "LIVER",
    "TULAT": "",
    "TUMETHOD": "CT SCAN",
    "TUEVAL": "INVESTIGATOR",
    "TUACPTFL": "Y",
    "VISITNUM": 1,
    "VISIT": "SCREENING",
    "TUDTC": "2020-10-01",
    "TUDY": -7
  },
  {
    "STUDYID": "KN868",
    "DOMAIN": "TU",
    "USUBJID": "KN868-0002-0024",
    "TUSEQ": 1,
    "TULNKID": "T1",
    "TUTESTCD": "TUMIDENT",
    "TUTEST": "Tumor Identification",
    "TUORRES": "LUNG",
    "TUSTRESC": "LUNG",
    "TULOC": "LUNG",
    "TULAT": "RIGHT",
    "TUMETHOD": "CT SCAN",
    "TUEVAL": "INVESTIGATOR",
    "TUACPTFL": "Y",
    "VISITNUM": 1,
    "VISIT": "SCREENING",
    "TUDTC": "2020-11-05",
    "TUDY": -7
  },
  {
    "STUDYID": "KN868",
    "DOMAIN": "TU",
    "USUBJID": "KN868-0002-0024",
    "TUSEQ": 2,
    "TULNKID": "T2",
    "TUTESTCD": "TUMIDENT",
    "TUTEST": "Tumor Identification",
    "TUORRES": "OMENTUM",
    "TUSTRESC": "OMENTUM",
    "TULOC": "OMENTUM",
    "TULAT": "LEFT",
    "TUMETHOD": "CT SCAN",
    "TUEVAL": "INVESTIGATOR",
    "TUACPTFL": "Y",
    "VISITNUM": 1,
    "VISIT": "SCREENING",
    "TUDTC": "2020-11-02",
    "TUDY": -7
  },
  {
    "STUDYID": "KN868",
    "DOMAIN": "TU",
    "USUBJID": "KN868-0002-0024",
    "TUSEQ": 3,
    "TULNKID": "NT1",
    "TUTESTCD": "TUMIDENT",
    "TUTEST": "Tumor Identification",
    "TUORRES": "PERITONEUM",
    "TUSTRESC": "PERITONEUM",
    "TULOC": "PERITONEUM",
    "TULAT": "",
    "TUMETHOD": "CT SCAN",
    "TUEVAL": "INVESTIGATOR",
    "TUACPTFL": "Y",
    "VISITNUM": 1,
    "VISIT": "SCREENING",
    "TUDTC": "2020-11-06",
    "TUDY": -7
  },
  {
    "STUDYID": "KN868",
    "DOMAIN": "TU",
    "USUBJID": "KN868-0002-0025",
    "TUSEQ": 1,
    "TULNKID": "T1",
    "TUTESTCD": "TUMIDENT",
    "TUTEST": "Tumor Identification",
    "TUORRES": "PERITONEUM",
    "TUSTRESC": "PERITONEUM",
    "TULOC": "PERITONEUM",
    "TULAT": "RIGHT",
    "TUMETHOD": "CT SCAN",
    "TUEVAL": "INVESTIGATOR",
    "TUACPTFL": "Y",
    "VISITNUM": 1,
    "VISIT": "SCREENING",
    "TUDTC": "2020-04-19",
    "TUDY": -7
  },
  {
    "STUDYID": "KN868",
    "DOMAIN": "TU",
    "USUBJID": "KN868-0002-0025",
    "TUSEQ": 2,
    "TULNKID": "T2",
    "TUTESTCD": "TUMIDENT",
    "TUTEST": "Tumor Identification",
    "TUORRES": "LYMPH NODE - PARA-AORTIC",
    "TUSTRESC": "LYMPH NODE - PARA-AORTIC",
    "TULOC": "LYMPH NODE - PARA-AORTIC",
    "TULAT": "",
    "TUMETHOD": "CT SCAN",
    "TUEVAL": "INVESTIGATOR",
    "TUACPTFL": "Y",
    "VISITNUM": 1,
    "VISIT": "SCREENING",
    "TUDTC": "2020-04-16",
    "TUDY": -7
  },
  {
    "STUDYID": "KN868",
    "DOMAIN": "TU",
    "USUBJID": "KN868-0002-0025",
    "TUSEQ": 3,
    "TULNKID": "T3",
    "TUTESTCD": "TUMIDENT",
    "TUTEST": "Tumor Identification",
    "TUORRES": "LIVER",
    "TUSTRESC": "LIVER",
    "TULOC": "LIVER",
    "TULAT": "",
    "TUMETHOD": "CT SCAN",
    "TUEVAL": "INVESTIGATOR",
    "TUACPTFL": "Y",
    "VISITNUM": 1,
    "VISIT": "SCREENING",
    "TUDTC": "2020-04-20",
    "TUDY": -7
  },
  {
    "STUDYID": "KN868",
    "DOMAIN": "TU",
    "USUBJID": "KN868-0002-0025",
    "TUSEQ": 4,
    "TULNKID": "NT1",
    "TUTESTCD": "TUMIDENT",
    "TUTEST": "Tumor Identification",
    "TUORRES": "LYMPH NODE - PELVIC",
    "TUSTRESC": "LYMPH NODE - PELVIC",
    "TULOC": "LYMPH NODE - PELVIC",
    "TULAT": "RIGHT",
    "TUMETHOD": "CT SCAN",
    "TUEVAL": "INVESTIGATOR",
    "TUACPTFL": "Y",
    "VISITNUM": 1,
    "VISIT": "SCREENING",
    "TUDTC": "2020-04-18",
    "TUDY": -7
  },
  {
    "STUDYID": "KN868",
    "DOMAIN": "TU",
    "USUBJID": "KN868-0002-0025",
    "TUSEQ": 5,
    "TULNKID": "NT2",
    "TUTESTCD": "TUMIDENT",
    "TUTEST": "Tumor Identification",
    "TUORRES": "PELVIS",
    "TUSTRESC": "PELVIS",
    "TULOC": "PELVIS",
    "TULAT": "BILATERAL",
    "TUMETHOD": "CT SCAN",
    "TUEVAL": "INVESTIGATOR",
    "TUACPTFL": "Y",
    "VISITNUM": 1,
    "VISIT": "SCREENING",
    "TUDTC": "2020-04-17",
    "TUDY": -7
  },
  {
    "STUDYID": "KN868",
    "DOMAIN": "TU",
    "USUBJID": "KN868-0003-0001",
    "TUSEQ": 1,
    "TULNKID": "T1",
    "TUTESTCD": "TUMIDENT",
    "TUTEST": "Tumor Identification",
    "TUORRES": "PELVIS",
    "TUSTRESC": "PELVIS",
    "TULOC": "PELVIS",
    "TULAT": "BILATERAL",
    "TUMETHOD": "CT SCAN",
    "TUEVAL": "INVESTIGATOR",
    "TUACPTFL": "Y",
    "VISITNUM": 1,
    "VISIT": "SCREENING",
    "TUDTC": "2021-07-24",
    "TUDY": -7
  },
  {
    "STUDYID": "KN868",
    "DOMAIN": "TU",
    "USUBJID": "KN868-0003-0001",
    "TUSEQ": 2,
    "TULNKID": "T2",
    "TUTESTCD": "TUMIDENT",
    "TUTEST": "Tumor Identification",
    "TUORRES": "LIVER",
    "TUSTRESC": "LIVER",
    "TULOC": "LIVER",
    "TULAT": "BILATERAL",
    "TUMETHOD": "CT SCAN",
    "TUEVAL": "INVESTIGATOR",
    "TUACPTFL": "Y",
    "VISITNUM": 1,
    "VISIT": "SCREENING",
    "TUDTC": "2021-07-27",
    "TUDY": -7
  },
  {
    "STUDYID": "KN868",
    "DOMAIN": "TU",
    "USUBJID": "KN868-0003-0001",
    "TUSEQ": 3,
    "TULNKID": "T3",
    "TUTESTCD": "TUMIDENT",
    "TUTEST": "Tumor Identification",
    "TUORRES": "LYMPH NODE - PELVIC",
    "TUSTRESC": "LYMPH NODE - PELVIC",
    "TULOC": "LYMPH NODE - PELVIC",
    "TULAT": "LEFT",
    "TUMETHOD": "CT SCAN",
    "TUEVAL": "INVESTIGATOR",
    "TUACPTFL": "Y",
    "VISITNUM": 1,
    "VISIT": "SCREENING",
    "TUDTC": "2021-07-26",
    "TUDY": -7
  },
  {
    "STUDYID": "KN868",
    "DOMAIN": "TU",
    "USUBJID": "KN868-0003-0001",
    "TUSEQ": 4,
    "TULNKID": "T4",
    "TUTESTCD": "TUMIDENT",
    "TUTEST": "Tumor Identification",
    "TUORRES": "VAGINA",
    "TUSTRESC": "VAGINA",
    "TULOC": "VAGINA",
    "TULAT": "",
    "TUMETHOD": "CT SCAN",
    "TUEVAL": "INVESTIGATOR",
    "TUACPTFL": "Y",
    "VISITNUM": 1,
    "VISIT": "SCREENING",
    "TUDTC": "2021-07-27",
    "TUDY": -7
  },
  {
    "STUDYID": "KN868",
    "DOMAIN": "TU",
    "USUBJID": "KN868-0003-0001",
    "TUSEQ": 5,
    "TULNKID": "T5",
    "TUTESTCD": "TUMIDENT",
    "TUTEST": "Tumor Identification",
    "TUORRES": "LYMPH NODE - PARA-AORTIC",
    "TUSTRESC": "LYMPH NODE - PARA-AORTIC",
    "TULOC": "LYMPH NODE - PARA-AORTIC",
    "TULAT": "RIGHT",
    "TUMETHOD": "CT SCAN",
    "TUEVAL": "INVESTIGATOR",
    "TUACPTFL": "Y",
    "VISITNUM": 1,
    "VISIT": "SCREENING",
    "TUDTC": "2021-07-28",
    "TUDY": -7
  },
  {
    "STUDYID": "KN868",
    "DOMAIN": "TU",
    "USUBJID": "KN868-0003-0002",
    "TUSEQ": 1,
    "TULNKID": "T1",
    "TUTESTCD": "TUMIDENT",
    "TUTEST": "Tumor Identification",
    "TUORRES": "LUNG",
    "TUSTRESC": "LUNG",
    "TULOC": "LUNG",
    "TULAT": "LEFT",
    "TUMETHOD": "CT SCAN",
    "TUEVAL": "INVESTIGATOR",
    "TUACPTFL": "Y",
    "VISITNUM": 1,
    "VISIT": "SCREENING",
    "TUDTC": "2020-12-09",
    "TUDY": -7
  },
  {
    "STUDYID": "KN868",
    "DOMAIN": "TU",
    "USUBJID": "KN868-0003-0002",
    "TUSEQ": 2,
    "TULNKID": "T2",
    "TUTESTCD": "TUMIDENT",
    "TUTEST": "Tumor Identification",
    "TUORRES": "LIVER",
    "TUSTRESC": "LIVER",
    "TULOC": "LIVER",
    "TULAT": "BILATERAL",
    "TUMETHOD": "CT SCAN",
    "TUEVAL": "INVESTIGATOR",
    "TUACPTFL": "Y",
    "VISITNUM": 1,
    "VISIT": "SCREENING",
    "TUDTC": "2020-12-10",
    "TUDY": -7
  },
  {
    "STUDYID": "KN868",
    "DOMAIN": "TU",
    "USUBJID": "KN868-0003-0002",
    "TUSEQ": 3,
    "TULNKID": "T3",
    "TUTESTCD": "TUMIDENT",
    "TUTEST": "Tumor Identification",
    "TUORRES": "VAGINA",
    "TUSTRESC": "VAGINA",
    "TULOC": "VAGINA",
    "TULAT": "RIGHT",
    "TUMETHOD": "CT SCAN",
    "TUEVAL": "INVESTIGATOR",
    "TUACPTFL": "Y",
    "VISITNUM": 1,
    "VISIT": "SCREENING",
    "TUDTC": "2020-12-08",
    "TUDY": -7
  },
  {
    "STUDYID": "KN868",
    "DOMAIN": "TU",
    "USUBJID": "KN868-0003-0002",
    "TUSEQ": 4,
    "TULNKID": "T4",
    "TUTESTCD": "TUMIDENT",
    "TUTEST": "Tumor Identification",
    "TUORRES": "UTERUS",
    "TUSTRESC": "UTERUS",
    "TULOC": "UTERUS",
    "TULAT": "",
    "TUMETHOD": "CT SCAN",
    "TUEVAL": "INVESTIGATOR",
    "TUACPTFL": "Y",
    "VISITNUM": 1,
    "VISIT": "SCREENING",
    "TUDTC": "2020-12-08",
    "TUDY": -7
  },
  {
    "STUDYID": "KN868",
    "DOMAIN": "TU",
    "USUBJID": "KN868-0003-0003",
    "TUSEQ": 1,
    "TULNKID": "T1",
    "TUTESTCD": "TUMIDENT",
    "TUTEST": "Tumor Identification",
    "TUORRES": "VAGINA",
    "TUSTRESC": "VAGINA",
    "TULOC": "VAGINA",
    "TULAT": "",
    "TUMETHOD": "CT SCAN",
    "TUEVAL": "INVESTIGATOR",
    "TUACPTFL": "Y",
    "VISITNUM": 1,
    "VISIT": "SCREENING",
    "TUDTC": "2022-01-26",
    "TUDY": -7
  },
  {
    "STUDYID": "KN868",
    "DOMAIN": "TU",
    "USUBJID": "KN868-0003-0003",
    "TUSEQ": 2,
    "TULNKID": "T2",
    "TUTESTCD": "TUMIDENT",
    "TUTEST": "Tumor Identification",
    "TUORRES": "LUNG",
    "TUSTRESC": "LUNG",
    "TULOC": "LUNG",
    "TULAT": "RIGHT",
    "TUMETHOD": "CT SCAN",
    "TUEVAL": "INVESTIGATOR",
    "TUACPTFL": "Y",
    "VISITNUM": 1,
    "VISIT": "SCREENING",
    "TUDTC": "2022-01-23",
    "TUDY": -7
  },
  {
    "STUDYID": "KN868",
    "DOMAIN": "TU",
    "USUBJID": "KN868-0003-0003",
    "TUSEQ": 3,
    "TULNKID": "NT1",
    "TUTESTCD": "TUMIDENT",
    "TUTEST": "Tumor Identification",
    "TUORRES": "OMENTUM",
    "TUSTRESC": "OMENTUM",
    "TULOC": "OMENTUM",
    "TULAT": "LEFT",
    "TUMETHOD": "CT SCAN",
    "TUEVAL": "INVESTIGATOR",
    "TUACPTFL": "Y",
    "VISITNUM": 1,
    "VISIT": "SCREENING",
    "TUDTC": "2022-01-27",
    "TUDY": -7
  },
  {
    "STUDYID": "KN868",
    "DOMAIN": "TU",
    "USUBJID": "KN868-0003-0003",
    "TUSEQ": 4,
    "TULNKID": "NT2",
    "TUTESTCD": "TUMIDENT",
    "TUTEST": "Tumor Identification",
    "TUORRES": "LIVER",
    "TUSTRESC": "LIVER",
    "TULOC": "LIVER",
    "TULAT": "",
    "TUMETHOD": "CT SCAN",
    "TUEVAL": "INVESTIGATOR",
    "TUACPTFL": "Y",
    "VISITNUM": 1,
    "VISIT": "SCREENING",
    "TUDTC": "2022-01-27",
    "TUDY": -7
  },
  {
    "STUDYID": "KN868",
    "DOMAIN": "TU",
    "USUBJID": "KN868-0003-0003",
    "TUSEQ": 5,
    "TULNKID": "NT3",
    "TUTESTCD": "TUMIDENT",
    "TUTEST": "Tumor Identification",
    "TUORRES": "LYMPH NODE - PELVIC",
    "TUSTRESC": "LYMPH NODE - PELVIC",
    "TULOC": "LYMPH NODE - PELVIC",
    "TULAT": "BILATERAL",
    "TUMETHOD": "CT SCAN",
    "TUEVAL": "INVESTIGATOR",
    "TUACPTFL": "Y",
    "VISITNUM": 1,
    "VISIT": "SCREENING",
    "TUDTC": "2022-01-26",
    "TUDY": -7
  },
  {
    "STUDYID": "KN868",
    "DOMAIN": "TU",
    "USUBJID": "KN868-0003-0004",
    "TUSEQ": 1,
    "TULNKID": "T1",
    "TUTESTCD": "TUMIDENT",
    "TUTEST": "Tumor Identification",
    "TUORRES": "UTERUS",
    "TUSTRESC": "UTERUS",
    "TULOC": "UTERUS",
    "TULAT": "LEFT",
    "TUMETHOD": "CT SCAN",
    "TUEVAL": "INVESTIGATOR",
    "TUACPTFL": "Y",
    "VISITNUM": 1,
    "VISIT": "SCREENING",
    "TUDTC": "2021-07-26",
    "TUDY": -7
  },
  {
    "STUDYID": "KN868",
    "DOMAIN": "TU",
    "USUBJID": "KN868-0003-0004",
    "TUSEQ": 2,
    "TULNKID": "NT1",
    "TUTESTCD": "TUMIDENT",
    "TUTEST": "Tumor Identification",
    "TUORRES": "PERITONEUM",
    "TUSTRESC": "PERITONEUM",
    "TULOC": "PERITONEUM",
    "TULAT": "LEFT",
    "TUMETHOD": "CT SCAN",
    "TUEVAL": "INVESTIGATOR",
    "TUACPTFL": "Y",
    "VISITNUM": 1,
    "VISIT": "SCREENING",
    "TUDTC": "2021-07-28",
    "TUDY": -7
  },
  {
    "STUDYID": "KN868",
    "DOMAIN": "TU",
    "USUBJID": "KN868-0003-0004",
    "TUSEQ": 3,
    "TULNKID": "NT2",
    "TUTESTCD": "TUMIDENT",
    "TUTEST": "Tumor Identification",
    "TUORRES": "LIVER",
    "TUSTRESC": "LIVER",
    "TULOC": "LIVER",
    "TULAT": "",
    "TUMETHOD": "CT SCAN",
    "TUEVAL": "INVESTIGATOR",
    "TUACPTFL": "Y",
    "VISITNUM": 1,
    "VISIT": "SCREENING",
    "TUDTC": "2021-07-30",
    "TUDY": -7
  },
  {
    "STUDYID": "KN868",
    "DOMAIN": "TU",
    "USUBJID": "KN868-0003-0005",
    "TUSEQ": 1,
    "TULNKID": "T1",
    "TUTESTCD": "TUMIDENT",
    "TUTEST": "Tumor Identification",
    "TUORRES": "PELVIS",
    "TUSTRESC": "PELVIS",
    "TULOC": "PELVIS",
    "TULAT": "BILATERAL",
    "TUMETHOD": "CT SCAN",
    "TUEVAL": "INVESTIGATOR",
    "TUACPTFL": "Y",
    "VISITNUM": 1,
    "VISIT": "SCREENING",
    "TUDTC": "2021-04-21",
    "TUDY": -7
  },
  {
    "STUDYID": "KN868",
    "DOMAIN": "TU",
    "USUBJID": "KN868-0003-0005",
    "TUSEQ": 2,
    "TULNKID": "T2",
    "TUTESTCD": "TUMIDENT",
    "TUTEST": "Tumor Identification",
    "TUORRES": "LYMPH NODE - PELVIC",
    "TUSTRESC": "LYMPH NODE - PELVIC",
    "TULOC": "LYMPH NODE - PELVIC",
    "TULAT": "LEFT",
    "TUMETHOD": "CT SCAN",
    "TUEVAL": "INVESTIGATOR",
    "TUACPTFL": "Y",
    "VISITNUM": 1,
    "VISIT": "SCREENING",
    "TUDTC": "2021-04-22",
    "TUDY": -7
  },
  {
    "STUDYID": "KN868",
    "DOMAIN": "TU",
    "USUBJID": "KN868-0003-0005",
    "TUSEQ": 3,
    "TULNKID": "NT1",
    "TUTESTCD": "TUMIDENT",
    "TUTEST": "Tumor Identification",
    "TUORRES": "PERITONEUM",
    "TUSTRESC": "PERITONEUM",
    "TULOC": "PERITONEUM",
    "TULAT": "RIGHT",
    "TUMETHOD": "CT SCAN",
    "TUEVAL": "INVESTIGATOR",
    "TUACPTFL": "Y",
    "VISITNUM": 1,
    "VISIT": "SCREENING",
    "TUDTC": "2021-04-25",
    "TUDY": -7
  },
  {
    "STUDYID": "KN868",
    "DOMAIN": "TU",
    "USUBJID": "KN868-0003-0005",
    "TUSEQ": 4,
    "TULNKID": "NT2",
    "TUTESTCD": "TUMIDENT",
    "TUTEST": "Tumor Identification",
    "TUORRES": "LYMPH NODE - PARA-AORTIC",
    "TUSTRESC": "LYMPH NODE - PARA-AORTIC",
    "TULOC": "LYMPH NODE - PARA-AORTIC",
    "TULAT": "LEFT",
    "TUMETHOD": "CT SCAN",
    "TUEVAL": "INVESTIGATOR",
    "TUACPTFL": "Y",
    "VISITNUM": 1,
    "VISIT": "SCREENING",
    "TUDTC": "2021-04-19",
    "TUDY": -7
  },
  {
    "STUDYID": "KN868",
    "DOMAIN": "TU",
    "USUBJID": "KN868-0003-0005",
    "TUSEQ": 5,
    "TULNKID": "NT3",
    "TUTESTCD": "TUMIDENT",
    "TUTEST": "Tumor Identification",
    "TUORRES": "LIVER",
    "TUSTRESC": "LIVER",
    "TULOC": "LIVER",
    "TULAT": "",
    "TUMETHOD": "CT SCAN",
    "TUEVAL": "INVESTIGATOR",
    "TUACPTFL": "Y",
    "VISITNUM": 1,
    "VISIT": "SCREENING",
    "TUDTC": "2021-04-26",
    "TUDY": -7
  },
  {
    "STUDYID": "KN868",
    "DOMAIN": "TU",
    "USUBJID": "KN868-0003-0006",
    "TUSEQ": 1,
    "TULNKID": "T1",
    "TUTESTCD": "TUMIDENT",
    "TUTEST": "Tumor Identification",
    "TUORRES": "OMENTUM",
    "TUSTRESC": "OMENTUM",
    "TULOC": "OMENTUM",
    "TULAT": "BILATERAL",
    "TUMETHOD": "CT SCAN",
    "TUEVAL": "INVESTIGATOR",
    "TUACPTFL": "Y",
    "VISITNUM": 1,
    "VISIT": "SCREENING",
    "TUDTC": "2020-04-18",
    "TUDY": -7
  },
  {
    "STUDYID": "KN868",
    "DOMAIN": "TU",
    "USUBJID": "KN868-0003-0006",
    "TUSEQ": 2,
    "TULNKID": "NT1",
    "TUTESTCD": "TUMIDENT",
    "TUTEST": "Tumor Identification",
    "TUORRES": "LUNG",
    "TUSTRESC": "LUNG",
    "TULOC": "LUNG",
    "TULAT": "",
    "TUMETHOD": "CT SCAN",
    "TUEVAL": "INVESTIGATOR",
    "TUACPTFL": "Y",
    "VISITNUM": 1,
    "VISIT": "SCREENING",
    "TUDTC": "2020-04-20",
    "TUDY": -7
  },
  {
    "STUDYID": "KN868",
    "DOMAIN": "TU",
    "USUBJID": "KN868-0003-0006",
    "TUSEQ": 3,
    "TULNKID": "NT2",
    "TUTESTCD": "TUMIDENT",
    "TUTEST": "Tumor Identification",
    "TUORRES": "LYMPH NODE - PELVIC",
    "TUSTRESC": "LYMPH NODE - PELVIC",
    "TULOC": "LYMPH NODE - PELVIC",
    "TULAT": "",
    "TUMETHOD": "CT SCAN",
    "TUEVAL": "INVESTIGATOR",
    "TUACPTFL": "Y",
    "VISITNUM": 1,
    "VISIT": "SCREENING",
    "TUDTC": "2020-04-23",
    "TUDY": -7
  },
  {
    "STUDYID": "KN868",
    "DOMAIN": "TU",
    "USUBJID": "KN868-0003-0007",
    "TUSEQ": 1,
    "TULNKID": "T1",
    "TUTESTCD": "TUMIDENT",
    "TUTEST": "Tumor Identification",
    "TUORRES": "LUNG",
    "TUSTRESC": "LUNG",
    "TULOC": "LUNG",
    "TULAT": "",
    "TUMETHOD": "CT SCAN",
    "TUEVAL": "INVESTIGATOR",
    "TUACPTFL": "Y",
    "VISITNUM": 1,
    "VISIT": "SCREENING",
    "TUDTC": "2020-05-16",
    "TUDY": -7
  },
  {
    "STUDYID": "KN868",
    "DOMAIN": "TU",
    "USUBJID": "KN868-0003-0007",
    "TUSEQ": 2,
    "TULNKID": "NT1",
    "TUTESTCD": "TUMIDENT",
    "TUTEST": "Tumor Identification",
    "TUORRES": "UTERUS",
    "TUSTRESC": "UTERUS",
    "TULOC": "UTERUS",
    "TULAT": "",
    "TUMETHOD": "CT SCAN",
    "TUEVAL": "INVESTIGATOR",
    "TUACPTFL": "Y",
    "VISITNUM": 1,
    "VISIT": "SCREENING",
    "TUDTC": "2020-05-16",
    "TUDY": -7
  },
  {
    "STUDYID": "KN868",
    "DOMAIN": "TU",
    "USUBJID": "KN868-0003-0008",
    "TUSEQ": 1,
    "TULNKID": "T1",
    "TUTESTCD": "TUMIDENT",
    "TUTEST": "Tumor Identification",
    "TUORRES": "OMENTUM",
    "TUSTRESC": "OMENTUM",
    "TULOC": "OMENTUM",
    "TULAT": "",
    "TUMETHOD": "CT SCAN",
    "TUEVAL": "INVESTIGATOR",
    "TUACPTFL": "Y",
    "VISITNUM": 1,
    "VISIT": "SCREENING",
    "TUDTC": "2020-03-23",
    "TUDY": -7
  },
  {
    "STUDYID": "KN868",
    "DOMAIN": "TU",
    "USUBJID": "KN868-0003-0008",
    "TUSEQ": 2,
    "TULNKID": "T2",
    "TUTESTCD": "TUMIDENT",
    "TUTEST": "Tumor Identification",
    "TUORRES": "PELVIS",
    "TUSTRESC": "PELVIS",
    "TULOC": "PELVIS",
    "TULAT": "BILATERAL",
    "TUMETHOD": "CT SCAN",
    "TUEVAL": "INVESTIGATOR",
    "TUACPTFL": "Y",
    "VISITNUM": 1,
    "VISIT": "SCREENING",
    "TUDTC": "2020-03-23",
    "TUDY": -7
  },
  {
    "STUDYID": "KN868",
    "DOMAIN": "TU",
    "USUBJID": "KN868-0003-0008",
    "TUSEQ": 3,
    "TULNKID": "T3",
    "TUTESTCD": "TUMIDENT",
    "TUTEST": "Tumor Identification",
    "TUORRES": "LYMPH NODE - PELVIC",
    "TUSTRESC": "LYMPH NODE - PELVIC",
    "TULOC": "LYMPH NODE - PELVIC",
    "TULAT": "BILATERAL",
    "TUMETHOD": "CT SCAN",
    "TUEVAL": "INVESTIGATOR",
    "TUACPTFL": "Y",
    "VISITNUM": 1,
    "VISIT": "SCREENING",
    "TUDTC": "2020-03-28",
    "TUDY": -7
  },
  {
    "STUDYID": "KN868",
    "DOMAIN": "TU",
    "USUBJID": "KN868-0003-0009",
    "TUSEQ": 1,
    "TULNKID": "T1",
    "TUTESTCD": "TUMIDENT",
    "TUTEST": "Tumor Identification",
    "TUORRES": "PERITONEUM",
    "TUSTRESC": "PERITONEUM",
    "TULOC": "PERITONEUM",
    "TULAT": "LEFT",
    "TUMETHOD": "CT SCAN",
    "TUEVAL": "INVESTIGATOR",
    "TUACPTFL": "Y",
    "VISITNUM": 1,
    "VISIT": "SCREENING",
    "TUDTC": "2021-12-09",
    "TUDY": -7
  },
  {
    "STUDYID": "KN868",
    "DOMAIN": "TU",
    "USUBJID": "KN868-0003-0009",
    "TUSEQ": 2,
    "TULNKID": "T2",
    "TUTESTCD": "TUMIDENT",
    "TUTEST": "Tumor Identification",
    "TUORRES": "OMENTUM",
    "TUSTRESC": "OMENTUM",
    "TULOC": "OMENTUM",
    "TULAT": "BILATERAL",
    "TUMETHOD": "CT SCAN",
    "TUEVAL": "INVESTIGATOR",
    "TUACPTFL": "Y",
    "VISITNUM": 1,
    "VISIT": "SCREENING",
    "TUDTC": "2021-12-07",
    "TUDY": -7
  },
  {
    "STUDYID": "KN868",
    "DOMAIN": "TU",
    "USUBJID": "KN868-0003-0009",
    "TUSEQ": 3,
    "TULNKID": "NT1",
    "TUTESTCD": "TUMIDENT",
    "TUTEST": "Tumor Identification",
    "TUORRES": "LYMPH NODE - PARA-AORTIC",
    "TUSTRESC": "LYMPH NODE - PARA-AORTIC",
    "TULOC": "LYMPH NODE - PARA-AORTIC",
    "TULAT": "BILATERAL",
    "TUMETHOD": "CT SCAN",
    "TUEVAL": "INVESTIGATOR",
    "TUACPTFL": "Y",
    "VISITNUM": 1,
    "VISIT": "SCREENING",
    "TUDTC": "2021-12-06",
    "TUDY": -7
  },
  {
    "STUDYID": "KN868",
    "DOMAIN": "TU",
    "USUBJID": "KN868-0003-0010",
    "TUSEQ": 1,
    "TULNKID": "T1",
    "TUTESTCD": "TUMIDENT",
    "TUTEST": "Tumor Identification",
    "TUORRES": "LYMPH NODE - PELVIC",
    "TUSTRESC": "LYMPH NODE - PELVIC",
    "TULOC": "LYMPH NODE - PELVIC",
    "TULAT": "",
    "TUMETHOD": "CT SCAN",
    "TUEVAL": "INVESTIGATOR",
    "TUACPTFL": "Y",
    "VISITNUM": 1,
    "VISIT": "SCREENING",
    "TUDTC": "2022-01-22",
    "TUDY": -7
  },
  {
    "STUDYID": "KN868",
    "DOMAIN": "TU",
    "USUBJID": "KN868-0003-0010",
    "TUSEQ": 2,
    "TULNKID": "T2",
    "TUTESTCD": "TUMIDENT",
    "TUTEST": "Tumor Identification",
    "TUORRES": "PELVIS",
    "TUSTRESC": "PELVIS",
    "TULOC": "PELVIS",
    "TULAT": "LEFT",
    "TUMETHOD": "CT SCAN",
    "TUEVAL": "INVESTIGATOR",
    "TUACPTFL": "Y",
    "VISITNUM": 1,
    "VISIT": "SCREENING",
    "TUDTC": "2022-01-23",
    "TUDY": -7
  },
  {
    "STUDYID": "KN868",
    "DOMAIN": "TU",
    "USUBJID": "KN868-0003-0010",
    "TUSEQ": 3,
    "TULNKID": "T3",
    "TUTESTCD": "TUMIDENT",
    "TUTEST": "Tumor Identification",
    "TUORRES": "UTERUS",
    "TUSTRESC": "UTERUS",
    "TULOC": "UTERUS",
    "TULAT": "RIGHT",
    "TUMETHOD": "CT SCAN",
    "TUEVAL": "INVESTIGATOR",
    "TUACPTFL": "Y",
    "VISITNUM": 1,
    "VISIT": "SCREENING",
    "TUDTC": "2022-01-20",
    "TUDY": -7
  },
  {
    "STUDYID": "KN868",
    "DOMAIN": "TU",
    "USUBJID": "KN868-0003-0010",
    "TUSEQ": 4,
    "TULNKID": "T4",
    "TUTESTCD": "TUMIDENT",
    "TUTEST": "Tumor Identification",
    "TUORRES": "VAGINA",
    "TUSTRESC": "VAGINA",
    "TULOC": "VAGINA",
    "TULAT": "RIGHT",
    "TUMETHOD": "CT SCAN",
    "TUEVAL": "INVESTIGATOR",
    "TUACPTFL": "Y",
    "VISITNUM": 1,
    "VISIT": "SCREENING",
    "TUDTC": "2022-01-22",
    "TUDY": -7
  },
  {
    "STUDYID": "KN868",
    "DOMAIN": "TU",
    "USUBJID": "KN868-0003-0010",
    "TUSEQ": 5,
    "TULNKID": "NT1",
    "TUTESTCD": "TUMIDENT",
    "TUTEST": "Tumor Identification",
    "TUORRES": "PERITONEUM",
    "TUSTRESC": "PERITONEUM",
    "TULOC": "PERITONEUM",
    "TULAT": "",
    "TUMETHOD": "CT SCAN",
    "TUEVAL": "INVESTIGATOR",
    "TUACPTFL": "Y",
    "VISITNUM": 1,
    "VISIT": "SCREENING",
    "TUDTC": "2022-01-18",
    "TUDY": -7
  },
  {
    "STUDYID": "KN868",
    "DOMAIN": "TU",
    "USUBJID": "KN868-0003-0010",
    "TUSEQ": 6,
    "TULNKID": "NT2",
    "TUTESTCD": "TUMIDENT",
    "TUTEST": "Tumor Identification",
    "TUORRES": "LYMPH NODE - PARA-AORTIC",
    "TUSTRESC": "LYMPH NODE - PARA-AORTIC",
    "TULOC": "LYMPH NODE - PARA-AORTIC",
    "TULAT": "RIGHT",
    "TUMETHOD": "CT SCAN",
    "TUEVAL": "INVESTIGATOR",
    "TUACPTFL": "Y",
    "VISITNUM": 1,
    "VISIT": "SCREENING",
    "TUDTC": "2022-01-19",
    "TUDY": -7
  },
  {
    "STUDYID": "KN868",
    "DOMAIN": "TU",
    "USUBJID": "KN868-0003-0011",
    "TUSEQ": 1,
    "TULNKID": "T1",
    "TUTESTCD": "TUMIDENT",
    "TUTEST": "Tumor Identification",
    "TUORRES": "PELVIS",
    "TUSTRESC": "PELVIS",
    "TULOC": "PELVIS",
    "TULAT": "",
    "TUMETHOD": "CT SCAN",
    "TUEVAL": "INVESTIGATOR",
    "TUACPTFL": "Y",
    "VISITNUM": 1,
    "VISIT": "SCREENING",
    "TUDTC": "2021-05-08",
    "TUDY": -7
  },
  {
    "STUDYID": "KN868",
    "DOMAIN": "TU",
    "USUBJID": "KN868-0003-0011",
    "TUSEQ": 2,
    "TULNKID": "T2",
    "TUTESTCD": "TUMIDENT",
    "TUTEST": "Tumor Identification",
    "TUORRES": "LIVER",
    "TUSTRESC": "LIVER",
    "TULOC": "LIVER",
    "TULAT": "",
    "TUMETHOD": "CT SCAN",
    "TUEVAL": "INVESTIGATOR",
    "TUACPTFL": "Y",
    "VISITNUM": 1,
    "VISIT": "SCREENING",
    "TUDTC": "2021-05-14",
    "TUDY": -7
  },
  {
    "STUDYID": "KN868",
    "DOMAIN": "TU",
    "USUBJID": "KN868-0003-0011",
    "TUSEQ": 3,
    "TULNKID": "NT1",
    "TUTESTCD": "TUMIDENT",
    "TUTEST": "Tumor Identification",
    "TUORRES": "LYMPH NODE - PARA-AORTIC",
    "TUSTRESC": "LYMPH NODE - PARA-AORTIC",
    "TULOC": "LYMPH NODE - PARA-AORTIC",
    "TULAT": "LEFT",
    "TUMETHOD": "CT SCAN",
    "TUEVAL": "INVESTIGATOR",
    "TUACPTFL": "Y",
    "VISITNUM": 1,
    "VISIT": "SCREENING",
    "TUDTC": "2021-05-13",
    "TUDY": -7
  },
  {
    "STUDYID": "KN868",
    "DOMAIN": "TU",
    "USUBJID": "KN868-0003-0012",
    "TUSEQ": 1,
    "TULNKID": "T1",
    "TUTESTCD": "TUMIDENT",
    "TUTEST": "Tumor Identification",
    "TUORRES": "UTERUS",
    "TUSTRESC": "UTERUS",
    "TULOC": "UTERUS",
    "TULAT": "LEFT",
    "TUMETHOD": "CT SCAN",
    "TUEVAL": "INVESTIGATOR",
    "TUACPTFL": "Y",
    "VISITNUM": 1,
    "VISIT": "SCREENING",
    "TUDTC": "2020-09-27",
    "TUDY": -7
  },
  {
    "STUDYID": "KN868",
    "DOMAIN": "TU",
    "USUBJID": "KN868-0003-0012",
    "TUSEQ": 2,
    "TULNKID": "T2",
    "TUTESTCD": "TUMIDENT",
    "TUTEST": "Tumor Identification",
    "TUORRES": "LYMPH NODE - PARA-AORTIC",
    "TUSTRESC": "LYMPH NODE - PARA-AORTIC",
    "TULOC": "LYMPH NODE - PARA-AORTIC",
    "TULAT": "RIGHT",
    "TUMETHOD": "CT SCAN",
    "TUEVAL": "INVESTIGATOR",
    "TUACPTFL": "Y",
    "VISITNUM": 1,
    "VISIT": "SCREENING",
    "TUDTC": "2020-10-01",
    "TUDY": -7
  },
  {
    "STUDYID": "KN868",
    "DOMAIN": "TU",
    "USUBJID": "KN868-0003-0012",
    "TUSEQ": 3,
    "TULNKID": "T3",
    "TUTESTCD": "TUMIDENT",
    "TUTEST": "Tumor Identification",
    "TUORRES": "LIVER",
    "TUSTRESC": "LIVER",
    "TULOC": "LIVER",
    "TULAT": "BILATERAL",
    "TUMETHOD": "CT SCAN",
    "TUEVAL": "INVESTIGATOR",
    "TUACPTFL": "Y",
    "VISITNUM": 1,
    "VISIT": "SCREENING",
    "TUDTC": "2020-09-30",
    "TUDY": -7
  },
  {
    "STUDYID": "KN868",
    "DOMAIN": "TU",
    "USUBJID": "KN868-0003-0012",
    "TUSEQ": 4,
    "TULNKID": "NT1",
    "TUTESTCD": "TUMIDENT",
    "TUTEST": "Tumor Identification",
    "TUORRES": "PELVIS",
    "TUSTRESC": "PELVIS",
    "TULOC": "PELVIS",
    "TULAT": "BILATERAL",
    "TUMETHOD": "CT SCAN",
    "TUEVAL": "INVESTIGATOR",
    "TUACPTFL": "Y",
    "VISITNUM": 1,
    "VISIT": "SCREENING",
    "TUDTC": "2020-09-27",
    "TUDY": -7
  },
  {
    "STUDYID": "KN868",
    "DOMAIN": "TU",
    "USUBJID": "KN868-0003-0012",
    "TUSEQ": 5,
    "TULNKID": "NT2",
    "TUTESTCD": "TUMIDENT",
    "TUTEST": "Tumor Identification",
    "TUORRES": "OMENTUM",
    "TUSTRESC": "OMENTUM",
    "TULOC": "OMENTUM",
    "TULAT": "",
    "TUMETHOD": "CT SCAN",
    "TUEVAL": "INVESTIGATOR",
    "TUACPTFL": "Y",
    "VISITNUM": 1,
    "VISIT": "SCREENING",
    "TUDTC": "2020-10-01",
    "TUDY": -7
  },
  {
    "STUDYID": "KN868",
    "DOMAIN": "TU",
    "USUBJID": "KN868-0003-0013",
    "TUSEQ": 1,
    "TULNKID": "T1",
    "TUTESTCD": "TUMIDENT",
    "TUTEST": "Tumor Identification",
    "TUORRES": "VAGINA",
    "TUSTRESC": "VAGINA",
    "TULOC": "VAGINA",
    "TULAT": "BILATERAL",
    "TUMETHOD": "CT SCAN",
    "TUEVAL": "INVESTIGATOR",
    "TUACPTFL": "Y",
    "VISITNUM": 1,
    "VISIT": "SCREENING",
    "TUDTC": "2021-03-10",
    "TUDY": -7
  },
  {
    "STUDYID": "KN868",
    "DOMAIN": "TU",
    "USUBJID": "KN868-0003-0014",
    "TUSEQ": 1,
    "TULNKID": "T1",
    "TUTESTCD": "TUMIDENT",
    "TUTEST": "Tumor Identification",
    "TUORRES": "PELVIS",
    "TUSTRESC": "PELVIS",
    "TULOC": "PELVIS",
    "TULAT": "RIGHT",
    "TUMETHOD": "CT SCAN",
    "TUEVAL": "INVESTIGATOR",
    "TUACPTFL": "Y",
    "VISITNUM": 1,
    "VISIT": "SCREENING",
    "TUDTC": "2020-11-08",
    "TUDY": -7
  },
  {
    "STUDYID": "KN868",
    "DOMAIN": "TU",
    "USUBJID": "KN868-0003-0014",
    "TUSEQ": 2,
    "TULNKID": "T2",
    "TUTESTCD": "TUMIDENT",
    "TUTEST": "Tumor Identification",
    "TUORRES": "LIVER",
    "TUSTRESC": "LIVER",
    "TULOC": "LIVER",
    "TULAT": "",
    "TUMETHOD": "CT SCAN",
    "TUEVAL": "INVESTIGATOR",
    "TUACPTFL": "Y",
    "VISITNUM": 1,
    "VISIT": "SCREENING",
    "TUDTC": "2020-11-03",
    "TUDY": -7
  },
  {
    "STUDYID": "KN868",
    "DOMAIN": "TU",
    "USUBJID": "KN868-0003-0014",
    "TUSEQ": 3,
    "TULNKID": "T3",
    "TUTESTCD": "TUMIDENT",
    "TUTEST": "Tumor Identification",
    "TUORRES": "LUNG",
    "TUSTRESC": "LUNG",
    "TULOC": "LUNG",
    "TULAT": "BILATERAL",
    "TUMETHOD": "CT SCAN",
    "TUEVAL": "INVESTIGATOR",
    "TUACPTFL": "Y",
    "VISITNUM": 1,
    "VISIT": "SCREENING",
    "TUDTC": "2020-11-06",
    "TUDY": -7
  },
  {
    "STUDYID": "KN868",
    "DOMAIN": "TU",
    "USUBJID": "KN868-0003-0014",
    "TUSEQ": 4,
    "TULNKID": "NT1",
    "TUTESTCD": "TUMIDENT",
    "TUTEST": "Tumor Identification",
    "TUORRES": "LYMPH NODE - PARA-AORTIC",
    "TUSTRESC": "LYMPH NODE - PARA-AORTIC",
    "TULOC": "LYMPH NODE - PARA-AORTIC",
    "TULAT": "LEFT",
    "TUMETHOD": "CT SCAN",
    "TUEVAL": "INVESTIGATOR",
    "TUACPTFL": "Y",
    "VISITNUM": 1,
    "VISIT": "SCREENING",
    "TUDTC": "2020-11-03",
    "TUDY": -7
  },
  {
    "STUDYID": "KN868",
    "DOMAIN": "TU",
    "USUBJID": "KN868-0003-0015",
    "TUSEQ": 1,
    "TULNKID": "T1",
    "TUTESTCD": "TUMIDENT",
    "TUTEST": "Tumor Identification",
    "TUORRES": "PERITONEUM",
    "TUSTRESC": "PERITONEUM",
    "TULOC": "PERITONEUM",
    "TULAT": "RIGHT",
    "TUMETHOD": "CT SCAN",
    "TUEVAL": "INVESTIGATOR",
    "TUACPTFL": "Y",
    "VISITNUM": 1,
    "VISIT": "SCREENING",
    "TUDTC": "2021-03-13",
    "TUDY": -7
  },
  {
    "STUDYID": "KN868",
    "DOMAIN": "TU",
    "USUBJID": "KN868-0003-0015",
    "TUSEQ": 2,
    "TULNKID": "T2",
    "TUTESTCD": "TUMIDENT",
    "TUTEST": "Tumor Identification",
    "TUORRES": "LYMPH NODE - PARA-AORTIC",
    "TUSTRESC": "LYMPH NODE - PARA-AORTIC",
    "TULOC": "LYMPH NODE - PARA-AORTIC",
    "TULAT": "RIGHT",
    "TUMETHOD": "CT SCAN",
    "TUEVAL": "INVESTIGATOR",
    "TUACPTFL": "Y",
    "VISITNUM": 1,
    "VISIT": "SCREENING",
    "TUDTC": "2021-03-15",
    "TUDY": -7
  },
  {
    "STUDYID": "KN868",
    "DOMAIN": "TU",
    "USUBJID": "KN868-0003-0015",
    "TUSEQ": 3,
    "TULNKID": "T3",
    "TUTESTCD": "TUMIDENT",
    "TUTEST": "Tumor Identification",
    "TUORRES": "LYMPH NODE - PELVIC",
    "TUSTRESC": "LYMPH NODE - PELVIC",
    "TULOC": "LYMPH NODE - PELVIC",
    "TULAT": "BILATERAL",
    "TUMETHOD": "CT SCAN",
    "TUEVAL": "INVESTIGATOR",
    "TUACPTFL": "Y",
    "VISITNUM": 1,
    "VISIT": "SCREENING",
    "TUDTC": "2021-03-13",
    "TUDY": -7
  },
  {
    "STUDYID": "KN868",
    "DOMAIN": "TU",
    "USUBJID": "KN868-0003-0015",
    "TUSEQ": 4,
    "TULNKID": "NT1",
    "TUTESTCD": "TUMIDENT",
    "TUTEST": "Tumor Identification",
    "TUORRES": "OMENTUM",
    "TUSTRESC": "OMENTUM",
    "TULOC": "OMENTUM",
    "TULAT": "",
    "TUMETHOD": "CT SCAN",
    "TUEVAL": "INVESTIGATOR",
    "TUACPTFL": "Y",
    "VISITNUM": 1,
    "VISIT": "SCREENING",
    "TUDTC": "2021-03-11",
    "TUDY": -7
  },
  {
    "STUDYID": "KN868",
    "DOMAIN": "TU",
    "USUBJID": "KN868-0003-0016",
    "TUSEQ": 1,
    "TULNKID": "T1",
    "TUTESTCD": "TUMIDENT",
    "TUTEST": "Tumor Identification",
    "TUORRES": "LUNG",
    "TUSTRESC": "LUNG",
    "TULOC": "LUNG",
    "TULAT": "RIGHT",
    "TUMETHOD": "CT SCAN",
    "TUEVAL": "INVESTIGATOR",
    "TUACPTFL": "Y",
    "VISITNUM": 1,
    "VISIT": "SCREENING",
    "TUDTC": "2021-04-21",
    "TUDY": -7
  },
  {
    "STUDYID": "KN868",
    "DOMAIN": "TU",
    "USUBJID": "KN868-0003-0016",
    "TUSEQ": 2,
    "TULNKID": "T2",
    "TUTESTCD": "TUMIDENT",
    "TUTEST": "Tumor Identification",
    "TUORRES": "PELVIS",
    "TUSTRESC": "PELVIS",
    "TULOC": "PELVIS",
    "TULAT": "BILATERAL",
    "TUMETHOD": "CT SCAN",
    "TUEVAL": "INVESTIGATOR",
    "TUACPTFL": "Y",
    "VISITNUM": 1,
    "VISIT": "SCREENING",
    "TUDTC": "2021-04-22",
    "TUDY": -7
  },
  {
    "STUDYID": "KN868",
    "DOMAIN": "TU",
    "USUBJID": "KN868-0003-0016",
    "TUSEQ": 3,
    "TULNKID": "T3",
    "TUTESTCD": "TUMIDENT",
    "TUTEST": "Tumor Identification",
    "TUORRES": "PERITONEUM",
    "TUSTRESC": "PERITONEUM",
    "TULOC": "PERITONEUM",
    "TULAT": "RIGHT",
    "TUMETHOD": "CT SCAN",
    "TUEVAL": "INVESTIGATOR",
    "TUACPTFL": "Y",
    "VISITNUM": 1,
    "VISIT": "SCREENING",
    "TUDTC": "2021-04-24",
    "TUDY": -7
  },
  {
    "STUDYID": "KN868",
    "DOMAIN": "TU",
    "USUBJID": "KN868-0003-0017",
    "TUSEQ": 1,
    "TULNKID": "T1",
    "TUTESTCD": "TUMIDENT",
    "TUTEST": "Tumor Identification",
    "TUORRES": "UTERUS",
    "TUSTRESC": "UTERUS",
    "TULOC": "UTERUS",
    "TULAT": "BILATERAL",
    "TUMETHOD": "CT SCAN",
    "TUEVAL": "INVESTIGATOR",
    "TUACPTFL": "Y",
    "VISITNUM": 1,
    "VISIT": "SCREENING",
    "TUDTC": "2021-04-24",
    "TUDY": -7
  },
  {
    "STUDYID": "KN868",
    "DOMAIN": "TU",
    "USUBJID": "KN868-0003-0017",
    "TUSEQ": 2,
    "TULNKID": "T2",
    "TUTESTCD": "TUMIDENT",
    "TUTEST": "Tumor Identification",
    "TUORRES": "PERITONEUM",
    "TUSTRESC": "PERITONEUM",
    "TULOC": "PERITONEUM",
    "TULAT": "",
    "TUMETHOD": "CT SCAN",
    "TUEVAL": "INVESTIGATOR",
    "TUACPTFL": "Y",
    "VISITNUM": 1,
    "VISIT": "SCREENING",
    "TUDTC": "2021-04-20",
    "TUDY": -7
  },
  {
    "STUDYID": "KN868",
    "DOMAIN": "TU",
    "USUBJID": "KN868-0003-0018",
    "TUSEQ": 1,
    "TULNKID": "T1",
    "TUTESTCD": "TUMIDENT",
    "TUTEST": "Tumor Identification",
    "TUORRES": "LYMPH NODE - PARA-AORTIC",
    "TUSTRESC": "LYMPH NODE - PARA-AORTIC",
    "TULOC": "LYMPH NODE - PARA-AORTIC",
    "TULAT": "BILATERAL",
    "TUMETHOD": "CT SCAN",
    "TUEVAL": "INVESTIGATOR",
    "TUACPTFL": "Y",
    "VISITNUM": 1,
    "VISIT": "SCREENING",
    "TUDTC": "2020-03-05",
    "TUDY": -7
  },
  {
    "STUDYID": "KN868",
    "DOMAIN": "TU",
    "USUBJID": "KN868-0003-0018",
    "TUSEQ": 2,
    "TULNKID": "T2",
    "TUTESTCD": "TUMIDENT",
    "TUTEST": "Tumor Identification",
    "TUORRES": "LIVER",
    "TUSTRESC": "LIVER",
    "TULOC": "LIVER",
    "TULAT": "BILATERAL",
    "TUMETHOD": "CT SCAN",
    "TUEVAL": "INVESTIGATOR",
    "TUACPTFL": "Y",
    "VISITNUM": 1,
    "VISIT": "SCREENING",
    "TUDTC": "2020-03-02",
    "TUDY": -7
  },
  {
    "STUDYID": "KN868",
    "DOMAIN": "TU",
    "USUBJID": "KN868-0003-0018",
    "TUSEQ": 3,
    "TULNKID": "T3",
    "TUTESTCD": "TUMIDENT",
    "TUTEST": "Tumor Identification",
    "TUORRES": "OMENTUM",
    "TUSTRESC": "OMENTUM",
    "TULOC": "OMENTUM",
    "TULAT": "RIGHT",
    "TUMETHOD": "CT SCAN",
    "TUEVAL": "INVESTIGATOR",
    "TUACPTFL": "Y",
    "VISITNUM": 1,
    "VISIT": "SCREENING",
    "TUDTC": "2020-03-02",
    "TUDY": -7
  },
  {
    "STUDYID": "KN868",
    "DOMAIN": "TU",
    "USUBJID": "KN868-0003-0018",
    "TUSEQ": 4,
    "TULNKID": "NT1",
    "TUTESTCD": "TUMIDENT",
    "TUTEST": "Tumor Identification",
    "TUORRES": "PELVIS",
    "TUSTRESC": "PELVIS",
    "TULOC": "PELVIS",
    "TULAT": "BILATERAL",
    "TUMETHOD": "CT SCAN",
    "TUEVAL": "INVESTIGATOR",
    "TUACPTFL": "Y",
    "VISITNUM": 1,
    "VISIT": "SCREENING",
    "TUDTC": "2020-02-29",
    "TUDY": -7
  },
  {
    "STUDYID": "KN868",
    "DOMAIN": "TU",
    "USUBJID": "KN868-0003-0018",
    "TUSEQ": 5,
    "TULNKID": "NT2",
    "TUTESTCD": "TUMIDENT",
    "TUTEST": "Tumor Identification",
    "TUORRES": "PERITONEUM",
    "TUSTRESC": "PERITONEUM",
    "TULOC": "PERITONEUM",
    "TULAT": "BILATERAL",
    "TUMETHOD": "CT SCAN",
    "TUEVAL": "INVESTIGATOR",
    "TUACPTFL": "Y",
    "VISITNUM": 1,
    "VISIT": "SCREENING",
    "TUDTC": "2020-03-05",
    "TUDY": -7
  },
  {
    "STUDYID": "KN868",
    "DOMAIN": "TU",
    "USUBJID": "KN868-0003-0019",
    "TUSEQ": 1,
    "TULNKID": "T1",
    "TUTESTCD": "TUMIDENT",
    "TUTEST": "Tumor Identification",
    "TUORRES": "OMENTUM",
    "TUSTRESC": "OMENTUM",
    "TULOC": "OMENTUM",
    "TULAT": "",
    "TUMETHOD": "CT SCAN",
    "TUEVAL": "INVESTIGATOR",
    "TUACPTFL": "Y",
    "VISITNUM": 1,
    "VISIT": "SCREENING",
    "TUDTC": "2021-03-30",
    "TUDY": -7
  },
  {
    "STUDYID": "KN868",
    "DOMAIN": "TU",
    "USUBJID": "KN868-0003-0019",
    "TUSEQ": 2,
    "TULNKID": "T2",
    "TUTESTCD": "TUMIDENT",
    "TUTEST": "Tumor Identification",
    "TUORRES": "PERITONEUM",
    "TUSTRESC": "PERITONEUM",
    "TULOC": "PERITONEUM",
    "TULAT": "RIGHT",
    "TUMETHOD": "CT SCAN",
    "TUEVAL": "INVESTIGATOR",
    "TUACPTFL": "Y",
    "VISITNUM": 1,
    "VISIT": "SCREENING",
    "TUDTC": "2021-04-03",
    "TUDY": -7
  },
  {
    "STUDYID": "KN868",
    "DOMAIN": "TU",
    "USUBJID": "KN868-0003-0019",
    "TUSEQ": 3,
    "TULNKID": "NT1",
    "TUTESTCD": "TUMIDENT",
    "TUTEST": "Tumor Identification",
    "TUORRES": "LYMPH NODE - PELVIC",
    "TUSTRESC": "LYMPH NODE - PELVIC",
    "TULOC": "LYMPH NODE - PELVIC",
    "TULAT": "LEFT",
    "TUMETHOD": "CT SCAN",
    "TUEVAL": "INVESTIGATOR",
    "TUACPTFL": "Y",
    "VISITNUM": 1,
    "VISIT": "SCREENING",
    "TUDTC": "2021-03-31",
    "TUDY": -7
  },
  {
    "STUDYID": "KN868",
    "DOMAIN": "TU",
    "USUBJID": "KN868-0003-0019",
    "TUSEQ": 4,
    "TULNKID": "NT2",
    "TUTESTCD": "TUMIDENT",
    "TUTEST": "Tumor Identification",
    "TUORRES": "UTERUS",
    "TUSTRESC": "UTERUS",
    "TULOC": "UTERUS",
    "TULAT": "BILATERAL",
    "TUMETHOD": "CT SCAN",
    "TUEVAL": "INVESTIGATOR",
    "TUACPTFL": "Y",
    "VISITNUM": 1,
    "VISIT": "SCREENING",
    "TUDTC": "2021-04-03",
    "TUDY": -7
  },
  {
    "STUDYID": "KN868",
    "DOMAIN": "TU",
    "USUBJID": "KN868-0003-0020",
    "TUSEQ": 1,
    "TULNKID": "T1",
    "TUTESTCD": "TUMIDENT",
    "TUTEST": "Tumor Identification",
    "TUORRES": "LYMPH NODE - PELVIC",
    "TUSTRESC": "LYMPH NODE - PELVIC",
    "TULOC": "LYMPH NODE - PELVIC",
    "TULAT": "",
    "TUMETHOD": "CT SCAN",
    "TUEVAL": "INVESTIGATOR",
    "TUACPTFL": "Y",
    "VISITNUM": 1,
    "VISIT": "SCREENING",
    "TUDTC": "2021-08-04",
    "TUDY": -7
  },
  {
    "STUDYID": "KN868",
    "DOMAIN": "TU",
    "USUBJID": "KN868-0003-0020",
    "TUSEQ": 2,
    "TULNKID": "T2",
    "TUTESTCD": "TUMIDENT",
    "TUTEST": "Tumor Identification",
    "TUORRES": "LIVER",
    "TUSTRESC": "LIVER",
    "TULOC": "LIVER",
    "TULAT": "RIGHT",
    "TUMETHOD": "CT SCAN",
    "TUEVAL": "INVESTIGATOR",
    "TUACPTFL": "Y",
    "VISITNUM": 1,
    "VISIT": "SCREENING",
    "TUDTC": "2021-08-10",
    "TUDY": -7
  },
  {
    "STUDYID": "KN868",
    "DOMAIN": "TU",
    "USUBJID": "KN868-0003-0020",
    "TUSEQ": 3,
    "TULNKID": "T3",
    "TUTESTCD": "TUMIDENT",
    "TUTEST": "Tumor Identification",
    "TUORRES": "LUNG",
    "TUSTRESC": "LUNG",
    "TULOC": "LUNG",
    "TULAT": "BILATERAL",
    "TUMETHOD": "CT SCAN",
    "TUEVAL": "INVESTIGATOR",
    "TUACPTFL": "Y",
    "VISITNUM": 1,
    "VISIT": "SCREENING",
    "TUDTC": "2021-08-09",
    "TUDY": -7
  },
  {
    "STUDYID": "KN868",
    "DOMAIN": "TU",
    "USUBJID": "KN868-0003-0020",
    "TUSEQ": 4,
    "TULNKID": "T4",
    "TUTESTCD": "TUMIDENT",
    "TUTEST": "Tumor Identification",
    "TUORRES": "UTERUS",
    "TUSTRESC": "UTERUS",
    "TULOC": "UTERUS",
    "TULAT": "",
    "TUMETHOD": "CT SCAN",
    "TUEVAL": "INVESTIGATOR",
    "TUACPTFL": "Y",
    "VISITNUM": 1,
    "VISIT": "SCREENING",
    "TUDTC": "2021-08-09",
    "TUDY": -7
  },
  {
    "STUDYID": "KN868",
    "DOMAIN": "TU",
    "USUBJID": "KN868-0003-0020",
    "TUSEQ": 5,
    "TULNKID": "NT1",
    "TUTESTCD": "TUMIDENT",
    "TUTEST": "Tumor Identification",
    "TUORRES": "PERITONEUM",
    "TUSTRESC": "PERITONEUM",
    "TULOC": "PERITONEUM",
    "TULAT": "BILATERAL",
    "TUMETHOD": "CT SCAN",
    "TUEVAL": "INVESTIGATOR",
    "TUACPTFL": "Y",
    "VISITNUM": 1,
    "VISIT": "SCREENING",
    "TUDTC": "2021-08-05",
    "TUDY": -7
  },
  {
    "STUDYID": "KN868",
    "DOMAIN": "TU",
    "USUBJID": "KN868-0003-0021",
    "TUSEQ": 1,
    "TULNKID": "T1",
    "TUTESTCD": "TUMIDENT",
    "TUTEST": "Tumor Identification",
    "TUORRES": "VAGINA",
    "TUSTRESC": "VAGINA",
    "TULOC": "VAGINA",
    "TULAT": "RIGHT",
    "TUMETHOD": "CT SCAN",
    "TUEVAL": "INVESTIGATOR",
    "TUACPTFL": "Y",
    "VISITNUM": 1,
    "VISIT": "SCREENING",
    "TUDTC": "2020-06-16",
    "TUDY": -7
  },
  {
    "STUDYID": "KN868",
    "DOMAIN": "TU",
    "USUBJID": "KN868-0003-0021",
    "TUSEQ": 2,
    "TULNKID": "T2",
    "TUTESTCD": "TUMIDENT",
    "TUTEST": "Tumor Identification",
    "TUORRES": "PERITONEUM",
    "TUSTRESC": "PERITONEUM",
    "TULOC": "PERITONEUM",
    "TULAT": "RIGHT",
    "TUMETHOD": "CT SCAN",
    "TUEVAL": "INVESTIGATOR",
    "TUACPTFL": "Y",
    "VISITNUM": 1,
    "VISIT": "SCREENING",
    "TUDTC": "2020-06-11",
    "TUDY": -7
  },
  {
    "STUDYID": "KN868",
    "DOMAIN": "TU",
    "USUBJID": "KN868-0003-0022",
    "TUSEQ": 1,
    "TULNKID": "T1",
    "TUTESTCD": "TUMIDENT",
    "TUTEST": "Tumor Identification",
    "TUORRES": "PERITONEUM",
    "TUSTRESC": "PERITONEUM",
    "TULOC": "PERITONEUM",
    "TULAT": "RIGHT",
    "TUMETHOD": "CT SCAN",
    "TUEVAL": "INVESTIGATOR",
    "TUACPTFL": "Y",
    "VISITNUM": 1,
    "VISIT": "SCREENING",
    "TUDTC": "2021-07-21",
    "TUDY": -7
  },
  {
    "STUDYID": "KN868",
    "DOMAIN": "TU",
    "USUBJID": "KN868-0003-0023",
    "TUSEQ": 1,
    "TULNKID": "T1",
    "TUTESTCD": "TUMIDENT",
    "TUTEST": "Tumor Identification",
    "TUORRES": "LIVER",
    "TUSTRESC": "LIVER",
    "TULOC": "LIVER",
    "TULAT": "",
    "TUMETHOD": "CT SCAN",
    "TUEVAL": "INVESTIGATOR",
    "TUACPTFL": "Y",
    "VISITNUM": 1,
    "VISIT": "SCREENING",
    "TUDTC": "2020-09-29",
    "TUDY": -7
  },
  {
    "STUDYID": "KN868",
    "DOMAIN": "TU",
    "USUBJID": "KN868-0003-0023",
    "TUSEQ": 2,
    "TULNKID": "NT1",
    "TUTESTCD": "TUMIDENT",
    "TUTEST": "Tumor Identification",
    "TUORRES": "UTERUS",
    "TUSTRESC": "UTERUS",
    "TULOC": "UTERUS",
    "TULAT": "BILATERAL",
    "TUMETHOD": "CT SCAN",
    "TUEVAL": "INVESTIGATOR",
    "TUACPTFL": "Y",
    "VISITNUM": 1,
    "VISIT": "SCREENING",
    "TUDTC": "2020-09-22",
    "TUDY": -7
  },
  {
    "STUDYID": "KN868",
    "DOMAIN": "TU",
    "USUBJID": "KN868-0003-0023",
    "TUSEQ": 3,
    "TULNKID": "NT2",
    "TUTESTCD": "TUMIDENT",
    "TUTEST": "Tumor Identification",
    "TUORRES": "OMENTUM",
    "TUSTRESC": "OMENTUM",
    "TULOC": "OMENTUM",
    "TULAT": "LEFT",
    "TUMETHOD": "CT SCAN",
    "TUEVAL": "INVESTIGATOR",
    "TUACPTFL": "Y",
    "VISITNUM": 1,
    "VISIT": "SCREENING",
    "TUDTC": "2020-09-26",
    "TUDY": -7
  },
  {
    "STUDYID": "KN868",
    "DOMAIN": "TU",
    "USUBJID": "KN868-0003-0023",
    "TUSEQ": 4,
    "TULNKID": "NT3",
    "TUTESTCD": "TUMIDENT",
    "TUTEST": "Tumor Identification",
    "TUORRES": "LYMPH NODE - PARA-AORTIC",
    "TUSTRESC": "LYMPH NODE - PARA-AORTIC",
    "TULOC": "LYMPH NODE - PARA-AORTIC",
    "TULAT": "",
    "TUMETHOD": "CT SCAN",
    "TUEVAL": "INVESTIGATOR",
    "TUACPTFL": "Y",
    "VISITNUM": 1,
    "VISIT": "SCREENING",
    "TUDTC": "2020-09-26",
    "TUDY": -7
  },
  {
    "STUDYID": "KN868",
    "DOMAIN": "TU",
    "USUBJID": "KN868-0003-0024",
    "TUSEQ": 1,
    "TULNKID": "T1",
    "TUTESTCD": "TUMIDENT",
    "TUTEST": "Tumor Identification",
    "TUORRES": "OMENTUM",
    "TUSTRESC": "OMENTUM",
    "TULOC": "OMENTUM",
    "TULAT": "BILATERAL",
    "TUMETHOD": "CT SCAN",
    "TUEVAL": "INVESTIGATOR",
    "TUACPTFL": "Y",
    "VISITNUM": 1,
    "VISIT": "SCREENING",
    "TUDTC": "2022-01-03",
    "TUDY": -7
  },
  {
    "STUDYID": "KN868",
    "DOMAIN": "TU",
    "USUBJID": "KN868-0003-0024",
    "TUSEQ": 2,
    "TULNKID": "T2",
    "TUTESTCD": "TUMIDENT",
    "TUTEST": "Tumor Identification",
    "TUORRES": "LUNG",
    "TUSTRESC": "LUNG",
    "TULOC": "LUNG",
    "TULAT": "",
    "TUMETHOD": "CT SCAN",
    "TUEVAL": "INVESTIGATOR",
    "TUACPTFL": "Y",
    "VISITNUM": 1,
    "VISIT": "SCREENING",
    "TUDTC": "2021-12-28",
    "TUDY": -7
  },
  {
    "STUDYID": "KN868",
    "DOMAIN": "TU",
    "USUBJID": "KN868-0003-0024",
    "TUSEQ": 3,
    "TULNKID": "NT1",
    "TUTESTCD": "TUMIDENT",
    "TUTEST": "Tumor Identification",
    "TUORRES": "PELVIS",
    "TUSTRESC": "PELVIS",
    "TULOC": "PELVIS",
    "TULAT": "BILATERAL",
    "TUMETHOD": "CT SCAN",
    "TUEVAL": "INVESTIGATOR",
    "TUACPTFL": "Y",
    "VISITNUM": 1,
    "VISIT": "SCREENING",
    "TUDTC": "2022-01-01",
    "TUDY": -7
  },
  {
    "STUDYID": "KN868",
    "DOMAIN": "TU",
    "USUBJID": "KN868-0003-0025",
    "TUSEQ": 1,
    "TULNKID": "T1",
    "TUTESTCD": "TUMIDENT",
    "TUTEST": "Tumor Identification",
    "TUORRES": "LIVER",
    "TUSTRESC": "LIVER",
    "TULOC": "LIVER",
    "TULAT": "",
    "TUMETHOD": "CT SCAN",
    "TUEVAL": "INVESTIGATOR",
    "TUACPTFL": "Y",
    "VISITNUM": 1,
    "VISIT": "SCREENING",
    "TUDTC": "2021-09-14",
    "TUDY": -7
  },
  {
    "STUDYID": "KN868",
    "DOMAIN": "TU",
    "USUBJID": "KN868-0003-0025",
    "TUSEQ": 2,
    "TULNKID": "T2",
    "TUTESTCD": "TUMIDENT",
    "TUTEST": "Tumor Identification",
    "TUORRES": "LUNG",
    "TUSTRESC": "LUNG",
    "TULOC": "LUNG",
    "TULAT": "",
    "TUMETHOD": "CT SCAN",
    "TUEVAL": "INVESTIGATOR",
    "TUACPTFL": "Y",
    "VISITNUM": 1,
    "VISIT": "SCREENING",
    "TUDTC": "2021-09-13",
    "TUDY": -7
  },
  {
    "STUDYID": "KN868",
    "DOMAIN": "TU",
    "USUBJID": "KN868-0003-0025",
    "TUSEQ": 3,
    "TULNKID": "T3",
    "TUTESTCD": "TUMIDENT",
    "TUTEST": "Tumor Identification",
    "TUORRES": "OMENTUM",
    "TUSTRESC": "OMENTUM",
    "TULOC": "OMENTUM",
    "TULAT": "BILATERAL",
    "TUMETHOD": "CT SCAN",
    "TUEVAL": "INVESTIGATOR",
    "TUACPTFL": "Y",
    "VISITNUM": 1,
    "VISIT": "SCREENING",
    "TUDTC": "2021-09-13",
    "TUDY": -7
  },
  {
    "STUDYID": "KN868",
    "DOMAIN": "TU",
    "USUBJID": "KN868-0003-0025",
    "TUSEQ": 4,
    "TULNKID": "T4",
    "TUTESTCD": "TUMIDENT",
    "TUTEST": "Tumor Identification",
    "TUORRES": "LYMPH NODE - PELVIC",
    "TUSTRESC": "LYMPH NODE - PELVIC",
    "TULOC": "LYMPH NODE - PELVIC",
    "TULAT": "RIGHT",
    "TUMETHOD": "CT SCAN",
    "TUEVAL": "INVESTIGATOR",
    "TUACPTFL": "Y",
    "VISITNUM": 1,
    "VISIT": "SCREENING",
    "TUDTC": "2021-09-11",
    "TUDY": -7
  },
  {
    "STUDYID": "KN868",
    "DOMAIN": "TU",
    "USUBJID": "KN868-0003-0025",
    "TUSEQ": 5,
    "TULNKID": "T5",
    "TUTESTCD": "TUMIDENT",
    "TUTEST": "Tumor Identification",
    "TUORRES": "UTERUS",
    "TUSTRESC": "UTERUS",
    "TULOC": "UTERUS",
    "TULAT": "RIGHT",
    "TUMETHOD": "CT SCAN",
    "TUEVAL": "INVESTIGATOR",
    "TUACPTFL": "Y",
    "VISITNUM": 1,
    "VISIT": "SCREENING",
    "TUDTC": "2021-09-11",
    "TUDY": -7
  },
  {
    "STUDYID": "KN868",
    "DOMAIN": "TU",
    "USUBJID": "KN868-0003-0025",
    "TUSEQ": 6,
    "TULNKID": "NT1",
    "TUTESTCD": "TUMIDENT",
    "TUTEST": "Tumor Identification",
    "TUORRES": "VAGINA",
    "TUSTRESC": "VAGINA",
    "TULOC": "VAGINA",
    "TULAT": "LEFT",
    "TUMETHOD": "CT SCAN",
    "TUEVAL": "INVESTIGATOR",
    "TUACPTFL": "Y",
    "VISITNUM": 1,
    "VISIT": "SCREENING",
    "TUDTC": "2021-09-10",
    "TUDY": -7
  },
  {
    "STUDYID": "KN868",
    "DOMAIN": "TU",
    "USUBJID": "KN868-0003-0026",
    "TUSEQ": 1,
    "TULNKID": "T1",
    "TUTESTCD": "TUMIDENT",
    "TUTEST": "Tumor Identification",
    "TUORRES": "PERITONEUM",
    "TUSTRESC": "PERITONEUM",
    "TULOC": "PERITONEUM",
    "TULAT": "RIGHT",
    "TUMETHOD": "CT SCAN",
    "TUEVAL": "INVESTIGATOR",
    "TUACPTFL": "Y",
    "VISITNUM": 1,
    "VISIT": "SCREENING",
    "TUDTC": "2021-05-21",
    "TUDY": -7
  },
  {
    "STUDYID": "KN868",
    "DOMAIN": "TU",
    "USUBJID": "KN868-0003-0026",
    "TUSEQ": 2,
    "TULNKID": "T2",
    "TUTESTCD": "TUMIDENT",
    "TUTEST": "Tumor Identification",
    "TUORRES": "OMENTUM",
    "TUSTRESC": "OMENTUM",
    "TULOC": "OMENTUM",
    "TULAT": "LEFT",
    "TUMETHOD": "CT SCAN",
    "TUEVAL": "INVESTIGATOR",
    "TUACPTFL": "Y",
    "VISITNUM": 1,
    "VISIT": "SCREENING",
    "TUDTC": "2021-05-18",
    "TUDY": -7
  },
  {
    "STUDYID": "KN868",
    "DOMAIN": "TU",
    "USUBJID": "KN868-0003-0026",
    "TUSEQ": 3,
    "TULNKID": "NT1",
    "TUTESTCD": "TUMIDENT",
    "TUTEST": "Tumor Identification",
    "TUORRES": "LYMPH NODE - PARA-AORTIC",
    "TUSTRESC": "LYMPH NODE - PARA-AORTIC",
    "TULOC": "LYMPH NODE - PARA-AORTIC",
    "TULAT": "",
    "TUMETHOD": "CT SCAN",
    "TUEVAL": "INVESTIGATOR",
    "TUACPTFL": "Y",
    "VISITNUM": 1,
    "VISIT": "SCREENING",
    "TUDTC": "2021-05-18",
    "TUDY": -7
  },
  {
    "STUDYID": "KN868",
    "DOMAIN": "TU",
    "USUBJID": "KN868-0003-0027",
    "TUSEQ": 1,
    "TULNKID": "T1",
    "TUTESTCD": "TUMIDENT",
    "TUTEST": "Tumor Identification",
    "TUORRES": "LIVER",
    "TUSTRESC": "LIVER",
    "TULOC": "LIVER",
    "TULAT": "LEFT",
    "TUMETHOD": "CT SCAN",
    "TUEVAL": "INVESTIGATOR",
    "TUACPTFL": "Y",
    "VISITNUM": 1,
    "VISIT": "SCREENING",
    "TUDTC": "2021-11-25",
    "TUDY": -7
  },
  {
    "STUDYID": "KN868",
    "DOMAIN": "TU",
    "USUBJID": "KN868-0003-0027",
    "TUSEQ": 2,
    "TULNKID": "T2",
    "TUTESTCD": "TUMIDENT",
    "TUTEST": "Tumor Identification",
    "TUORRES": "PERITONEUM",
    "TUSTRESC": "PERITONEUM",
    "TULOC": "PERITONEUM",
    "TULAT": "RIGHT",
    "TUMETHOD": "CT SCAN",
    "TUEVAL": "INVESTIGATOR",
    "TUACPTFL": "Y",
    "VISITNUM": 1,
    "VISIT": "SCREENING",
    "TUDTC": "2021-11-26",
    "TUDY": -7
  },
  {
    "STUDYID": "KN868",
    "DOMAIN": "TU",
    "USUBJID": "KN868-0003-0027",
    "TUSEQ": 3,
    "TULNKID": "T3",
    "TUTESTCD": "TUMIDENT",
    "TUTEST": "Tumor Identification",
    "TUORRES": "LUNG",
    "TUSTRESC": "LUNG",
    "TULOC": "LUNG",
    "TULAT": "LEFT",
    "TUMETHOD": "CT SCAN",
    "TUEVAL": "INVESTIGATOR",
    "TUACPTFL": "Y",
    "VISITNUM": 1,
    "VISIT": "SCREENING",
    "TUDTC": "2021-11-27",
    "TUDY": -7
  },
  {
    "STUDYID": "KN868",
    "DOMAIN": "TU",
    "USUBJID": "KN868-0003-0027",
    "TUSEQ": 4,
    "TULNKID": "NT1",
    "TUTESTCD": "TUMIDENT",
    "TUTEST": "Tumor Identification",
    "TUORRES": "LYMPH NODE - PARA-AORTIC",
    "TUSTRESC": "LYMPH NODE - PARA-AORTIC",
    "TULOC": "LYMPH NODE - PARA-AORTIC",
    "TULAT": "",
    "TUMETHOD": "CT SCAN",
    "TUEVAL": "INVESTIGATOR",
    "TUACPTFL": "Y",
    "VISITNUM": 1,
    "VISIT": "SCREENING",
    "TUDTC": "2021-11-26",
    "TUDY": -7
  },
  {
    "STUDYID": "KN868",
    "DOMAIN": "TU",
    "USUBJID": "KN868-0003-0027",
    "TUSEQ": 5,
    "TULNKID": "NT2",
    "TUTESTCD": "TUMIDENT",
    "TUTEST": "Tumor Identification",
    "TUORRES": "LYMPH NODE - PELVIC",
    "TUSTRESC": "LYMPH NODE - PELVIC",
    "TULOC": "LYMPH NODE - PELVIC",
    "TULAT": "RIGHT",
    "TUMETHOD": "CT SCAN",
    "TUEVAL": "INVESTIGATOR",
    "TUACPTFL": "Y",
    "VISITNUM": 1,
    "VISIT": "SCREENING",
    "TUDTC": "2021-11-25",
    "TUDY": -7
  },
  {
    "STUDYID": "KN868",
    "DOMAIN": "TU",
    "USUBJID": "KN868-0004-0001",
    "TUSEQ": 1,
    "TULNKID": "T1",
    "TUTESTCD": "TUMIDENT",
    "TUTEST": "Tumor Identification",
    "TUORRES": "VAGINA",
    "TUSTRESC": "VAGINA",
    "TULOC": "VAGINA",
    "TULAT": "BILATERAL",
    "TUMETHOD": "CT SCAN",
    "TUEVAL": "INVESTIGATOR",
    "TUACPTFL": "Y",
    "VISITNUM": 1,
    "VISIT": "SCREENING",
    "TUDTC": "2021-06-29",
    "TUDY": -7
  },
  {
    "STUDYID": "KN868",
    "DOMAIN": "TU",
    "USUBJID": "KN868-0004-0001",
    "TUSEQ": 2,
    "TULNKID": "NT1",
    "TUTESTCD": "TUMIDENT",
    "TUTEST": "Tumor Identification",
    "TUORRES": "UTERUS",
    "TUSTRESC": "UTERUS",
    "TULOC": "UTERUS",
    "TULAT": "LEFT",
    "TUMETHOD": "CT SCAN",
    "TUEVAL": "INVESTIGATOR",
    "TUACPTFL": "Y",
    "VISITNUM": 1,
    "VISIT": "SCREENING",
    "TUDTC": "2021-06-27",
    "TUDY": -7
  },
  {
    "STUDYID": "KN868",
    "DOMAIN": "TU",
    "USUBJID": "KN868-0004-0002",
    "TUSEQ": 1,
    "TULNKID": "T1",
    "TUTESTCD": "TUMIDENT",
    "TUTEST": "Tumor Identification",
    "TUORRES": "VAGINA",
    "TUSTRESC": "VAGINA",
    "TULOC": "VAGINA",
    "TULAT": "LEFT",
    "TUMETHOD": "CT SCAN",
    "TUEVAL": "INVESTIGATOR",
    "TUACPTFL": "Y",
    "VISITNUM": 1,
    "VISIT": "SCREENING",
    "TUDTC": "2020-11-30",
    "TUDY": -7
  },
  {
    "STUDYID": "KN868",
    "DOMAIN": "TU",
    "USUBJID": "KN868-0004-0002",
    "TUSEQ": 2,
    "TULNKID": "T2",
    "TUTESTCD": "TUMIDENT",
    "TUTEST": "Tumor Identification",
    "TUORRES": "PERITONEUM",
    "TUSTRESC": "PERITONEUM",
    "TULOC": "PERITONEUM",
    "TULAT": "LEFT",
    "TUMETHOD": "CT SCAN",
    "TUEVAL": "INVESTIGATOR",
    "TUACPTFL": "Y",
    "VISITNUM": 1,
    "VISIT": "SCREENING",
    "TUDTC": "2020-12-02",
    "TUDY": -7
  },
  {
    "STUDYID": "KN868",
    "DOMAIN": "TU",
    "USUBJID": "KN868-0004-0002",
    "TUSEQ": 3,
    "TULNKID": "NT1",
    "TUTESTCD": "TUMIDENT",
    "TUTEST": "Tumor Identification",
    "TUORRES": "LIVER",
    "TUSTRESC": "LIVER",
    "TULOC": "LIVER",
    "TULAT": "BILATERAL",
    "TUMETHOD": "CT SCAN",
    "TUEVAL": "INVESTIGATOR",
    "TUACPTFL": "Y",
    "VISITNUM": 1,
    "VISIT": "SCREENING",
    "TUDTC": "2020-11-25",
    "TUDY": -7
  },
  {
    "STUDYID": "KN868",
    "DOMAIN": "TU",
    "USUBJID": "KN868-0004-0003",
    "TUSEQ": 1,
    "TULNKID": "T1",
    "TUTESTCD": "TUMIDENT",
    "TUTEST": "Tumor Identification",
    "TUORRES": "OMENTUM",
    "TUSTRESC": "OMENTUM",
    "TULOC": "OMENTUM",
    "TULAT": "BILATERAL",
    "TUMETHOD": "CT SCAN",
    "TUEVAL": "INVESTIGATOR",
    "TUACPTFL": "Y",
    "VISITNUM": 1,
    "VISIT": "SCREENING",
    "TUDTC": "2020-09-26",
    "TUDY": -7
  },
  {
    "STUDYID": "KN868",
    "DOMAIN": "TU",
    "USUBJID": "KN868-0004-0003",
    "TUSEQ": 2,
    "TULNKID": "T2",
    "TUTESTCD": "TUMIDENT",
    "TUTEST": "Tumor Identification",
    "TUORRES": "VAGINA",
    "TUSTRESC": "VAGINA",
    "TULOC": "VAGINA",
    "TULAT": "RIGHT",
    "TUMETHOD": "CT SCAN",
    "TUEVAL": "INVESTIGATOR",
    "TUACPTFL": "Y",
    "VISITNUM": 1,
    "VISIT": "SCREENING",
    "TUDTC": "2020-09-22",
    "TUDY": -7
  },
  {
    "STUDYID": "KN868",
    "DOMAIN": "TU",
    "USUBJID": "KN868-0004-0003",
    "TUSEQ": 3,
    "TULNKID": "T3",
    "TUTESTCD": "TUMIDENT",
    "TUTEST": "Tumor Identification",
    "TUORRES": "LYMPH NODE - PARA-AORTIC",
    "TUSTRESC": "LYMPH NODE - PARA-AORTIC",
    "TULOC": "LYMPH NODE - PARA-AORTIC",
    "TULAT": "LEFT",
    "TUMETHOD": "CT SCAN",
    "TUEVAL": "INVESTIGATOR",
    "TUACPTFL": "Y",
    "VISITNUM": 1,
    "VISIT": "SCREENING",
    "TUDTC": "2020-09-24",
    "TUDY": -7
  },
  {
    "STUDYID": "KN868",
    "DOMAIN": "TU",
    "USUBJID": "KN868-0004-0003",
    "TUSEQ": 4,
    "TULNKID": "NT1",
    "TUTESTCD": "TUMIDENT",
    "TUTEST": "Tumor Identification",
    "TUORRES": "PELVIS",
    "TUSTRESC": "PELVIS",
    "TULOC": "PELVIS",
    "TULAT": "BILATERAL",
    "TUMETHOD": "CT SCAN",
    "TUEVAL": "INVESTIGATOR",
    "TUACPTFL": "Y",
    "VISITNUM": 1,
    "VISIT": "SCREENING",
    "TUDTC": "2020-09-22",
    "TUDY": -7
  },
  {
    "STUDYID": "KN868",
    "DOMAIN": "TU",
    "USUBJID": "KN868-0004-0003",
    "TUSEQ": 5,
    "TULNKID": "NT2",
    "TUTESTCD": "TUMIDENT",
    "TUTEST": "Tumor Identification",
    "TUORRES": "PERITONEUM",
    "TUSTRESC": "PERITONEUM",
    "TULOC": "PERITONEUM",
    "TULAT": "RIGHT",
    "TUMETHOD": "CT SCAN",
    "TUEVAL": "INVESTIGATOR",
    "TUACPTFL": "Y",
    "VISITNUM": 1,
    "VISIT": "SCREENING",
    "TUDTC": "2020-09-24",
    "TUDY": -7
  },
  {
    "STUDYID": "KN868",
    "DOMAIN": "TU",
    "USUBJID": "KN868-0004-0004",
    "TUSEQ": 1,
    "TULNKID": "T1",
    "TUTESTCD": "TUMIDENT",
    "TUTEST": "Tumor Identification",
    "TUORRES": "LIVER",
    "TUSTRESC": "LIVER",
    "TULOC": "LIVER",
    "TULAT": "BILATERAL",
    "TUMETHOD": "CT SCAN",
    "TUEVAL": "INVESTIGATOR",
    "TUACPTFL": "Y",
    "VISITNUM": 1,
    "VISIT": "SCREENING",
    "TUDTC": "2022-01-25",
    "TUDY": -7
  },
  {
    "STUDYID": "KN868",
    "DOMAIN": "TU",
    "USUBJID": "KN868-0004-0004",
    "TUSEQ": 2,
    "TULNKID": "T2",
    "TUTESTCD": "TUMIDENT",
    "TUTEST": "Tumor Identification",
    "TUORRES": "LYMPH NODE - PELVIC",
    "TUSTRESC": "LYMPH NODE - PELVIC",
    "TULOC": "LYMPH NODE - PELVIC",
    "TULAT": "BILATERAL",
    "TUMETHOD": "CT SCAN",
    "TUEVAL": "INVESTIGATOR",
    "TUACPTFL": "Y",
    "VISITNUM": 1,
    "VISIT": "SCREENING",
    "TUDTC": "2022-01-29",
    "TUDY": -7
  },
  {
    "STUDYID": "KN868",
    "DOMAIN": "TU",
    "USUBJID": "KN868-0004-0004",
    "TUSEQ": 3,
    "TULNKID": "NT1",
    "TUTESTCD": "TUMIDENT",
    "TUTEST": "Tumor Identification",
    "TUORRES": "LUNG",
    "TUSTRESC": "LUNG",
    "TULOC": "LUNG",
    "TULAT": "RIGHT",
    "TUMETHOD": "CT SCAN",
    "TUEVAL": "INVESTIGATOR",
    "TUACPTFL": "Y",
    "VISITNUM": 1,
    "VISIT": "SCREENING",
    "TUDTC": "2022-01-28",
    "TUDY": -7
  },
  {
    "STUDYID": "KN868",
    "DOMAIN": "TU",
    "USUBJID": "KN868-0004-0004",
    "TUSEQ": 4,
    "TULNKID": "NT2",
    "TUTESTCD": "TUMIDENT",
    "TUTEST": "Tumor Identification",
    "TUORRES": "VAGINA",
    "TUSTRESC": "VAGINA",
    "TULOC": "VAGINA",
    "TULAT": "",
    "TUMETHOD": "CT SCAN",
    "TUEVAL": "INVESTIGATOR",
    "TUACPTFL": "Y",
    "VISITNUM": 1,
    "VISIT": "SCREENING",
    "TUDTC": "2022-01-27",
    "TUDY": -7
  },
  {
    "STUDYID": "KN868",
    "DOMAIN": "TU",
    "USUBJID": "KN868-0004-0005",
    "TUSEQ": 1,
    "TULNKID": "T1",
    "TUTESTCD": "TUMIDENT",
    "TUTEST": "Tumor Identification",
    "TUORRES": "LIVER",
    "TUSTRESC": "LIVER",
    "TULOC": "LIVER",
    "TULAT": "LEFT",
    "TUMETHOD": "CT SCAN",
    "TUEVAL": "INVESTIGATOR",
    "TUACPTFL": "Y",
    "VISITNUM": 1,
    "VISIT": "SCREENING",
    "TUDTC": "2021-02-21",
    "TUDY": -7
  },
  {
    "STUDYID": "KN868",
    "DOMAIN": "TU",
    "USUBJID": "KN868-0004-0005",
    "TUSEQ": 2,
    "TULNKID": "T2",
    "TUTESTCD": "TUMIDENT",
    "TUTEST": "Tumor Identification",
    "TUORRES": "OMENTUM",
    "TUSTRESC": "OMENTUM",
    "TULOC": "OMENTUM",
    "TULAT": "BILATERAL",
    "TUMETHOD": "CT SCAN",
    "TUEVAL": "INVESTIGATOR",
    "TUACPTFL": "Y",
    "VISITNUM": 1,
    "VISIT": "SCREENING",
    "TUDTC": "2021-02-25",
    "TUDY": -7
  },
  {
    "STUDYID": "KN868",
    "DOMAIN": "TU",
    "USUBJID": "KN868-0004-0005",
    "TUSEQ": 3,
    "TULNKID": "T3",
    "TUTESTCD": "TUMIDENT",
    "TUTEST": "Tumor Identification",
    "TUORRES": "PERITONEUM",
    "TUSTRESC": "PERITONEUM",
    "TULOC": "PERITONEUM",
    "TULAT": "BILATERAL",
    "TUMETHOD": "CT SCAN",
    "TUEVAL": "INVESTIGATOR",
    "TUACPTFL": "Y",
    "VISITNUM": 1,
    "VISIT": "SCREENING",
    "TUDTC": "2021-02-21",
    "TUDY": -7
  },
  {
    "STUDYID": "KN868",
    "DOMAIN": "TU",
    "USUBJID": "KN868-0004-0005",
    "TUSEQ": 4,
    "TULNKID": "T4",
    "TUTESTCD": "TUMIDENT",
    "TUTEST": "Tumor Identification",
    "TUORRES": "LYMPH NODE - PELVIC",
    "TUSTRESC": "LYMPH NODE - PELVIC",
    "TULOC": "LYMPH NODE - PELVIC",
    "TULAT": "LEFT",
    "TUMETHOD": "CT SCAN",
    "TUEVAL": "INVESTIGATOR",
    "TUACPTFL": "Y",
    "VISITNUM": 1,
    "VISIT": "SCREENING",
    "TUDTC": "2021-02-22",
    "TUDY": -7
  },
  {
    "STUDYID": "KN868",
    "DOMAIN": "TU",
    "USUBJID": "KN868-0004-0005",
    "TUSEQ": 5,
    "TULNKID": "NT1",
    "TUTESTCD": "TUMIDENT",
    "TUTEST": "Tumor Identification",
    "TUORRES": "LYMPH NODE - PARA-AORTIC",
    "TUSTRESC": "LYMPH NODE - PARA-AORTIC",
    "TULOC": "LYMPH NODE - PARA-AORTIC",
    "TULAT": "RIGHT",
    "TUMETHOD": "CT SCAN",
    "TUEVAL": "INVESTIGATOR",
    "TUACPTFL": "Y",
    "VISITNUM": 1,
    "VISIT": "SCREENING",
    "TUDTC": "2021-02-20",
    "TUDY": -7
  },
  {
    "STUDYID": "KN868",
    "DOMAIN": "TU",
    "USUBJID": "KN868-0004-0005",
    "TUSEQ": 6,
    "TULNKID": "NT2",
    "TUTESTCD": "TUMIDENT",
    "TUTEST": "Tumor Identification",
    "TUORRES": "PELVIS",
    "TUSTRESC": "PELVIS",
    "TULOC": "PELVIS",
    "TULAT": "BILATERAL",
    "TUMETHOD": "CT SCAN",
    "TUEVAL": "INVESTIGATOR",
    "TUACPTFL": "Y",
    "VISITNUM": 1,
    "VISIT": "SCREENING",
    "TUDTC": "2021-02-19",
    "TUDY": -7
  },
  {
    "STUDYID": "KN868",
    "DOMAIN": "TU",
    "USUBJID": "KN868-0004-0006",
    "TUSEQ": 1,
    "TULNKID": "T1",
    "TUTESTCD": "TUMIDENT",
    "TUTEST": "Tumor Identification",
    "TUORRES": "LYMPH NODE - PELVIC",
    "TUSTRESC": "LYMPH NODE - PELVIC",
    "TULOC": "LYMPH NODE - PELVIC",
    "TULAT": "BILATERAL",
    "TUMETHOD": "CT SCAN",
    "TUEVAL": "INVESTIGATOR",
    "TUACPTFL": "Y",
    "VISITNUM": 1,
    "VISIT": "SCREENING",
    "TUDTC": "2021-12-13",
    "TUDY": -7
  },
  {
    "STUDYID": "KN868",
    "DOMAIN": "TU",
    "USUBJID": "KN868-0004-0006",
    "TUSEQ": 2,
    "TULNKID": "NT1",
    "TUTESTCD": "TUMIDENT",
    "TUTEST": "Tumor Identification",
    "TUORRES": "VAGINA",
    "TUSTRESC": "VAGINA",
    "TULOC": "VAGINA",
    "TULAT": "RIGHT",
    "TUMETHOD": "CT SCAN",
    "TUEVAL": "INVESTIGATOR",
    "TUACPTFL": "Y",
    "VISITNUM": 1,
    "VISIT": "SCREENING",
    "TUDTC": "2021-12-15",
    "TUDY": -7
  },
  {
    "STUDYID": "KN868",
    "DOMAIN": "TU",
    "USUBJID": "KN868-0004-0006",
    "TUSEQ": 3,
    "TULNKID": "NT2",
    "TUTESTCD": "TUMIDENT",
    "TUTEST": "Tumor Identification",
    "TUORRES": "LIVER",
    "TUSTRESC": "LIVER",
    "TULOC": "LIVER",
    "TULAT": "",
    "TUMETHOD": "CT SCAN",
    "TUEVAL": "INVESTIGATOR",
    "TUACPTFL": "Y",
    "VISITNUM": 1,
    "VISIT": "SCREENING",
    "TUDTC": "2021-12-15",
    "TUDY": -7
  },
  {
    "STUDYID": "KN868",
    "DOMAIN": "TU",
    "USUBJID": "KN868-0004-0006",
    "TUSEQ": 4,
    "TULNKID": "NT3",
    "TUTESTCD": "TUMIDENT",
    "TUTEST": "Tumor Identification",
    "TUORRES": "PELVIS",
    "TUSTRESC": "PELVIS",
    "TULOC": "PELVIS",
    "TULAT": "RIGHT",
    "TUMETHOD": "CT SCAN",
    "TUEVAL": "INVESTIGATOR",
    "TUACPTFL": "Y",
    "VISITNUM": 1,
    "VISIT": "SCREENING",
    "TUDTC": "2021-12-18",
    "TUDY": -7
  },
  {
    "STUDYID": "KN868",
    "DOMAIN": "TU",
    "USUBJID": "KN868-0004-0007",
    "TUSEQ": 1,
    "TULNKID": "T1",
    "TUTESTCD": "TUMIDENT",
    "TUTEST": "Tumor Identification",
    "TUORRES": "PERITONEUM",
    "TUSTRESC": "PERITONEUM",
    "TULOC": "PERITONEUM",
    "TULAT": "",
    "TUMETHOD": "CT SCAN",
    "TUEVAL": "INVESTIGATOR",
    "TUACPTFL": "Y",
    "VISITNUM": 1,
    "VISIT": "SCREENING",
    "TUDTC": "2021-07-07",
    "TUDY": -7
  },
  {
    "STUDYID": "KN868",
    "DOMAIN": "TU",
    "USUBJID": "KN868-0004-0007",
    "TUSEQ": 2,
    "TULNKID": "T2",
    "TUTESTCD": "TUMIDENT",
    "TUTEST": "Tumor Identification",
    "TUORRES": "UTERUS",
    "TUSTRESC": "UTERUS",
    "TULOC": "UTERUS",
    "TULAT": "LEFT",
    "TUMETHOD": "CT SCAN",
    "TUEVAL": "INVESTIGATOR",
    "TUACPTFL": "Y",
    "VISITNUM": 1,
    "VISIT": "SCREENING",
    "TUDTC": "2021-07-08",
    "TUDY": -7
  },
  {
    "STUDYID": "KN868",
    "DOMAIN": "TU",
    "USUBJID": "KN868-0004-0007",
    "TUSEQ": 3,
    "TULNKID": "T3",
    "TUTESTCD": "TUMIDENT",
    "TUTEST": "Tumor Identification",
    "TUORRES": "LUNG",
    "TUSTRESC": "LUNG",
    "TULOC": "LUNG",
    "TULAT": "LEFT",
    "TUMETHOD": "CT SCAN",
    "TUEVAL": "INVESTIGATOR",
    "TUACPTFL": "Y",
    "VISITNUM": 1,
    "VISIT": "SCREENING",
    "TUDTC": "2021-07-12",
    "TUDY": -7
  },
  {
    "STUDYID": "KN868",
    "DOMAIN": "TU",
    "USUBJID": "KN868-0004-0008",
    "TUSEQ": 1,
    "TULNKID": "T1",
    "TUTESTCD": "TUMIDENT",
    "TUTEST": "Tumor Identification",
    "TUORRES": "PELVIS",
    "TUSTRESC": "PELVIS",
    "TULOC": "PELVIS",
    "TULAT": "BILATERAL",
    "TUMETHOD": "CT SCAN",
    "TUEVAL": "INVESTIGATOR",
    "TUACPTFL": "Y",
    "VISITNUM": 1,
    "VISIT": "SCREENING",
    "TUDTC": "2022-01-23",
    "TUDY": -7
  },
  {
    "STUDYID": "KN868",
    "DOMAIN": "TU",
    "USUBJID": "KN868-0004-0008",
    "TUSEQ": 2,
    "TULNKID": "T2",
    "TUTESTCD": "TUMIDENT",
    "TUTEST": "Tumor Identification",
    "TUORRES": "LYMPH NODE - PARA-AORTIC",
    "TUSTRESC": "LYMPH NODE - PARA-AORTIC",
    "TULOC": "LYMPH NODE - PARA-AORTIC",
    "TULAT": "LEFT",
    "TUMETHOD": "CT SCAN",
    "TUEVAL": "INVESTIGATOR",
    "TUACPTFL": "Y",
    "VISITNUM": 1,
    "VISIT": "SCREENING",
    "TUDTC": "2022-01-25",
    "TUDY": -7
  },
  {
    "STUDYID": "KN868",
    "DOMAIN": "TU",
    "USUBJID": "KN868-0004-0008",
    "TUSEQ": 3,
    "TULNKID": "T3",
    "TUTESTCD": "TUMIDENT",
    "TUTEST": "Tumor Identification",
    "TUORRES": "PERITONEUM",
    "TUSTRESC": "PERITONEUM",
    "TULOC": "PERITONEUM",
    "TULAT": "LEFT",
    "TUMETHOD": "CT SCAN",
    "TUEVAL": "INVESTIGATOR",
    "TUACPTFL": "Y",
    "VISITNUM": 1,
    "VISIT": "SCREENING",
    "TUDTC": "2022-01-22",
    "TUDY": -7
  },
  {
    "STUDYID": "KN868",
    "DOMAIN": "TU",
    "USUBJID": "KN868-0004-0008",
    "TUSEQ": 4,
    "TULNKID": "T4",
    "TUTESTCD": "TUMIDENT",
    "TUTEST": "Tumor Identification",
    "TUORRES": "UTERUS",
    "TUSTRESC": "UTERUS",
    "TULOC": "UTERUS",
    "TULAT": "",
    "TUMETHOD": "CT SCAN",
    "TUEVAL": "INVESTIGATOR",
    "TUACPTFL": "Y",
    "VISITNUM": 1,
    "VISIT": "SCREENING",
    "TUDTC": "2022-01-27",
    "TUDY": -7
  },
  {
    "STUDYID": "KN868",
    "DOMAIN": "TU",
    "USUBJID": "KN868-0004-0008",
    "TUSEQ": 5,
    "TULNKID": "T5",
    "TUTESTCD": "TUMIDENT",
    "TUTEST": "Tumor Identification",
    "TUORRES": "LUNG",
    "TUSTRESC": "LUNG",
    "TULOC": "LUNG",
    "TULAT": "",
    "TUMETHOD": "CT SCAN",
    "TUEVAL": "INVESTIGATOR",
    "TUACPTFL": "Y",
    "VISITNUM": 1,
    "VISIT": "SCREENING",
    "TUDTC": "2022-01-29",
    "TUDY": -7
  },
  {
    "STUDYID": "KN868",
    "DOMAIN": "TU",
    "USUBJID": "KN868-0004-0008",
    "TUSEQ": 6,
    "TULNKID": "NT1",
    "TUTESTCD": "TUMIDENT",
    "TUTEST": "Tumor Identification",
    "TUORRES": "OMENTUM",
    "TUSTRESC": "OMENTUM",
    "TULOC": "OMENTUM",
    "TULAT": "BILATERAL",
    "TUMETHOD": "CT SCAN",
    "TUEVAL": "INVESTIGATOR",
    "TUACPTFL": "Y",
    "VISITNUM": 1,
    "VISIT": "SCREENING",
    "TUDTC": "2022-01-22",
    "TUDY": -7
  },
  {
    "STUDYID": "KN868",
    "DOMAIN": "TU",
    "USUBJID": "KN868-0004-0008",
    "TUSEQ": 7,
    "TULNKID": "NT2",
    "TUTESTCD": "TUMIDENT",
    "TUTEST": "Tumor Identification",
    "TUORRES": "LYMPH NODE - PELVIC",
    "TUSTRESC": "LYMPH NODE - PELVIC",
    "TULOC": "LYMPH NODE - PELVIC",
    "TULAT": "LEFT",
    "TUMETHOD": "CT SCAN",
    "TUEVAL": "INVESTIGATOR",
    "TUACPTFL": "Y",
    "VISITNUM": 1,
    "VISIT": "SCREENING",
    "TUDTC": "2022-01-28",
    "TUDY": -7
  },
  {
    "STUDYID": "KN868",
    "DOMAIN": "TU",
    "USUBJID": "KN868-0004-0008",
    "TUSEQ": 8,
    "TULNKID": "NT3",
    "TUTESTCD": "TUMIDENT",
    "TUTEST": "Tumor Identification",
    "TUORRES": "LIVER",
    "TUSTRESC": "LIVER",
    "TULOC": "LIVER",
    "TULAT": "BILATERAL",
    "TUMETHOD": "CT SCAN",
    "TUEVAL": "INVESTIGATOR",
    "TUACPTFL": "Y",
    "VISITNUM": 1,
    "VISIT": "SCREENING",
    "TUDTC": "2022-01-27",
    "TUDY": -7
  },
  {
    "STUDYID": "KN868",
    "DOMAIN": "TU",
    "USUBJID": "KN868-0004-0009",
    "TUSEQ": 1,
    "TULNKID": "T1",
    "TUTESTCD": "TUMIDENT",
    "TUTEST": "Tumor Identification",
    "TUORRES": "OMENTUM",
    "TUSTRESC": "OMENTUM",
    "TULOC": "OMENTUM",
    "TULAT": "LEFT",
    "TUMETHOD": "CT SCAN",
    "TUEVAL": "INVESTIGATOR",
    "TUACPTFL": "Y",
    "VISITNUM": 1,
    "VISIT": "SCREENING",
    "TUDTC": "2022-02-16",
    "TUDY": -7
  },
  {
    "STUDYID": "KN868",
    "DOMAIN": "TU",
    "USUBJID": "KN868-0004-0009",
    "TUSEQ": 2,
    "TULNKID": "T2",
    "TUTESTCD": "TUMIDENT",
    "TUTEST": "Tumor Identification",
    "TUORRES": "LYMPH NODE - PARA-AORTIC",
    "TUSTRESC": "LYMPH NODE - PARA-AORTIC",
    "TULOC": "LYMPH NODE - PARA-AORTIC",
    "TULAT": "RIGHT",
    "TUMETHOD": "CT SCAN",
    "TUEVAL": "INVESTIGATOR",
    "TUACPTFL": "Y",
    "VISITNUM": 1,
    "VISIT": "SCREENING",
    "TUDTC": "2022-02-14",
    "TUDY": -7
  },
  {
    "STUDYID": "KN868",
    "DOMAIN": "TU",
    "USUBJID": "KN868-0004-0009",
    "TUSEQ": 3,
    "TULNKID": "T3",
    "TUTESTCD": "TUMIDENT",
    "TUTEST": "Tumor Identification",
    "TUORRES": "LYMPH NODE - PELVIC",
    "TUSTRESC": "LYMPH NODE - PELVIC",
    "TULOC": "LYMPH NODE - PELVIC",
    "TULAT": "RIGHT",
    "TUMETHOD": "CT SCAN",
    "TUEVAL": "INVESTIGATOR",
    "TUACPTFL": "Y",
    "VISITNUM": 1,
    "VISIT": "SCREENING",
    "TUDTC": "2022-02-12",
    "TUDY": -7
  },
  {
    "STUDYID": "KN868",
    "DOMAIN": "TU",
    "USUBJID": "KN868-0004-0009",
    "TUSEQ": 4,
    "TULNKID": "T4",
    "TUTESTCD": "TUMIDENT",
    "TUTEST": "Tumor Identification",
    "TUORRES": "PERITONEUM",
    "TUSTRESC": "PERITONEUM",
    "TULOC": "PERITONEUM",
    "TULAT": "LEFT",
    "TUMETHOD": "CT SCAN",
    "TUEVAL": "INVESTIGATOR",
    "TUACPTFL": "Y",
    "VISITNUM": 1,
    "VISIT": "SCREENING",
    "TUDTC": "2022-02-12",
    "TUDY": -7
  },
  {
    "STUDYID": "KN868",
    "DOMAIN": "TU",
    "USUBJID": "KN868-0004-0009",
    "TUSEQ": 5,
    "TULNKID": "T5",
    "TUTESTCD": "TUMIDENT",
    "TUTEST": "Tumor Identification",
    "TUORRES": "UTERUS",
    "TUSTRESC": "UTERUS",
    "TULOC": "UTERUS",
    "TULAT": "LEFT",
    "TUMETHOD": "CT SCAN",
    "TUEVAL": "INVESTIGATOR",
    "TUACPTFL": "Y",
    "VISITNUM": 1,
    "VISIT": "SCREENING",
    "TUDTC": "2022-02-16",
    "TUDY": -7
  },
  {
    "STUDYID": "KN868",
    "DOMAIN": "TU",
    "USUBJID": "KN868-0004-0009",
    "TUSEQ": 6,
    "TULNKID": "NT1",
    "TUTESTCD": "TUMIDENT",
    "TUTEST": "Tumor Identification",
    "TUORRES": "PELVIS",
    "TUSTRESC": "PELVIS",
    "TULOC": "PELVIS",
    "TULAT": "BILATERAL",
    "TUMETHOD": "CT SCAN",
    "TUEVAL": "INVESTIGATOR",
    "TUACPTFL": "Y",
    "VISITNUM": 1,
    "VISIT": "SCREENING",
    "TUDTC": "2022-02-14",
    "TUDY": -7
  },
  {
    "STUDYID": "KN868",
    "DOMAIN": "TU",
    "USUBJID": "KN868-0004-0009",
    "TUSEQ": 7,
    "TULNKID": "NT2",
    "TUTESTCD": "TUMIDENT",
    "TUTEST": "Tumor Identification",
    "TUORRES": "VAGINA",
    "TUSTRESC": "VAGINA",
    "TULOC": "VAGINA",
    "TULAT": "",
    "TUMETHOD": "CT SCAN",
    "TUEVAL": "INVESTIGATOR",
    "TUACPTFL": "Y",
    "VISITNUM": 1,
    "VISIT": "SCREENING",
    "TUDTC": "2022-02-13",
    "TUDY": -7
  },
  {
    "STUDYID": "KN868",
    "DOMAIN": "TU",
    "USUBJID": "KN868-0004-0010",
    "TUSEQ": 1,
    "TULNKID": "T1",
    "TUTESTCD": "TUMIDENT",
    "TUTEST": "Tumor Identification",
    "TUORRES": "LUNG",
    "TUSTRESC": "LUNG",
    "TULOC": "LUNG",
    "TULAT": "RIGHT",
    "TUMETHOD": "CT SCAN",
    "TUEVAL": "INVESTIGATOR",
    "TUACPTFL": "Y",
    "VISITNUM": 1,
    "VISIT": "SCREENING",
    "TUDTC": "2021-04-08",
    "TUDY": -7
  },
  {
    "STUDYID": "KN868",
    "DOMAIN": "TU",
    "USUBJID": "KN868-0004-0010",
    "TUSEQ": 2,
    "TULNKID": "T2",
    "TUTESTCD": "TUMIDENT",
    "TUTEST": "Tumor Identification",
    "TUORRES": "LIVER",
    "TUSTRESC": "LIVER",
    "TULOC": "LIVER",
    "TULAT": "LEFT",
    "TUMETHOD": "CT SCAN",
    "TUEVAL": "INVESTIGATOR",
    "TUACPTFL": "Y",
    "VISITNUM": 1,
    "VISIT": "SCREENING",
    "TUDTC": "2021-04-03",
    "TUDY": -7
  },
  {
    "STUDYID": "KN868",
    "DOMAIN": "TU",
    "USUBJID": "KN868-0004-0011",
    "TUSEQ": 1,
    "TULNKID": "T1",
    "TUTESTCD": "TUMIDENT",
    "TUTEST": "Tumor Identification",
    "TUORRES": "PERITONEUM",
    "TUSTRESC": "PERITONEUM",
    "TULOC": "PERITONEUM",
    "TULAT": "LEFT",
    "TUMETHOD": "CT SCAN",
    "TUEVAL": "INVESTIGATOR",
    "TUACPTFL": "Y",
    "VISITNUM": 1,
    "VISIT": "SCREENING",
    "TUDTC": "2021-07-06",
    "TUDY": -7
  },
  {
    "STUDYID": "KN868",
    "DOMAIN": "TU",
    "USUBJID": "KN868-0004-0011",
    "TUSEQ": 2,
    "TULNKID": "NT1",
    "TUTESTCD": "TUMIDENT",
    "TUTEST": "Tumor Identification",
    "TUORRES": "UTERUS",
    "TUSTRESC": "UTERUS",
    "TULOC": "UTERUS",
    "TULAT": "",
    "TUMETHOD": "CT SCAN",
    "TUEVAL": "INVESTIGATOR",
    "TUACPTFL": "Y",
    "VISITNUM": 1,
    "VISIT": "SCREENING",
    "TUDTC": "2021-07-02",
    "TUDY": -7
  },
  {
    "STUDYID": "KN868",
    "DOMAIN": "TU",
    "USUBJID": "KN868-0004-0012",
    "TUSEQ": 1,
    "TULNKID": "T1",
    "TUTESTCD": "TUMIDENT",
    "TUTEST": "Tumor Identification",
    "TUORRES": "LYMPH NODE - PARA-AORTIC",
    "TUSTRESC": "LYMPH NODE - PARA-AORTIC",
    "TULOC": "LYMPH NODE - PARA-AORTIC",
    "TULAT": "LEFT",
    "TUMETHOD": "CT SCAN",
    "TUEVAL": "INVESTIGATOR",
    "TUACPTFL": "Y",
    "VISITNUM": 1,
    "VISIT": "SCREENING",
    "TUDTC": "2020-07-14",
    "TUDY": -7
  },
  {
    "STUDYID": "KN868",
    "DOMAIN": "TU",
    "USUBJID": "KN868-0004-0012",
    "TUSEQ": 2,
    "TULNKID": "T2",
    "TUTESTCD": "TUMIDENT",
    "TUTEST": "Tumor Identification",
    "TUORRES": "LIVER",
    "TUSTRESC": "LIVER",
    "TULOC": "LIVER",
    "TULAT": "BILATERAL",
    "TUMETHOD": "CT SCAN",
    "TUEVAL": "INVESTIGATOR",
    "TUACPTFL": "Y",
    "VISITNUM": 1,
    "VISIT": "SCREENING",
    "TUDTC": "2020-07-16",
    "TUDY": -7
  },
  {
    "STUDYID": "KN868",
    "DOMAIN": "TU",
    "USUBJID": "KN868-0004-0012",
    "TUSEQ": 3,
    "TULNKID": "T3",
    "TUTESTCD": "TUMIDENT",
    "TUTEST": "Tumor Identification",
    "TUORRES": "LYMPH NODE - PELVIC",
    "TUSTRESC": "LYMPH NODE - PELVIC",
    "TULOC": "LYMPH NODE - PELVIC",
    "TULAT": "LEFT",
    "TUMETHOD": "CT SCAN",
    "TUEVAL": "INVESTIGATOR",
    "TUACPTFL": "Y",
    "VISITNUM": 1,
    "VISIT": "SCREENING",
    "TUDTC": "2020-07-17",
    "TUDY": -7
  },
  {
    "STUDYID": "KN868",
    "DOMAIN": "TU",
    "USUBJID": "KN868-0004-0012",
    "TUSEQ": 4,
    "TULNKID": "NT1",
    "TUTESTCD": "TUMIDENT",
    "TUTEST": "Tumor Identification",
    "TUORRES": "VAGINA",
    "TUSTRESC": "VAGINA",
    "TULOC": "VAGINA",
    "TULAT": "BILATERAL",
    "TUMETHOD": "CT SCAN",
    "TUEVAL": "INVESTIGATOR",
    "TUACPTFL": "Y",
    "VISITNUM": 1,
    "VISIT": "SCREENING",
    "TUDTC": "2020-07-16",
    "TUDY": -7
  },
  {
    "STUDYID": "KN868",
    "DOMAIN": "TU",
    "USUBJID": "KN868-0004-0013",
    "TUSEQ": 1,
    "TULNKID": "T1",
    "TUTESTCD": "TUMIDENT",
    "TUTEST": "Tumor Identification",
    "TUORRES": "LIVER",
    "TUSTRESC": "LIVER",
    "TULOC": "LIVER",
    "TULAT": "LEFT",
    "TUMETHOD": "CT SCAN",
    "TUEVAL": "INVESTIGATOR",
    "TUACPTFL": "Y",
    "VISITNUM": 1,
    "VISIT": "SCREENING",
    "TUDTC": "2021-12-29",
    "TUDY": -7
  },
  {
    "STUDYID": "KN868",
    "DOMAIN": "TU",
    "USUBJID": "KN868-0004-0013",
    "TUSEQ": 2,
    "TULNKID": "T2",
    "TUTESTCD": "TUMIDENT",
    "TUTEST": "Tumor Identification",
    "TUORRES": "VAGINA",
    "TUSTRESC": "VAGINA",
    "TULOC": "VAGINA",
    "TULAT": "RIGHT",
    "TUMETHOD": "CT SCAN",
    "TUEVAL": "INVESTIGATOR",
    "TUACPTFL": "Y",
    "VISITNUM": 1,
    "VISIT": "SCREENING",
    "TUDTC": "2021-12-25",
    "TUDY": -7
  },
  {
    "STUDYID": "KN868",
    "DOMAIN": "TU",
    "USUBJID": "KN868-0004-0013",
    "TUSEQ": 3,
    "TULNKID": "T3",
    "TUTESTCD": "TUMIDENT",
    "TUTEST": "Tumor Identification",
    "TUORRES": "LYMPH NODE - PARA-AORTIC",
    "TUSTRESC": "LYMPH NODE - PARA-AORTIC",
    "TULOC": "LYMPH NODE - PARA-AORTIC",
    "TULAT": "LEFT",
    "TUMETHOD": "CT SCAN",
    "TUEVAL": "INVESTIGATOR",
    "TUACPTFL": "Y",
    "VISITNUM": 1,
    "VISIT": "SCREENING",
    "TUDTC": "2022-01-01",
    "TUDY": -7
  },
  {
    "STUDYID": "KN868",
    "DOMAIN": "TU",
    "USUBJID": "KN868-0004-0013",
    "TUSEQ": 4,
    "TULNKID": "NT1",
    "TUTESTCD": "TUMIDENT",
    "TUTEST": "Tumor Identification",
    "TUORRES": "LUNG",
    "TUSTRESC": "LUNG",
    "TULOC": "LUNG",
    "TULAT": "RIGHT",
    "TUMETHOD": "CT SCAN",
    "TUEVAL": "INVESTIGATOR",
    "TUACPTFL": "Y",
    "VISITNUM": 1,
    "VISIT": "SCREENING",
    "TUDTC": "2022-01-01",
    "TUDY": -7
  },
  {
    "STUDYID": "KN868",
    "DOMAIN": "TU",
    "USUBJID": "KN868-0004-0013",
    "TUSEQ": 5,
    "TULNKID": "NT2",
    "TUTESTCD": "TUMIDENT",
    "TUTEST": "Tumor Identification",
    "TUORRES": "PELVIS",
    "TUSTRESC": "PELVIS",
    "TULOC": "PELVIS",
    "TULAT": "",
    "TUMETHOD": "CT SCAN",
    "TUEVAL": "INVESTIGATOR",
    "TUACPTFL": "Y",
    "VISITNUM": 1,
    "VISIT": "SCREENING",
    "TUDTC": "2021-12-27",
    "TUDY": -7
  },
  {
    "STUDYID": "KN868",
    "DOMAIN": "TU",
    "USUBJID": "KN868-0004-0014",
    "TUSEQ": 1,
    "TULNKID": "T1",
    "TUTESTCD": "TUMIDENT",
    "TUTEST": "Tumor Identification",
    "TUORRES": "PELVIS",
    "TUSTRESC": "PELVIS",
    "TULOC": "PELVIS",
    "TULAT": "RIGHT",
    "TUMETHOD": "CT SCAN",
    "TUEVAL": "INVESTIGATOR",
    "TUACPTFL": "Y",
    "VISITNUM": 1,
    "VISIT": "SCREENING",
    "TUDTC": "2021-02-09",
    "TUDY": -7
  },
  {
    "STUDYID": "KN868",
    "DOMAIN": "TU",
    "USUBJID": "KN868-0004-0014",
    "TUSEQ": 2,
    "TULNKID": "T2",
    "TUTESTCD": "TUMIDENT",
    "TUTEST": "Tumor Identification",
    "TUORRES": "OMENTUM",
    "TUSTRESC": "OMENTUM",
    "TULOC": "OMENTUM",
    "TULAT": "",
    "TUMETHOD": "CT SCAN",
    "TUEVAL": "INVESTIGATOR",
    "TUACPTFL": "Y",
    "VISITNUM": 1,
    "VISIT": "SCREENING",
    "TUDTC": "2021-02-15",
    "TUDY": -7
  },
  {
    "STUDYID": "KN868",
    "DOMAIN": "TU",
    "USUBJID": "KN868-0004-0014",
    "TUSEQ": 3,
    "TULNKID": "T3",
    "TUTESTCD": "TUMIDENT",
    "TUTEST": "Tumor Identification",
    "TUORRES": "PERITONEUM",
    "TUSTRESC": "PERITONEUM",
    "TULOC": "PERITONEUM",
    "TULAT": "BILATERAL",
    "TUMETHOD": "CT SCAN",
    "TUEVAL": "INVESTIGATOR",
    "TUACPTFL": "Y",
    "VISITNUM": 1,
    "VISIT": "SCREENING",
    "TUDTC": "2021-02-12",
    "TUDY": -7
  },
  {
    "STUDYID": "KN868",
    "DOMAIN": "TU",
    "USUBJID": "KN868-0004-0014",
    "TUSEQ": 4,
    "TULNKID": "T4",
    "TUTESTCD": "TUMIDENT",
    "TUTEST": "Tumor Identification",
    "TUORRES": "UTERUS",
    "TUSTRESC": "UTERUS",
    "TULOC": "UTERUS",
    "TULAT": "RIGHT",
    "TUMETHOD": "CT SCAN",
    "TUEVAL": "INVESTIGATOR",
    "TUACPTFL": "Y",
    "VISITNUM": 1,
    "VISIT": "SCREENING",
    "TUDTC": "2021-02-13",
    "TUDY": -7
  },
  {
    "STUDYID": "KN868",
    "DOMAIN": "TU",
    "USUBJID": "KN868-0004-0014",
    "TUSEQ": 5,
    "TULNKID": "T5",
    "TUTESTCD": "TUMIDENT",
    "TUTEST": "Tumor Identification",
    "TUORRES": "LUNG",
    "TUSTRESC": "LUNG",
    "TULOC": "LUNG",
    "TULAT": "BILATERAL",
    "TUMETHOD": "CT SCAN",
    "TUEVAL": "INVESTIGATOR",
    "TUACPTFL": "Y",
    "VISITNUM": 1,
    "VISIT": "SCREENING",
    "TUDTC": "2021-02-14",
    "TUDY": -7
  },
  {
    "STUDYID": "KN868",
    "DOMAIN": "TU",
    "USUBJID": "KN868-0004-0014",
    "TUSEQ": 6,
    "TULNKID": "NT1",
    "TUTESTCD": "TUMIDENT",
    "TUTEST": "Tumor Identification",
    "TUORRES": "LYMPH NODE - PELVIC",
    "TUSTRESC": "LYMPH NODE - PELVIC",
    "TULOC": "LYMPH NODE - PELVIC",
    "TULAT": "RIGHT",
    "TUMETHOD": "CT SCAN",
    "TUEVAL": "INVESTIGATOR",
    "TUACPTFL": "Y",
    "VISITNUM": 1,
    "VISIT": "SCREENING",
    "TUDTC": "2021-02-14",
    "TUDY": -7
  },
  {
    "STUDYID": "KN868",
    "DOMAIN": "TU",
    "USUBJID": "KN868-0004-0015",
    "TUSEQ": 1,
    "TULNKID": "T1",
    "TUTESTCD": "TUMIDENT",
    "TUTEST": "Tumor Identification",
    "TUORRES": "UTERUS",
    "TUSTRESC": "UTERUS",
    "TULOC": "UTERUS",
    "TULAT": "LEFT",
    "TUMETHOD": "CT SCAN",
    "TUEVAL": "INVESTIGATOR",
    "TUACPTFL": "Y",
    "VISITNUM": 1,
    "VISIT": "SCREENING",
    "TUDTC": "2020-04-01",
    "TUDY": -7
  },
  {
    "STUDYID": "KN868",
    "DOMAIN": "TU",
    "USUBJID": "KN868-0004-0015",
    "TUSEQ": 2,
    "TULNKID": "T2",
    "TUTESTCD": "TUMIDENT",
    "TUTEST": "Tumor Identification",
    "TUORRES": "LYMPH NODE - PARA-AORTIC",
    "TUSTRESC": "LYMPH NODE - PARA-AORTIC",
    "TULOC": "LYMPH NODE - PARA-AORTIC",
    "TULAT": "BILATERAL",
    "TUMETHOD": "CT SCAN",
    "TUEVAL": "INVESTIGATOR",
    "TUACPTFL": "Y",
    "VISITNUM": 1,
    "VISIT": "SCREENING",
    "TUDTC": "2020-04-02",
    "TUDY": -7
  },
  {
    "STUDYID": "KN868",
    "DOMAIN": "TU",
    "USUBJID": "KN868-0004-0015",
    "TUSEQ": 3,
    "TULNKID": "NT1",
    "TUTESTCD": "TUMIDENT",
    "TUTEST": "Tumor Identification",
    "TUORRES": "LUNG",
    "TUSTRESC": "LUNG",
    "TULOC": "LUNG",
    "TULAT": "BILATERAL",
    "TUMETHOD": "CT SCAN",
    "TUEVAL": "INVESTIGATOR",
    "TUACPTFL": "Y",
    "VISITNUM": 1,
    "VISIT": "SCREENING",
    "TUDTC": "2020-03-27",
    "TUDY": -7
  },
  {
    "STUDYID": "KN868",
    "DOMAIN": "TU",
    "USUBJID": "KN868-0004-0016",
    "TUSEQ": 1,
    "TULNKID": "T1",
    "TUTESTCD": "TUMIDENT",
    "TUTEST": "Tumor Identification",
    "TUORRES": "PELVIS",
    "TUSTRESC": "PELVIS",
    "TULOC": "PELVIS",
    "TULAT": "RIGHT",
    "TUMETHOD": "CT SCAN",
    "TUEVAL": "INVESTIGATOR",
    "TUACPTFL": "Y",
    "VISITNUM": 1,
    "VISIT": "SCREENING",
    "TUDTC": "2021-10-25",
    "TUDY": -7
  },
  {
    "STUDYID": "KN868",
    "DOMAIN": "TU",
    "USUBJID": "KN868-0004-0016",
    "TUSEQ": 2,
    "TULNKID": "T2",
    "TUTESTCD": "TUMIDENT",
    "TUTEST": "Tumor Identification",
    "TUORRES": "PERITONEUM",
    "TUSTRESC": "PERITONEUM",
    "TULOC": "PERITONEUM",
    "TULAT": "RIGHT",
    "TUMETHOD": "CT SCAN",
    "TUEVAL": "INVESTIGATOR",
    "TUACPTFL": "Y",
    "VISITNUM": 1,
    "VISIT": "SCREENING",
    "TUDTC": "2021-10-28",
    "TUDY": -7
  },
  {
    "STUDYID": "KN868",
    "DOMAIN": "TU",
    "USUBJID": "KN868-0004-0017",
    "TUSEQ": 1,
    "TULNKID": "T1",
    "TUTESTCD": "TUMIDENT",
    "TUTEST": "Tumor Identification",
    "TUORRES": "LYMPH NODE - PARA-AORTIC",
    "TUSTRESC": "LYMPH NODE - PARA-AORTIC",
    "TULOC": "LYMPH NODE - PARA-AORTIC",
    "TULAT": "LEFT",
    "TUMETHOD": "CT SCAN",
    "TUEVAL": "INVESTIGATOR",
    "TUACPTFL": "Y",
    "VISITNUM": 1,
    "VISIT": "SCREENING",
    "TUDTC": "2022-01-12",
    "TUDY": -7
  },
  {
    "STUDYID": "KN868",
    "DOMAIN": "TU",
    "USUBJID": "KN868-0004-0017",
    "TUSEQ": 2,
    "TULNKID": "NT1",
    "TUTESTCD": "TUMIDENT",
    "TUTEST": "Tumor Identification",
    "TUORRES": "UTERUS",
    "TUSTRESC": "UTERUS",
    "TULOC": "UTERUS",
    "TULAT": "RIGHT",
    "TUMETHOD": "CT SCAN",
    "TUEVAL": "INVESTIGATOR",
    "TUACPTFL": "Y",
    "VISITNUM": 1,
    "VISIT": "SCREENING",
    "TUDTC": "2022-01-06",
    "TUDY": -7
  },
  {
    "STUDYID": "KN868",
    "DOMAIN": "TU",
    "USUBJID": "KN868-0004-0017",
    "TUSEQ": 3,
    "TULNKID": "NT2",
    "TUTESTCD": "TUMIDENT",
    "TUTEST": "Tumor Identification",
    "TUORRES": "PELVIS",
    "TUSTRESC": "PELVIS",
    "TULOC": "PELVIS",
    "TULAT": "",
    "TUMETHOD": "CT SCAN",
    "TUEVAL": "INVESTIGATOR",
    "TUACPTFL": "Y",
    "VISITNUM": 1,
    "VISIT": "SCREENING",
    "TUDTC": "2022-01-07",
    "TUDY": -7
  },
  {
    "STUDYID": "KN868",
    "DOMAIN": "TU",
    "USUBJID": "KN868-0004-0018",
    "TUSEQ": 1,
    "TULNKID": "T1",
    "TUTESTCD": "TUMIDENT",
    "TUTEST": "Tumor Identification",
    "TUORRES": "VAGINA",
    "TUSTRESC": "VAGINA",
    "TULOC": "VAGINA",
    "TULAT": "BILATERAL",
    "TUMETHOD": "CT SCAN",
    "TUEVAL": "INVESTIGATOR",
    "TUACPTFL": "Y",
    "VISITNUM": 1,
    "VISIT": "SCREENING",
    "TUDTC": "2020-11-05",
    "TUDY": -7
  },
  {
    "STUDYID": "KN868",
    "DOMAIN": "TU",
    "USUBJID": "KN868-0004-0018",
    "TUSEQ": 2,
    "TULNKID": "NT1",
    "TUTESTCD": "TUMIDENT",
    "TUTEST": "Tumor Identification",
    "TUORRES": "PELVIS",
    "TUSTRESC": "PELVIS",
    "TULOC": "PELVIS",
    "TULAT": "RIGHT",
    "TUMETHOD": "CT SCAN",
    "TUEVAL": "INVESTIGATOR",
    "TUACPTFL": "Y",
    "VISITNUM": 1,
    "VISIT": "SCREENING",
    "TUDTC": "2020-11-05",
    "TUDY": -7
  },
  {
    "STUDYID": "KN868",
    "DOMAIN": "TU",
    "USUBJID": "KN868-0004-0018",
    "TUSEQ": 3,
    "TULNKID": "NT2",
    "TUTESTCD": "TUMIDENT",
    "TUTEST": "Tumor Identification",
    "TUORRES": "LUNG",
    "TUSTRESC": "LUNG",
    "TULOC": "LUNG",
    "TULAT": "LEFT",
    "TUMETHOD": "CT SCAN",
    "TUEVAL": "INVESTIGATOR",
    "TUACPTFL": "Y",
    "VISITNUM": 1,
    "VISIT": "SCREENING",
    "TUDTC": "2020-11-06",
    "TUDY": -7
  },
  {
    "STUDYID": "KN868",
    "DOMAIN": "TU",
    "USUBJID": "KN868-0004-0019",
    "TUSEQ": 1,
    "TULNKID": "T1",
    "TUTESTCD": "TUMIDENT",
    "TUTEST": "Tumor Identification",
    "TUORRES": "LIVER",
    "TUSTRESC": "LIVER",
    "TULOC": "LIVER",
    "TULAT": "LEFT",
    "TUMETHOD": "CT SCAN",
    "TUEVAL": "INVESTIGATOR",
    "TUACPTFL": "Y",
    "VISITNUM": 1,
    "VISIT": "SCREENING",
    "TUDTC": "2021-12-05",
    "TUDY": -7
  },
  {
    "STUDYID": "KN868",
    "DOMAIN": "TU",
    "USUBJID": "KN868-0004-0019",
    "TUSEQ": 2,
    "TULNKID": "T2",
    "TUTESTCD": "TUMIDENT",
    "TUTEST": "Tumor Identification",
    "TUORRES": "PELVIS",
    "TUSTRESC": "PELVIS",
    "TULOC": "PELVIS",
    "TULAT": "BILATERAL",
    "TUMETHOD": "CT SCAN",
    "TUEVAL": "INVESTIGATOR",
    "TUACPTFL": "Y",
    "VISITNUM": 1,
    "VISIT": "SCREENING",
    "TUDTC": "2021-11-30",
    "TUDY": -7
  },
  {
    "STUDYID": "KN868",
    "DOMAIN": "TU",
    "USUBJID": "KN868-0004-0019",
    "TUSEQ": 3,
    "TULNKID": "T3",
    "TUTESTCD": "TUMIDENT",
    "TUTEST": "Tumor Identification",
    "TUORRES": "UTERUS",
    "TUSTRESC": "UTERUS",
    "TULOC": "UTERUS",
    "TULAT": "BILATERAL",
    "TUMETHOD": "CT SCAN",
    "TUEVAL": "INVESTIGATOR",
    "TUACPTFL": "Y",
    "VISITNUM": 1,
    "VISIT": "SCREENING",
    "TUDTC": "2021-12-05",
    "TUDY": -7
  },
  {
    "STUDYID": "KN868",
    "DOMAIN": "TU",
    "USUBJID": "KN868-0004-0019",
    "TUSEQ": 4,
    "TULNKID": "NT1",
    "TUTESTCD": "TUMIDENT",
    "TUTEST": "Tumor Identification",
    "TUORRES": "OMENTUM",
    "TUSTRESC": "OMENTUM",
    "TULOC": "OMENTUM",
    "TULAT": "BILATERAL",
    "TUMETHOD": "CT SCAN",
    "TUEVAL": "INVESTIGATOR",
    "TUACPTFL": "Y",
    "VISITNUM": 1,
    "VISIT": "SCREENING",
    "TUDTC": "2021-12-03",
    "TUDY": -7
  },
  {
    "STUDYID": "KN868",
    "DOMAIN": "TU",
    "USUBJID": "KN868-0004-0020",
    "TUSEQ": 1,
    "TULNKID": "T1",
    "TUTESTCD": "TUMIDENT",
    "TUTEST": "Tumor Identification",
    "TUORRES": "VAGINA",
    "TUSTRESC": "VAGINA",
    "TULOC": "VAGINA",
    "TULAT": "RIGHT",
    "TUMETHOD": "CT SCAN",
    "TUEVAL": "INVESTIGATOR",
    "TUACPTFL": "Y",
    "VISITNUM": 1,
    "VISIT": "SCREENING",
    "TUDTC": "2021-10-24",
    "TUDY": -7
  },
  {
    "STUDYID": "KN868",
    "DOMAIN": "TU",
    "USUBJID": "KN868-0004-0020",
    "TUSEQ": 2,
    "TULNKID": "T2",
    "TUTESTCD": "TUMIDENT",
    "TUTEST": "Tumor Identification",
    "TUORRES": "PERITONEUM",
    "TUSTRESC": "PERITONEUM",
    "TULOC": "PERITONEUM",
    "TULAT": "BILATERAL",
    "TUMETHOD": "CT SCAN",
    "TUEVAL": "INVESTIGATOR",
    "TUACPTFL": "Y",
    "VISITNUM": 1,
    "VISIT": "SCREENING",
    "TUDTC": "2021-10-26",
    "TUDY": -7
  },
  {
    "STUDYID": "KN868",
    "DOMAIN": "TU",
    "USUBJID": "KN868-0004-0021",
    "TUSEQ": 1,
    "TULNKID": "T1",
    "TUTESTCD": "TUMIDENT",
    "TUTEST": "Tumor Identification",
    "TUORRES": "LYMPH NODE - PELVIC",
    "TUSTRESC": "LYMPH NODE - PELVIC",
    "TULOC": "LYMPH NODE - PELVIC",
    "TULAT": "LEFT",
    "TUMETHOD": "CT SCAN",
    "TUEVAL": "INVESTIGATOR",
    "TUACPTFL": "Y",
    "VISITNUM": 1,
    "VISIT": "SCREENING",
    "TUDTC": "2020-10-11",
    "TUDY": -7
  },
  {
    "STUDYID": "KN868",
    "DOMAIN": "TU",
    "USUBJID": "KN868-0004-0021",
    "TUSEQ": 2,
    "TULNKID": "T2",
    "TUTESTCD": "TUMIDENT",
    "TUTEST": "Tumor Identification",
    "TUORRES": "LYMPH NODE - PARA-AORTIC",
    "TUSTRESC": "LYMPH NODE - PARA-AORTIC",
    "TULOC": "LYMPH NODE - PARA-AORTIC",
    "TULAT": "LEFT",
    "TUMETHOD": "CT SCAN",
    "TUEVAL": "INVESTIGATOR",
    "TUACPTFL": "Y",
    "VISITNUM": 1,
    "VISIT": "SCREENING",
    "TUDTC": "2020-10-14",
    "TUDY": -7
  },
  {
    "STUDYID": "KN868",
    "DOMAIN": "TU",
    "USUBJID": "KN868-0004-0021",
    "TUSEQ": 3,
    "TULNKID": "T3",
    "TUTESTCD": "TUMIDENT",
    "TUTEST": "Tumor Identification",
    "TUORRES": "OMENTUM",
    "TUSTRESC": "OMENTUM",
    "TULOC": "OMENTUM",
    "TULAT": "",
    "TUMETHOD": "CT SCAN",
    "TUEVAL": "INVESTIGATOR",
    "TUACPTFL": "Y",
    "VISITNUM": 1,
    "VISIT": "SCREENING",
    "TUDTC": "2020-10-12",
    "TUDY": -7
  },
  {
    "STUDYID": "KN868",
    "DOMAIN": "TU",
    "USUBJID": "KN868-0004-0021",
    "TUSEQ": 4,
    "TULNKID": "T4",
    "TUTESTCD": "TUMIDENT",
    "TUTEST": "Tumor Identification",
    "TUORRES": "LUNG",
    "TUSTRESC": "LUNG",
    "TULOC": "LUNG",
    "TULAT": "BILATERAL",
    "TUMETHOD": "CT SCAN",
    "TUEVAL": "INVESTIGATOR",
    "TUACPTFL": "Y",
    "VISITNUM": 1,
    "VISIT": "SCREENING",
    "TUDTC": "2020-10-12",
    "TUDY": -7
  },
  {
    "STUDYID": "KN868",
    "DOMAIN": "TU",
    "USUBJID": "KN868-0004-0021",
    "TUSEQ": 5,
    "TULNKID": "T5",
    "TUTESTCD": "TUMIDENT",
    "TUTEST": "Tumor Identification",
    "TUORRES": "UTERUS",
    "TUSTRESC": "UTERUS",
    "TULOC": "UTERUS",
    "TULAT": "",
    "TUMETHOD": "CT SCAN",
    "TUEVAL": "INVESTIGATOR",
    "TUACPTFL": "Y",
    "VISITNUM": 1,
    "VISIT": "SCREENING",
    "TUDTC": "2020-10-17",
    "TUDY": -7
  },
  {
    "STUDYID": "KN868",
    "DOMAIN": "TU",
    "USUBJID": "KN868-0004-0021",
    "TUSEQ": 6,
    "TULNKID": "NT1",
    "TUTESTCD": "TUMIDENT",
    "TUTEST": "Tumor Identification",
    "TUORRES": "PELVIS",
    "TUSTRESC": "PELVIS",
    "TULOC": "PELVIS",
    "TULAT": "LEFT",
    "TUMETHOD": "CT SCAN",
    "TUEVAL": "INVESTIGATOR",
    "TUACPTFL": "Y",
    "VISITNUM": 1,
    "VISIT": "SCREENING",
    "TUDTC": "2020-10-16",
    "TUDY": -7
  },
  {
    "STUDYID": "KN868",
    "DOMAIN": "TU",
    "USUBJID": "KN868-0004-0022",
    "TUSEQ": 1,
    "TULNKID": "T1",
    "TUTESTCD": "TUMIDENT",
    "TUTEST": "Tumor Identification",
    "TUORRES": "PERITONEUM",
    "TUSTRESC": "PERITONEUM",
    "TULOC": "PERITONEUM",
    "TULAT": "",
    "TUMETHOD": "CT SCAN",
    "TUEVAL": "INVESTIGATOR",
    "TUACPTFL": "Y",
    "VISITNUM": 1,
    "VISIT": "SCREENING",
    "TUDTC": "2021-09-09",
    "TUDY": -7
  },
  {
    "STUDYID": "KN868",
    "DOMAIN": "TU",
    "USUBJID": "KN868-0004-0022",
    "TUSEQ": 2,
    "TULNKID": "T2",
    "TUTESTCD": "TUMIDENT",
    "TUTEST": "Tumor Identification",
    "TUORRES": "LUNG",
    "TUSTRESC": "LUNG",
    "TULOC": "LUNG",
    "TULAT": "",
    "TUMETHOD": "CT SCAN",
    "TUEVAL": "INVESTIGATOR",
    "TUACPTFL": "Y",
    "VISITNUM": 1,
    "VISIT": "SCREENING",
    "TUDTC": "2021-09-15",
    "TUDY": -7
  },
  {
    "STUDYID": "KN868",
    "DOMAIN": "TU",
    "USUBJID": "KN868-0004-0022",
    "TUSEQ": 3,
    "TULNKID": "T3",
    "TUTESTCD": "TUMIDENT",
    "TUTEST": "Tumor Identification",
    "TUORRES": "VAGINA",
    "TUSTRESC": "VAGINA",
    "TULOC": "VAGINA",
    "TULAT": "BILATERAL",
    "TUMETHOD": "CT SCAN",
    "TUEVAL": "INVESTIGATOR",
    "TUACPTFL": "Y",
    "VISITNUM": 1,
    "VISIT": "SCREENING",
    "TUDTC": "2021-09-09",
    "TUDY": -7
  },
  {
    "STUDYID": "KN868",
    "DOMAIN": "TU",
    "USUBJID": "KN868-0004-0022",
    "TUSEQ": 4,
    "TULNKID": "NT1",
    "TUTESTCD": "TUMIDENT",
    "TUTEST": "Tumor Identification",
    "TUORRES": "PELVIS",
    "TUSTRESC": "PELVIS",
    "TULOC": "PELVIS",
    "TULAT": "RIGHT",
    "TUMETHOD": "CT SCAN",
    "TUEVAL": "INVESTIGATOR",
    "TUACPTFL": "Y",
    "VISITNUM": 1,
    "VISIT": "SCREENING",
    "TUDTC": "2021-09-14",
    "TUDY": -7
  },
  {
    "STUDYID": "KN868",
    "DOMAIN": "TU",
    "USUBJID": "KN868-0004-0023",
    "TUSEQ": 1,
    "TULNKID": "T1",
    "TUTESTCD": "TUMIDENT",
    "TUTEST": "Tumor Identification",
    "TUORRES": "LIVER",
    "TUSTRESC": "LIVER",
    "TULOC": "LIVER",
    "TULAT": "BILATERAL",
    "TUMETHOD": "CT SCAN",
    "TUEVAL": "INVESTIGATOR",
    "TUACPTFL": "Y",
    "VISITNUM": 1,
    "VISIT": "SCREENING",
    "TUDTC": "2020-05-14",
    "TUDY": -7
  },
  {
    "STUDYID": "KN868",
    "DOMAIN": "TU",
    "USUBJID": "KN868-0004-0023",
    "TUSEQ": 2,
    "TULNKID": "NT1",
    "TUTESTCD": "TUMIDENT",
    "TUTEST": "Tumor Identification",
    "TUORRES": "VAGINA",
    "TUSTRESC": "VAGINA",
    "TULOC": "VAGINA",
    "TULAT": "RIGHT",
    "TUMETHOD": "CT SCAN",
    "TUEVAL": "INVESTIGATOR",
    "TUACPTFL": "Y",
    "VISITNUM": 1,
    "VISIT": "SCREENING",
    "TUDTC": "2020-05-14",
    "TUDY": -7
  },
  {
    "STUDYID": "KN868",
    "DOMAIN": "TU",
    "USUBJID": "KN868-0004-0023",
    "TUSEQ": 3,
    "TULNKID": "NT2",
    "TUTESTCD": "TUMIDENT",
    "TUTEST": "Tumor Identification",
    "TUORRES": "PELVIS",
    "TUSTRESC": "PELVIS",
    "TULOC": "PELVIS",
    "TULAT": "BILATERAL",
    "TUMETHOD": "CT SCAN",
    "TUEVAL": "INVESTIGATOR",
    "TUACPTFL": "Y",
    "VISITNUM": 1,
    "VISIT": "SCREENING",
    "TUDTC": "2020-05-15",
    "TUDY": -7
  },
  {
    "STUDYID": "KN868",
    "DOMAIN": "TU",
    "USUBJID": "KN868-0005-0001",
    "TUSEQ": 1,
    "TULNKID": "T1",
    "TUTESTCD": "TUMIDENT",
    "TUTEST": "Tumor Identification",
    "TUORRES": "UTERUS",
    "TUSTRESC": "UTERUS",
    "TULOC": "UTERUS",
    "TULAT": "LEFT",
    "TUMETHOD": "CT SCAN",
    "TUEVAL": "INVESTIGATOR",
    "TUACPTFL": "Y",
    "VISITNUM": 1,
    "VISIT": "SCREENING",
    "TUDTC": "2022-01-01",
    "TUDY": -7
  },
  {
    "STUDYID": "KN868",
    "DOMAIN": "TU",
    "USUBJID": "KN868-0005-0001",
    "TUSEQ": 2,
    "TULNKID": "T2",
    "TUTESTCD": "TUMIDENT",
    "TUTEST": "Tumor Identification",
    "TUORRES": "LUNG",
    "TUSTRESC": "LUNG",
    "TULOC": "LUNG",
    "TULAT": "LEFT",
    "TUMETHOD": "CT SCAN",
    "TUEVAL": "INVESTIGATOR",
    "TUACPTFL": "Y",
    "VISITNUM": 1,
    "VISIT": "SCREENING",
    "TUDTC": "2021-12-25",
    "TUDY": -7
  },
  {
    "STUDYID": "KN868",
    "DOMAIN": "TU",
    "USUBJID": "KN868-0005-0001",
    "TUSEQ": 3,
    "TULNKID": "NT1",
    "TUTESTCD": "TUMIDENT",
    "TUTEST": "Tumor Identification",
    "TUORRES": "PELVIS",
    "TUSTRESC": "PELVIS",
    "TULOC": "PELVIS",
    "TULAT": "RIGHT",
    "TUMETHOD": "CT SCAN",
    "TUEVAL": "INVESTIGATOR",
    "TUACPTFL": "Y",
    "VISITNUM": 1,
    "VISIT": "SCREENING",
    "TUDTC": "2021-12-26",
    "TUDY": -7
  },
  {
    "STUDYID": "KN868",
    "DOMAIN": "TU",
    "USUBJID": "KN868-0005-0001",
    "TUSEQ": 4,
    "TULNKID": "NT2",
    "TUTESTCD": "TUMIDENT",
    "TUTEST": "Tumor Identification",
    "TUORRES": "LIVER",
    "TUSTRESC": "LIVER",
    "TULOC": "LIVER",
    "TULAT": "RIGHT",
    "TUMETHOD": "CT SCAN",
    "TUEVAL": "INVESTIGATOR",
    "TUACPTFL": "Y",
    "VISITNUM": 1,
    "VISIT": "SCREENING",
    "TUDTC": "2021-12-29",
    "TUDY": -7
  },
  {
    "STUDYID": "KN868",
    "DOMAIN": "TU",
    "USUBJID": "KN868-0005-0002",
    "TUSEQ": 1,
    "TULNKID": "T1",
    "TUTESTCD": "TUMIDENT",
    "TUTEST": "Tumor Identification",
    "TUORRES": "PERITONEUM",
    "TUSTRESC": "PERITONEUM",
    "TULOC": "PERITONEUM",
    "TULAT": "RIGHT",
    "TUMETHOD": "CT SCAN",
    "TUEVAL": "INVESTIGATOR",
    "TUACPTFL": "Y",
    "VISITNUM": 1,
    "VISIT": "SCREENING",
    "TUDTC": "2021-07-09",
    "TUDY": -7
  },
  {
    "STUDYID": "KN868",
    "DOMAIN": "TU",
    "USUBJID": "KN868-0005-0002",
    "TUSEQ": 2,
    "TULNKID": "T2",
    "TUTESTCD": "TUMIDENT",
    "TUTEST": "Tumor Identification",
    "TUORRES": "LYMPH NODE - PELVIC",
    "TUSTRESC": "LYMPH NODE - PELVIC",
    "TULOC": "LYMPH NODE - PELVIC",
    "TULAT": "",
    "TUMETHOD": "CT SCAN",
    "TUEVAL": "INVESTIGATOR",
    "TUACPTFL": "Y",
    "VISITNUM": 1,
    "VISIT": "SCREENING",
    "TUDTC": "2021-07-06",
    "TUDY": -7
  },
  {
    "STUDYID": "KN868",
    "DOMAIN": "TU",
    "USUBJID": "KN868-0005-0002",
    "TUSEQ": 3,
    "TULNKID": "T3",
    "TUTESTCD": "TUMIDENT",
    "TUTEST": "Tumor Identification",
    "TUORRES": "LYMPH NODE - PARA-AORTIC",
    "TUSTRESC": "LYMPH NODE - PARA-AORTIC",
    "TULOC": "LYMPH NODE - PARA-AORTIC",
    "TULAT": "BILATERAL",
    "TUMETHOD": "CT SCAN",
    "TUEVAL": "INVESTIGATOR",
    "TUACPTFL": "Y",
    "VISITNUM": 1,
    "VISIT": "SCREENING",
    "TUDTC": "2021-07-07",
    "TUDY": -7
  },
  {
    "STUDYID": "KN868",
    "DOMAIN": "TU",
    "USUBJID": "KN868-0005-0002",
    "TUSEQ": 4,
    "TULNKID": "T4",
    "TUTESTCD": "TUMIDENT",
    "TUTEST": "Tumor Identification",
    "TUORRES": "LUNG",
    "TUSTRESC": "LUNG",
    "TULOC": "LUNG",
    "TULAT": "",
    "TUMETHOD": "CT SCAN",
    "TUEVAL": "INVESTIGATOR",
    "TUACPTFL": "Y",
    "VISITNUM": 1,
    "VISIT": "SCREENING",
    "TUDTC": "2021-07-07",
    "TUDY": -7
  },
  {
    "STUDYID": "KN868",
    "DOMAIN": "TU",
    "USUBJID": "KN868-0005-0002",
    "TUSEQ": 5,
    "TULNKID": "T5",
    "TUTESTCD": "TUMIDENT",
    "TUTEST": "Tumor Identification",
    "TUORRES": "LIVER",
    "TUSTRESC": "LIVER",
    "TULOC": "LIVER",
    "TULAT": "LEFT",
    "TUMETHOD": "CT SCAN",
    "TUEVAL": "INVESTIGATOR",
    "TUACPTFL": "Y",
    "VISITNUM": 1,
    "VISIT": "SCREENING",
    "TUDTC": "2021-07-11",
    "TUDY": -7
  },
  {
    "STUDYID": "KN868",
    "DOMAIN": "TU",
    "USUBJID": "KN868-0005-0002",
    "TUSEQ": 6,
    "TULNKID": "NT1",
    "TUTESTCD": "TUMIDENT",
    "TUTEST": "Tumor Identification",
    "TUORRES": "PELVIS",
    "TUSTRESC": "PELVIS",
    "TULOC": "PELVIS",
    "TULAT": "LEFT",
    "TUMETHOD": "CT SCAN",
    "TUEVAL": "INVESTIGATOR",
    "TUACPTFL": "Y",
    "VISITNUM": 1,
    "VISIT": "SCREENING",
    "TUDTC": "2021-07-09",
    "TUDY": -7
  },
  {
    "STUDYID": "KN868",
    "DOMAIN": "TU",
    "USUBJID": "KN868-0005-0003",
    "TUSEQ": 1,
    "TULNKID": "T1",
    "TUTESTCD": "TUMIDENT",
    "TUTEST": "Tumor Identification",
    "TUORRES": "PERITONEUM",
    "TUSTRESC": "PERITONEUM",
    "TULOC": "PERITONEUM",
    "TULAT": "BILATERAL",
    "TUMETHOD": "CT SCAN",
    "TUEVAL": "INVESTIGATOR",
    "TUACPTFL": "Y",
    "VISITNUM": 1,
    "VISIT": "SCREENING",
    "TUDTC": "2020-06-14",
    "TUDY": -7
  },
  {
    "STUDYID": "KN868",
    "DOMAIN": "TU",
    "USUBJID": "KN868-0005-0003",
    "TUSEQ": 2,
    "TULNKID": "T2",
    "TUTESTCD": "TUMIDENT",
    "TUTEST": "Tumor Identification",
    "TUORRES": "LYMPH NODE - PELVIC",
    "TUSTRESC": "LYMPH NODE - PELVIC",
    "TULOC": "LYMPH NODE - PELVIC",
    "TULAT": "LEFT",
    "TUMETHOD": "CT SCAN",
    "TUEVAL": "INVESTIGATOR",
    "TUACPTFL": "Y",
    "VISITNUM": 1,
    "VISIT": "SCREENING",
    "TUDTC": "2020-06-10",
    "TUDY": -7
  },
  {
    "STUDYID": "KN868",
    "DOMAIN": "TU",
    "USUBJID": "KN868-0005-0003",
    "TUSEQ": 3,
    "TULNKID": "NT1",
    "TUTESTCD": "TUMIDENT",
    "TUTEST": "Tumor Identification",
    "TUORRES": "UTERUS",
    "TUSTRESC": "UTERUS",
    "TULOC": "UTERUS",
    "TULAT": "LEFT",
    "TUMETHOD": "CT SCAN",
    "TUEVAL": "INVESTIGATOR",
    "TUACPTFL": "Y",
    "VISITNUM": 1,
    "VISIT": "SCREENING",
    "TUDTC": "2020-06-10",
    "TUDY": -7
  },
  {
    "STUDYID": "KN868",
    "DOMAIN": "TU",
    "USUBJID": "KN868-0005-0004",
    "TUSEQ": 1,
    "TULNKID": "T1",
    "TUTESTCD": "TUMIDENT",
    "TUTEST": "Tumor Identification",
    "TUORRES": "VAGINA",
    "TUSTRESC": "VAGINA",
    "TULOC": "VAGINA",
    "TULAT": "",
    "TUMETHOD": "CT SCAN",
    "TUEVAL": "INVESTIGATOR",
    "TUACPTFL": "Y",
    "VISITNUM": 1,
    "VISIT": "SCREENING",
    "TUDTC": "2021-01-19",
    "TUDY": -7
  },
  {
    "STUDYID": "KN868",
    "DOMAIN": "TU",
    "USUBJID": "KN868-0005-0004",
    "TUSEQ": 2,
    "TULNKID": "T2",
    "TUTESTCD": "TUMIDENT",
    "TUTEST": "Tumor Identification",
    "TUORRES": "LUNG",
    "TUSTRESC": "LUNG",
    "TULOC": "LUNG",
    "TULAT": "",
    "TUMETHOD": "CT SCAN",
    "TUEVAL": "INVESTIGATOR",
    "TUACPTFL": "Y",
    "VISITNUM": 1,
    "VISIT": "SCREENING",
    "TUDTC": "2021-01-20",
    "TUDY": -7
  },
  {
    "STUDYID": "KN868",
    "DOMAIN": "TU",
    "USUBJID": "KN868-0005-0004",
    "TUSEQ": 3,
    "TULNKID": "T3",
    "TUTESTCD": "TUMIDENT",
    "TUTEST": "Tumor Identification",
    "TUORRES": "LYMPH NODE - PELVIC",
    "TUSTRESC": "LYMPH NODE - PELVIC",
    "TULOC": "LYMPH NODE - PELVIC",
    "TULAT": "",
    "TUMETHOD": "CT SCAN",
    "TUEVAL": "INVESTIGATOR",
    "TUACPTFL": "Y",
    "VISITNUM": 1,
    "VISIT": "SCREENING",
    "TUDTC": "2021-01-22",
    "TUDY": -7
  },
  {
    "STUDYID": "KN868",
    "DOMAIN": "TU",
    "USUBJID": "KN868-0005-0004",
    "TUSEQ": 4,
    "TULNKID": "T4",
    "TUTESTCD": "TUMIDENT",
    "TUTEST": "Tumor Identification",
    "TUORRES": "UTERUS",
    "TUSTRESC": "UTERUS",
    "TULOC": "UTERUS",
    "TULAT": "",
    "TUMETHOD": "CT SCAN",
    "TUEVAL": "INVESTIGATOR",
    "TUACPTFL": "Y",
    "VISITNUM": 1,
    "VISIT": "SCREENING",
    "TUDTC": "2021-01-17",
    "TUDY": -7
  },
  {
    "STUDYID": "KN868",
    "DOMAIN": "TU",
    "USUBJID": "KN868-0005-0005",
    "TUSEQ": 1,
    "TULNKID": "T1",
    "TUTESTCD": "TUMIDENT",
    "TUTEST": "Tumor Identification",
    "TUORRES": "PELVIS",
    "TUSTRESC": "PELVIS",
    "TULOC": "PELVIS",
    "TULAT": "",
    "TUMETHOD": "CT SCAN",
    "TUEVAL": "INVESTIGATOR",
    "TUACPTFL": "Y",
    "VISITNUM": 1,
    "VISIT": "SCREENING",
    "TUDTC": "2020-11-09",
    "TUDY": -7
  },
  {
    "STUDYID": "KN868",
    "DOMAIN": "TU",
    "USUBJID": "KN868-0005-0005",
    "TUSEQ": 2,
    "TULNKID": "T2",
    "TUTESTCD": "TUMIDENT",
    "TUTEST": "Tumor Identification",
    "TUORRES": "UTERUS",
    "TUSTRESC": "UTERUS",
    "TULOC": "UTERUS",
    "TULAT": "RIGHT",
    "TUMETHOD": "CT SCAN",
    "TUEVAL": "INVESTIGATOR",
    "TUACPTFL": "Y",
    "VISITNUM": 1,
    "VISIT": "SCREENING",
    "TUDTC": "2020-11-08",
    "TUDY": -7
  },
  {
    "STUDYID": "KN868",
    "DOMAIN": "TU",
    "USUBJID": "KN868-0005-0005",
    "TUSEQ": 3,
    "TULNKID": "T3",
    "TUTESTCD": "TUMIDENT",
    "TUTEST": "Tumor Identification",
    "TUORRES": "OMENTUM",
    "TUSTRESC": "OMENTUM",
    "TULOC": "OMENTUM",
    "TULAT": "BILATERAL",
    "TUMETHOD": "CT SCAN",
    "TUEVAL": "INVESTIGATOR",
    "TUACPTFL": "Y",
    "VISITNUM": 1,
    "VISIT": "SCREENING",
    "TUDTC": "2020-11-09",
    "TUDY": -7
  },
  {
    "STUDYID": "KN868",
    "DOMAIN": "TU",
    "USUBJID": "KN868-0005-0005",
    "TUSEQ": 4,
    "TULNKID": "NT1",
    "TUTESTCD": "TUMIDENT",
    "TUTEST": "Tumor Identification",
    "TUORRES": "LIVER",
    "TUSTRESC": "LIVER",
    "TULOC": "LIVER",
    "TULAT": "LEFT",
    "TUMETHOD": "CT SCAN",
    "TUEVAL": "INVESTIGATOR",
    "TUACPTFL": "Y",
    "VISITNUM": 1,
    "VISIT": "SCREENING",
    "TUDTC": "2020-11-09",
    "TUDY": -7
  },
  {
    "STUDYID": "KN868",
    "DOMAIN": "TU",
    "USUBJID": "KN868-0005-0006",
    "TUSEQ": 1,
    "TULNKID": "T1",
    "TUTESTCD": "TUMIDENT",
    "TUTEST": "Tumor Identification",
    "TUORRES": "PERITONEUM",
    "TUSTRESC": "PERITONEUM",
    "TULOC": "PERITONEUM",
    "TULAT": "RIGHT",
    "TUMETHOD": "CT SCAN",
    "TUEVAL": "INVESTIGATOR",
    "TUACPTFL": "Y",
    "VISITNUM": 1,
    "VISIT": "SCREENING",
    "TUDTC": "2021-10-14",
    "TUDY": -7
  },
  {
    "STUDYID": "KN868",
    "DOMAIN": "TU",
    "USUBJID": "KN868-0005-0006",
    "TUSEQ": 2,
    "TULNKID": "NT1",
    "TUTESTCD": "TUMIDENT",
    "TUTEST": "Tumor Identification",
    "TUORRES": "OMENTUM",
    "TUSTRESC": "OMENTUM",
    "TULOC": "OMENTUM",
    "TULAT": "RIGHT",
    "TUMETHOD": "CT SCAN",
    "TUEVAL": "INVESTIGATOR",
    "TUACPTFL": "Y",
    "VISITNUM": 1,
    "VISIT": "SCREENING",
    "TUDTC": "2021-10-14",
    "TUDY": -7
  },
  {
    "STUDYID": "KN868",
    "DOMAIN": "TU",
    "USUBJID": "KN868-0005-0007",
    "TUSEQ": 1,
    "TULNKID": "T1",
    "TUTESTCD": "TUMIDENT",
    "TUTEST": "Tumor Identification",
    "TUORRES": "PERITONEUM",
    "TUSTRESC": "PERITONEUM",
    "TULOC": "PERITONEUM",
    "TULAT": "RIGHT",
    "TUMETHOD": "CT SCAN",
    "TUEVAL": "INVESTIGATOR",
    "TUACPTFL": "Y",
    "VISITNUM": 1,
    "VISIT": "SCREENING",
    "TUDTC": "2021-06-05",
    "TUDY": -7
  },
  {
    "STUDYID": "KN868",
    "DOMAIN": "TU",
    "USUBJID": "KN868-0005-0007",
    "TUSEQ": 2,
    "TULNKID": "T2",
    "TUTESTCD": "TUMIDENT",
    "TUTEST": "Tumor Identification",
    "TUORRES": "PELVIS",
    "TUSTRESC": "PELVIS",
    "TULOC": "PELVIS",
    "TULAT": "RIGHT",
    "TUMETHOD": "CT SCAN",
    "TUEVAL": "INVESTIGATOR",
    "TUACPTFL": "Y",
    "VISITNUM": 1,
    "VISIT": "SCREENING",
    "TUDTC": "2021-06-07",
    "TUDY": -7
  },
  {
    "STUDYID": "KN868",
    "DOMAIN": "TU",
    "USUBJID": "KN868-0005-0007",
    "TUSEQ": 3,
    "TULNKID": "T3",
    "TUTESTCD": "TUMIDENT",
    "TUTEST": "Tumor Identification",
    "TUORRES": "LUNG",
    "TUSTRESC": "LUNG",
    "TULOC": "LUNG",
    "TULAT": "BILATERAL",
    "TUMETHOD": "CT SCAN",
    "TUEVAL": "INVESTIGATOR",
    "TUACPTFL": "Y",
    "VISITNUM": 1,
    "VISIT": "SCREENING",
    "TUDTC": "2021-06-02",
    "TUDY": -7
  },
  {
    "STUDYID": "KN868",
    "DOMAIN": "TU",
    "USUBJID": "KN868-0005-0008",
    "TUSEQ": 1,
    "TULNKID": "T1",
    "TUTESTCD": "TUMIDENT",
    "TUTEST": "Tumor Identification",
    "TUORRES": "VAGINA",
    "TUSTRESC": "VAGINA",
    "TULOC": "VAGINA",
    "TULAT": "BILATERAL",
    "TUMETHOD": "CT SCAN",
    "TUEVAL": "INVESTIGATOR",
    "TUACPTFL": "Y",
    "VISITNUM": 1,
    "VISIT": "SCREENING",
    "TUDTC": "2021-10-03",
    "TUDY": -7
  },
  {
    "STUDYID": "KN868",
    "DOMAIN": "TU",
    "USUBJID": "KN868-0005-0008",
    "TUSEQ": 2,
    "TULNKID": "T2",
    "TUTESTCD": "TUMIDENT",
    "TUTEST": "Tumor Identification",
    "TUORRES": "LIVER",
    "TUSTRESC": "LIVER",
    "TULOC": "LIVER",
    "TULAT": "BILATERAL",
    "TUMETHOD": "CT SCAN",
    "TUEVAL": "INVESTIGATOR",
    "TUACPTFL": "Y",
    "VISITNUM": 1,
    "VISIT": "SCREENING",
    "TUDTC": "2021-10-02",
    "TUDY": -7
  },
  {
    "STUDYID": "KN868",
    "DOMAIN": "TU",
    "USUBJID": "KN868-0005-0008",
    "TUSEQ": 3,
    "TULNKID": "T3",
    "TUTESTCD": "TUMIDENT",
    "TUTEST": "Tumor Identification",
    "TUORRES": "OMENTUM",
    "TUSTRESC": "OMENTUM",
    "TULOC": "OMENTUM",
    "TULAT": "",
    "TUMETHOD": "CT SCAN",
    "TUEVAL": "INVESTIGATOR",
    "TUACPTFL": "Y",
    "VISITNUM": 1,
    "VISIT": "SCREENING",
    "TUDTC": "2021-10-07",
    "TUDY": -7
  },
  {
    "STUDYID": "KN868",
    "DOMAIN": "TU",
    "USUBJID": "KN868-0005-0008",
    "TUSEQ": 4,
    "TULNKID": "NT1",
    "TUTESTCD": "TUMIDENT",
    "TUTEST": "Tumor Identification",
    "TUORRES": "LYMPH NODE - PARA-AORTIC",
    "TUSTRESC": "LYMPH NODE - PARA-AORTIC",
    "TULOC": "LYMPH NODE - PARA-AORTIC",
    "TULAT": "BILATERAL",
    "TUMETHOD": "CT SCAN",
    "TUEVAL": "INVESTIGATOR",
    "TUACPTFL": "Y",
    "VISITNUM": 1,
    "VISIT": "SCREENING",
    "TUDTC": "2021-10-01",
    "TUDY": -7
  },
  {
    "STUDYID": "KN868",
    "DOMAIN": "TU",
    "USUBJID": "KN868-0005-0008",
    "TUSEQ": 5,
    "TULNKID": "NT2",
    "TUTESTCD": "TUMIDENT",
    "TUTEST": "Tumor Identification",
    "TUORRES": "LYMPH NODE - PELVIC",
    "TUSTRESC": "LYMPH NODE - PELVIC",
    "TULOC": "LYMPH NODE - PELVIC",
    "TULAT": "BILATERAL",
    "TUMETHOD": "CT SCAN",
    "TUEVAL": "INVESTIGATOR",
    "TUACPTFL": "Y",
    "VISITNUM": 1,
    "VISIT": "SCREENING",
    "TUDTC": "2021-10-06",
    "TUDY": -7
  },
  {
    "STUDYID": "KN868",
    "DOMAIN": "TU",
    "USUBJID": "KN868-0005-0009",
    "TUSEQ": 1,
    "TULNKID": "T1",
    "TUTESTCD": "TUMIDENT",
    "TUTEST": "Tumor Identification",
    "TUORRES": "VAGINA",
    "TUSTRESC": "VAGINA",
    "TULOC": "VAGINA",
    "TULAT": "LEFT",
    "TUMETHOD": "CT SCAN",
    "TUEVAL": "INVESTIGATOR",
    "TUACPTFL": "Y",
    "VISITNUM": 1,
    "VISIT": "SCREENING",
    "TUDTC": "2021-06-25",
    "TUDY": -7
  },
  {
    "STUDYID": "KN868",
    "DOMAIN": "TU",
    "USUBJID": "KN868-0005-0009",
    "TUSEQ": 2,
    "TULNKID": "T2",
    "TUTESTCD": "TUMIDENT",
    "TUTEST": "Tumor Identification",
    "TUORRES": "LYMPH NODE - PELVIC",
    "TUSTRESC": "LYMPH NODE - PELVIC",
    "TULOC": "LYMPH NODE - PELVIC",
    "TULAT": "RIGHT",
    "TUMETHOD": "CT SCAN",
    "TUEVAL": "INVESTIGATOR",
    "TUACPTFL": "Y",
    "VISITNUM": 1,
    "VISIT": "SCREENING",
    "TUDTC": "2021-06-22",
    "TUDY": -7
  },
  {
    "STUDYID": "KN868",
    "DOMAIN": "TU",
    "USUBJID": "KN868-0005-0010",
    "TUSEQ": 1,
    "TULNKID": "T1",
    "TUTESTCD": "TUMIDENT",
    "TUTEST": "Tumor Identification",
    "TUORRES": "LYMPH NODE - PARA-AORTIC",
    "TUSTRESC": "LYMPH NODE - PARA-AORTIC",
    "TULOC": "LYMPH NODE - PARA-AORTIC",
    "TULAT": "BILATERAL",
    "TUMETHOD": "CT SCAN",
    "TUEVAL": "INVESTIGATOR",
    "TUACPTFL": "Y",
    "VISITNUM": 1,
    "VISIT": "SCREENING",
    "TUDTC": "2021-09-11",
    "TUDY": -7
  },
  {
    "STUDYID": "KN868",
    "DOMAIN": "TU",
    "USUBJID": "KN868-0005-0010",
    "TUSEQ": 2,
    "TULNKID": "NT1",
    "TUTESTCD": "TUMIDENT",
    "TUTEST": "Tumor Identification",
    "TUORRES": "OMENTUM",
    "TUSTRESC": "OMENTUM",
    "TULOC": "OMENTUM",
    "TULAT": "RIGHT",
    "TUMETHOD": "CT SCAN",
    "TUEVAL": "INVESTIGATOR",
    "TUACPTFL": "Y",
    "VISITNUM": 1,
    "VISIT": "SCREENING",
    "TUDTC": "2021-09-13",
    "TUDY": -7
  },
  {
    "STUDYID": "KN868",
    "DOMAIN": "TU",
    "USUBJID": "KN868-0005-0010",
    "TUSEQ": 3,
    "TULNKID": "NT2",
    "TUTESTCD": "TUMIDENT",
    "TUTEST": "Tumor Identification",
    "TUORRES": "VAGINA",
    "TUSTRESC": "VAGINA",
    "TULOC": "VAGINA",
    "TULAT": "",
    "TUMETHOD": "CT SCAN",
    "TUEVAL": "INVESTIGATOR",
    "TUACPTFL": "Y",
    "VISITNUM": 1,
    "VISIT": "SCREENING",
    "TUDTC": "2021-09-14",
    "TUDY": -7
  },
  {
    "STUDYID": "KN868",
    "DOMAIN": "TU",
    "USUBJID": "KN868-0005-0011",
    "TUSEQ": 1,
    "TULNKID": "T1",
    "TUTESTCD": "TUMIDENT",
    "TUTEST": "Tumor Identification",
    "TUORRES": "VAGINA",
    "TUSTRESC": "VAGINA",
    "TULOC": "VAGINA",
    "TULAT": "BILATERAL",
    "TUMETHOD": "CT SCAN",
    "TUEVAL": "INVESTIGATOR",
    "TUACPTFL": "Y",
    "VISITNUM": 1,
    "VISIT": "SCREENING",
    "TUDTC": "2022-01-25",
    "TUDY": -7
  },
  {
    "STUDYID": "KN868",
    "DOMAIN": "TU",
    "USUBJID": "KN868-0005-0011",
    "TUSEQ": 2,
    "TULNKID": "T2",
    "TUTESTCD": "TUMIDENT",
    "TUTEST": "Tumor Identification",
    "TUORRES": "LYMPH NODE - PELVIC",
    "TUSTRESC": "LYMPH NODE - PELVIC",
    "TULOC": "LYMPH NODE - PELVIC",
    "TULAT": "BILATERAL",
    "TUMETHOD": "CT SCAN",
    "TUEVAL": "INVESTIGATOR",
    "TUACPTFL": "Y",
    "VISITNUM": 1,
    "VISIT": "SCREENING",
    "TUDTC": "2022-01-21",
    "TUDY": -7
  },
  {
    "STUDYID": "KN868",
    "DOMAIN": "TU",
    "USUBJID": "KN868-0005-0011",
    "TUSEQ": 3,
    "TULNKID": "T3",
    "TUTESTCD": "TUMIDENT",
    "TUTEST": "Tumor Identification",
    "TUORRES": "LIVER",
    "TUSTRESC": "LIVER",
    "TULOC": "LIVER",
    "TULAT": "RIGHT",
    "TUMETHOD": "CT SCAN",
    "TUEVAL": "INVESTIGATOR",
    "TUACPTFL": "Y",
    "VISITNUM": 1,
    "VISIT": "SCREENING",
    "TUDTC": "2022-01-21",
    "TUDY": -7
  },
  {
    "STUDYID": "KN868",
    "DOMAIN": "TU",
    "USUBJID": "KN868-0005-0011",
    "TUSEQ": 4,
    "TULNKID": "T4",
    "TUTESTCD": "TUMIDENT",
    "TUTEST": "Tumor Identification",
    "TUORRES": "LUNG",
    "TUSTRESC": "LUNG",
    "TULOC": "LUNG",
    "TULAT": "LEFT",
    "TUMETHOD": "CT SCAN",
    "TUEVAL": "INVESTIGATOR",
    "TUACPTFL": "Y",
    "VISITNUM": 1,
    "VISIT": "SCREENING",
    "TUDTC": "2022-01-23",
    "TUDY": -7
  },
  {
    "STUDYID": "KN868",
    "DOMAIN": "TU",
    "USUBJID": "KN868-0005-0011",
    "TUSEQ": 5,
    "TULNKID": "NT1",
    "TUTESTCD": "TUMIDENT",
    "TUTEST": "Tumor Identification",
    "TUORRES": "UTERUS",
    "TUSTRESC": "UTERUS",
    "TULOC": "UTERUS",
    "TULAT": "RIGHT",
    "TUMETHOD": "CT SCAN",
    "TUEVAL": "INVESTIGATOR",
    "TUACPTFL": "Y",
    "VISITNUM": 1,
    "VISIT": "SCREENING",
    "TUDTC": "2022-01-28",
    "TUDY": -7
  },
  {
    "STUDYID": "KN868",
    "DOMAIN": "TU",
    "USUBJID": "KN868-0005-0011",
    "TUSEQ": 6,
    "TULNKID": "NT2",
    "TUTESTCD": "TUMIDENT",
    "TUTEST": "Tumor Identification",
    "TUORRES": "LYMPH NODE - PARA-AORTIC",
    "TUSTRESC": "LYMPH NODE - PARA-AORTIC",
    "TULOC": "LYMPH NODE - PARA-AORTIC",
    "TULAT": "",
    "TUMETHOD": "CT SCAN",
    "TUEVAL": "INVESTIGATOR",
    "TUACPTFL": "Y",
    "VISITNUM": 1,
    "VISIT": "SCREENING",
    "TUDTC": "2022-01-22",
    "TUDY": -7
  },
  {
    "STUDYID": "KN868",
    "DOMAIN": "TU",
    "USUBJID": "KN868-0005-0012",
    "TUSEQ": 1,
    "TULNKID": "T1",
    "TUTESTCD": "TUMIDENT",
    "TUTEST": "Tumor Identification",
    "TUORRES": "LIVER",
    "TUSTRESC": "LIVER",
    "TULOC": "LIVER",
    "TULAT": "",
    "TUMETHOD": "CT SCAN",
    "TUEVAL": "INVESTIGATOR",
    "TUACPTFL": "Y",
    "VISITNUM": 1,
    "VISIT": "SCREENING",
    "TUDTC": "2020-03-26",
    "TUDY": -7
  },
  {
    "STUDYID": "KN868",
    "DOMAIN": "TU",
    "USUBJID": "KN868-0005-0012",
    "TUSEQ": 2,
    "TULNKID": "T2",
    "TUTESTCD": "TUMIDENT",
    "TUTEST": "Tumor Identification",
    "TUORRES": "LUNG",
    "TUSTRESC": "LUNG",
    "TULOC": "LUNG",
    "TULAT": "RIGHT",
    "TUMETHOD": "CT SCAN",
    "TUEVAL": "INVESTIGATOR",
    "TUACPTFL": "Y",
    "VISITNUM": 1,
    "VISIT": "SCREENING",
    "TUDTC": "2020-03-25",
    "TUDY": -7
  },
  {
    "STUDYID": "KN868",
    "DOMAIN": "TU",
    "USUBJID": "KN868-0005-0012",
    "TUSEQ": 3,
    "TULNKID": "NT1",
    "TUTESTCD": "TUMIDENT",
    "TUTEST": "Tumor Identification",
    "TUORRES": "PELVIS",
    "TUSTRESC": "PELVIS",
    "TULOC": "PELVIS",
    "TULAT": "",
    "TUMETHOD": "CT SCAN",
    "TUEVAL": "INVESTIGATOR",
    "TUACPTFL": "Y",
    "VISITNUM": 1,
    "VISIT": "SCREENING",
    "TUDTC": "2020-03-22",
    "TUDY": -7
  },
  {
    "STUDYID": "KN868",
    "DOMAIN": "TU",
    "USUBJID": "KN868-0005-0013",
    "TUSEQ": 1,
    "TULNKID": "T1",
    "TUTESTCD": "TUMIDENT",
    "TUTEST": "Tumor Identification",
    "TUORRES": "LUNG",
    "TUSTRESC": "LUNG",
    "TULOC": "LUNG",
    "TULAT": "RIGHT",
    "TUMETHOD": "CT SCAN",
    "TUEVAL": "INVESTIGATOR",
    "TUACPTFL": "Y",
    "VISITNUM": 1,
    "VISIT": "SCREENING",
    "TUDTC": "2020-12-18",
    "TUDY": -7
  },
  {
    "STUDYID": "KN868",
    "DOMAIN": "TU",
    "USUBJID": "KN868-0005-0013",
    "TUSEQ": 2,
    "TULNKID": "T2",
    "TUTESTCD": "TUMIDENT",
    "TUTEST": "Tumor Identification",
    "TUORRES": "PERITONEUM",
    "TUSTRESC": "PERITONEUM",
    "TULOC": "PERITONEUM",
    "TULAT": "",
    "TUMETHOD": "CT SCAN",
    "TUEVAL": "INVESTIGATOR",
    "TUACPTFL": "Y",
    "VISITNUM": 1,
    "VISIT": "SCREENING",
    "TUDTC": "2020-12-22",
    "TUDY": -7
  },
  {
    "STUDYID": "KN868",
    "DOMAIN": "TU",
    "USUBJID": "KN868-0005-0013",
    "TUSEQ": 3,
    "TULNKID": "T3",
    "TUTESTCD": "TUMIDENT",
    "TUTEST": "Tumor Identification",
    "TUORRES": "PELVIS",
    "TUSTRESC": "PELVIS",
    "TULOC": "PELVIS",
    "TULAT": "LEFT",
    "TUMETHOD": "CT SCAN",
    "TUEVAL": "INVESTIGATOR",
    "TUACPTFL": "Y",
    "VISITNUM": 1,
    "VISIT": "SCREENING",
    "TUDTC": "2020-12-23",
    "TUDY": -7
  },
  {
    "STUDYID": "KN868",
    "DOMAIN": "TU",
    "USUBJID": "KN868-0005-0013",
    "TUSEQ": 4,
    "TULNKID": "T4",
    "TUTESTCD": "TUMIDENT",
    "TUTEST": "Tumor Identification",
    "TUORRES": "OMENTUM",
    "TUSTRESC": "OMENTUM",
    "TULOC": "OMENTUM",
    "TULAT": "",
    "TUMETHOD": "CT SCAN",
    "TUEVAL": "INVESTIGATOR",
    "TUACPTFL": "Y",
    "VISITNUM": 1,
    "VISIT": "SCREENING",
    "TUDTC": "2020-12-19",
    "TUDY": -7
  },
  {
    "STUDYID": "KN868",
    "DOMAIN": "TU",
    "USUBJID": "KN868-0005-0013",
    "TUSEQ": 5,
    "TULNKID": "T5",
    "TUTESTCD": "TUMIDENT",
    "TUTEST": "Tumor Identification",
    "TUORRES": "UTERUS",
    "TUSTRESC": "UTERUS",
    "TULOC": "UTERUS",
    "TULAT": "RIGHT",
    "TUMETHOD": "CT SCAN",
    "TUEVAL": "INVESTIGATOR",
    "TUACPTFL": "Y",
    "VISITNUM": 1,
    "VISIT": "SCREENING",
    "TUDTC": "2020-12-20",
    "TUDY": -7
  },
  {
    "STUDYID": "KN868",
    "DOMAIN": "TU",
    "USUBJID": "KN868-0005-0013",
    "TUSEQ": 6,
    "TULNKID": "NT1",
    "TUTESTCD": "TUMIDENT",
    "TUTEST": "Tumor Identification",
    "TUORRES": "LIVER",
    "TUSTRESC": "LIVER",
    "TULOC": "LIVER",
    "TULAT": "BILATERAL",
    "TUMETHOD": "CT SCAN",
    "TUEVAL": "INVESTIGATOR",
    "TUACPTFL": "Y",
    "VISITNUM": 1,
    "VISIT": "SCREENING",
    "TUDTC": "2020-12-20",
    "TUDY": -7
  },
  {
    "STUDYID": "KN868",
    "DOMAIN": "TU",
    "USUBJID": "KN868-0005-0013",
    "TUSEQ": 7,
    "TULNKID": "NT2",
    "TUTESTCD": "TUMIDENT",
    "TUTEST": "Tumor Identification",
    "TUORRES": "LYMPH NODE - PELVIC",
    "TUSTRESC": "LYMPH NODE - PELVIC",
    "TULOC": "LYMPH NODE - PELVIC",
    "TULAT": "",
    "TUMETHOD": "CT SCAN",
    "TUEVAL": "INVESTIGATOR",
    "TUACPTFL": "Y",
    "VISITNUM": 1,
    "VISIT": "SCREENING",
    "TUDTC": "2020-12-19",
    "TUDY": -7
  },
  {
    "STUDYID": "KN868",
    "DOMAIN": "TU",
    "USUBJID": "KN868-0005-0014",
    "TUSEQ": 1,
    "TULNKID": "T1",
    "TUTESTCD": "TUMIDENT",
    "TUTEST": "Tumor Identification",
    "TUORRES": "LYMPH NODE - PELVIC",
    "TUSTRESC": "LYMPH NODE - PELVIC",
    "TULOC": "LYMPH NODE - PELVIC",
    "TULAT": "",
    "TUMETHOD": "CT SCAN",
    "TUEVAL": "INVESTIGATOR",
    "TUACPTFL": "Y",
    "VISITNUM": 1,
    "VISIT": "SCREENING",
    "TUDTC": "2020-06-26",
    "TUDY": -7
  },
  {
    "STUDYID": "KN868",
    "DOMAIN": "TU",
    "USUBJID": "KN868-0005-0014",
    "TUSEQ": 2,
    "TULNKID": "T2",
    "TUTESTCD": "TUMIDENT",
    "TUTEST": "Tumor Identification",
    "TUORRES": "PERITONEUM",
    "TUSTRESC": "PERITONEUM",
    "TULOC": "PERITONEUM",
    "TULAT": "LEFT",
    "TUMETHOD": "CT SCAN",
    "TUEVAL": "INVESTIGATOR",
    "TUACPTFL": "Y",
    "VISITNUM": 1,
    "VISIT": "SCREENING",
    "TUDTC": "2020-06-27",
    "TUDY": -7
  },
  {
    "STUDYID": "KN868",
    "DOMAIN": "TU",
    "USUBJID": "KN868-0005-0014",
    "TUSEQ": 3,
    "TULNKID": "T3",
    "TUTESTCD": "TUMIDENT",
    "TUTEST": "Tumor Identification",
    "TUORRES": "LYMPH NODE - PARA-AORTIC",
    "TUSTRESC": "LYMPH NODE - PARA-AORTIC",
    "TULOC": "LYMPH NODE - PARA-AORTIC",
    "TULAT": "",
    "TUMETHOD": "CT SCAN",
    "TUEVAL": "INVESTIGATOR",
    "TUACPTFL": "Y",
    "VISITNUM": 1,
    "VISIT": "SCREENING",
    "TUDTC": "2020-06-26",
    "TUDY": -7
  },
  {
    "STUDYID": "KN868",
    "DOMAIN": "TU",
    "USUBJID": "KN868-0005-0014",
    "TUSEQ": 4,
    "TULNKID": "NT1",
    "TUTESTCD": "TUMIDENT",
    "TUTEST": "Tumor Identification",
    "TUORRES": "LUNG",
    "TUSTRESC": "LUNG",
    "TULOC": "LUNG",
    "TULAT": "",
    "TUMETHOD": "CT SCAN",
    "TUEVAL": "INVESTIGATOR",
    "TUACPTFL": "Y",
    "VISITNUM": 1,
    "VISIT": "SCREENING",
    "TUDTC": "2020-07-02",
    "TUDY": -7
  },
  {
    "STUDYID": "KN868",
    "DOMAIN": "TU",
    "USUBJID": "KN868-0005-0015",
    "TUSEQ": 1,
    "TULNKID": "T1",
    "TUTESTCD": "TUMIDENT",
    "TUTEST": "Tumor Identification",
    "TUORRES": "VAGINA",
    "TUSTRESC": "VAGINA",
    "TULOC": "VAGINA",
    "TULAT": "",
    "TUMETHOD": "CT SCAN",
    "TUEVAL": "INVESTIGATOR",
    "TUACPTFL": "Y",
    "VISITNUM": 1,
    "VISIT": "SCREENING",
    "TUDTC": "2021-09-20",
    "TUDY": -7
  },
  {
    "STUDYID": "KN868",
    "DOMAIN": "TU",
    "USUBJID": "KN868-0005-0015",
    "TUSEQ": 2,
    "TULNKID": "T2",
    "TUTESTCD": "TUMIDENT",
    "TUTEST": "Tumor Identification",
    "TUORRES": "UTERUS",
    "TUSTRESC": "UTERUS",
    "TULOC": "UTERUS",
    "TULAT": "BILATERAL",
    "TUMETHOD": "CT SCAN",
    "TUEVAL": "INVESTIGATOR",
    "TUACPTFL": "Y",
    "VISITNUM": 1,
    "VISIT": "SCREENING",
    "TUDTC": "2021-09-13",
    "TUDY": -7
  },
  {
    "STUDYID": "KN868",
    "DOMAIN": "TU",
    "USUBJID": "KN868-0005-0015",
    "TUSEQ": 3,
    "TULNKID": "NT1",
    "TUTESTCD": "TUMIDENT",
    "TUTEST": "Tumor Identification",
    "TUORRES": "PELVIS",
    "TUSTRESC": "PELVIS",
    "TULOC": "PELVIS",
    "TULAT": "",
    "TUMETHOD": "CT SCAN",
    "TUEVAL": "INVESTIGATOR",
    "TUACPTFL": "Y",
    "VISITNUM": 1,
    "VISIT": "SCREENING",
    "TUDTC": "2021-09-15",
    "TUDY": -7
  },
  {
    "STUDYID": "KN868",
    "DOMAIN": "TU",
    "USUBJID": "KN868-0005-0016",
    "TUSEQ": 1,
    "TULNKID": "T1",
    "TUTESTCD": "TUMIDENT",
    "TUTEST": "Tumor Identification",
    "TUORRES": "VAGINA",
    "TUSTRESC": "VAGINA",
    "TULOC": "VAGINA",
    "TULAT": "LEFT",
    "TUMETHOD": "CT SCAN",
    "TUEVAL": "INVESTIGATOR",
    "TUACPTFL": "Y",
    "VISITNUM": 1,
    "VISIT": "SCREENING",
    "TUDTC": "2020-10-09",
    "TUDY": -7
  },
  {
    "STUDYID": "KN868",
    "DOMAIN": "TU",
    "USUBJID": "KN868-0005-0016",
    "TUSEQ": 2,
    "TULNKID": "T2",
    "TUTESTCD": "TUMIDENT",
    "TUTEST": "Tumor Identification",
    "TUORRES": "LYMPH NODE - PELVIC",
    "TUSTRESC": "LYMPH NODE - PELVIC",
    "TULOC": "LYMPH NODE - PELVIC",
    "TULAT": "LEFT",
    "TUMETHOD": "CT SCAN",
    "TUEVAL": "INVESTIGATOR",
    "TUACPTFL": "Y",
    "VISITNUM": 1,
    "VISIT": "SCREENING",
    "TUDTC": "2020-10-06",
    "TUDY": -7
  },
  {
    "STUDYID": "KN868",
    "DOMAIN": "TU",
    "USUBJID": "KN868-0005-0017",
    "TUSEQ": 1,
    "TULNKID": "T1",
    "TUTESTCD": "TUMIDENT",
    "TUTEST": "Tumor Identification",
    "TUORRES": "PERITONEUM",
    "TUSTRESC": "PERITONEUM",
    "TULOC": "PERITONEUM",
    "TULAT": "",
    "TUMETHOD": "CT SCAN",
    "TUEVAL": "INVESTIGATOR",
    "TUACPTFL": "Y",
    "VISITNUM": 1,
    "VISIT": "SCREENING",
    "TUDTC": "2021-09-12",
    "TUDY": -7
  },
  {
    "STUDYID": "KN868",
    "DOMAIN": "TU",
    "USUBJID": "KN868-0005-0017",
    "TUSEQ": 2,
    "TULNKID": "NT1",
    "TUTESTCD": "TUMIDENT",
    "TUTEST": "Tumor Identification",
    "TUORRES": "UTERUS",
    "TUSTRESC": "UTERUS",
    "TULOC": "UTERUS",
    "TULAT": "BILATERAL",
    "TUMETHOD": "CT SCAN",
    "TUEVAL": "INVESTIGATOR",
    "TUACPTFL": "Y",
    "VISITNUM": 1,
    "VISIT": "SCREENING",
    "TUDTC": "2021-09-11",
    "TUDY": -7
  },
  {
    "STUDYID": "KN868",
    "DOMAIN": "TU",
    "USUBJID": "KN868-0005-0018",
    "TUSEQ": 1,
    "TULNKID": "T1",
    "TUTESTCD": "TUMIDENT",
    "TUTEST": "Tumor Identification",
    "TUORRES": "VAGINA",
    "TUSTRESC": "VAGINA",
    "TULOC": "VAGINA",
    "TULAT": "",
    "TUMETHOD": "CT SCAN",
    "TUEVAL": "INVESTIGATOR",
    "TUACPTFL": "Y",
    "VISITNUM": 1,
    "VISIT": "SCREENING",
    "TUDTC": "2021-08-20",
    "TUDY": -7
  },
  {
    "STUDYID": "KN868",
    "DOMAIN": "TU",
    "USUBJID": "KN868-0005-0018",
