# ADADAS for CDISC Pilot 3 - yamaa schema-complexity review.
#
# The reference derivation (adadas.r) builds one row per selected QS record,
# then appends 222 LOCF records for ACTOT at planned visits with no collected
# record (admiral::derive_locf_records over a 4-row expected-observations
# tribble). The schema cannot generate those planned rows itself (REQ-0040/
# REQ-0041), so they arrive as a checked-in planning relation,
# data/mapping/plan.csv (222 slots, verified against the reference LOCF slots),
# alongside the 4-row analysis-window lookup the R program spells as a tribble.
#
# Row templates: `collected` (one row per selected QS record) and `planned`
# (one row per missing ACTOT visit slot). Everything shared across the two
# templates is derived once at column level.

schema_version: "1.0"

domain: ADADAS

keys: [STUDYID, USUBJID, PARAMCD, AVISIT, ADT]

input:
  QS: ../data/sdtm/qs.parquet
  ADSL: ../data/adam/adsl-yamaa.parquet
  PLAN: {path: ../data/mapping/plan.csv, types: {AVISITN: int}}
  AW: {path: ../data/mapping/aw_lookup.csv, types: {AWTARGET: int, AWLO: int, AWHI: int}}

output:
  path: ../data/adam/adadas-yamaa.parquet
  columns: [STUDYID, SITEID, SITEGR1, USUBJID, TRTSDT, TRTEDT, TRTP, TRTPN,
    AGE, AGEGR1, AGEGR1N, RACE, RACEN, SEX, ITTFL, EFFFL, COMP24FL,
    AVISIT, AVISITN, VISIT, VISITNUM, ADY, ADT, PARAM, PARAMCD, PARAMN,
    AVAL, BASE, CHG, PCHG, ABLFL, ANL01FL, DTYPE, AWRANGE, AWTARGET,
    AWTDIFF, AWLO, AWHI, AWU, QSSEQ]

intermediates:
  - id: ADSL_LOOKUP
    dataset: ADSL
    key: [USUBJID]

  - id: AW_LOOKUP
    dataset: AW
    key: [AVISIT]

columns:
  # ---- row-phase working columns (values differ by template) ----
  - name: ROWSRC
    type: int
    label: Rowsrc (helper)

  - name: USUBJID
    type: str
    label: Unique Subject Identifier

  - name: PARAMCD
    type: str
    label: Parameter Code

  - name: ADT_RAW
    type: date
    label: Adt Raw (helper)

  - name: PLAN_AVISIT
    type: str
    label: Planned Analysis Visit (helper)

  - name: ABLFL
    type: str
    label: Baseline Record Flag

  - name: VISIT_RAW
    type: str
    label: Visit Raw (helper)

  - name: VISITNUM_RAW
    type: float
    label: Visitnum Raw (helper)

  - name: QSSEQ_RAW
    type: float
    label: Qsseq Raw (helper)

  - name: AVAL_RAW
    type: float
    label: Aval Raw (helper)

  # ---- shared derivations (including missing values on planned rows) ----
  - name: TRTSDT
    type: date
    label: Date of First Exposure to Treatment
    derivation: {source: ADSL_LOOKUP.TRTSDT}

  - name: ADY_RAW
    type: float
    label: Ady Raw (helper)
    derivation:
      study_day: {date: ADT_RAW, reference: TRTSDT}

  - name: AVISIT
    type: str
    label: Analysis Visit
    derivation:
      case:
        - when: "ROWSRC = 1"
          then: {source: PLAN_AVISIT}
        - otherwise:
            cut:
              source: ADY_RAW
              breaks: [1, 84, 140]
              labels: ["Baseline", "Week 8", "Week 16", "Week 24"]
              right: true

  # ---- ADSL predecessor pass-through (cross-dataset predecessor) ----
  - name: STUDYID
    type: str
    label: Study Identifier
    derivation: {source: ADSL_LOOKUP.STUDYID}

  - name: SITEID
    type: str
    label: Study Site Identifier
    derivation: {source: ADSL_LOOKUP.SITEID}

  - name: SITEGR1
    type: str
    label: Pooled Site Group 1
    derivation: {source: ADSL_LOOKUP.SITEGR1}

  - name: TRTEDT
    type: date
    label: Date of Last Exposure to Treatment
    derivation: {source: ADSL_LOOKUP.TRTEDT}

  - name: TRTP
    type: str
    label: Planned Treatment
    derivation: {source: ADSL_LOOKUP.TRT01P}

  - name: TRTPN
    type: float
    label: Planned Treatment (N)
    derivation: {source: ADSL_LOOKUP.TRT01PN}

  - name: AGE
    type: float
    label: Age
    derivation: {source: ADSL_LOOKUP.AGE}

  - name: AGEGR1
    type: str
    label: Pooled Age Group 1
    derivation: {source: ADSL_LOOKUP.AGEGR1}

  - name: AGEGR1N
    type: float
    label: Pooled Age Group 1 (N)
    derivation: {source: ADSL_LOOKUP.AGEGR1N}

  - name: RACE
    type: str
    label: Race
    derivation: {source: ADSL_LOOKUP.RACE}

  - name: RACEN
    type: float
    label: Race (N)
    derivation: {source: ADSL_LOOKUP.RACEN}

  - name: SEX
    type: str
    label: Sex
    derivation: {source: ADSL_LOOKUP.SEX}

  - name: ITTFL
    type: str
    label: Intent-To-Treat Population Flag
    derivation: {source: ADSL_LOOKUP.ITTFL}

  - name: EFFFL
    type: str
    label: Efficacy Population Flag
    derivation: {source: ADSL_LOOKUP.EFFFL}

  - name: COMP24FL
    type: str
    label: Completers of Week 24 Population Flag
    derivation: {source: ADSL_LOOKUP.COMP24FL}

  # ---- parameter / visit metadata ----
  - name: PARAM
    type: str
    label: Parameter
    derivation:
      mapping:
        source: PARAMCD
        dict:
          ACITM01: "Word Recall Task"
          ACITM02: "Naming Objects And Fingers (Refer To 5 C"
          ACITM03: "Delayed Word Recall"
          ACITM04: "Commands"
          ACITM05: "Constructional Praxis"
          ACITM06: "Ideational Praxis"
          ACITM07: "Orientation"
          ACITM08: "Word Recognition"
          ACITM09: "Attention/Visual Search Task"
          ACITM10: "Maze Solution"
          ACITM11: "Spoken Language Ability"
          ACITM12: "Comprehension Of Spoken Language"
          ACITM13: "Word Finding Difficulty In Spontaneous S"
          ACITM14: "Recall Of Test Instructions"
          ACTOT: "Adas-Cog(11) Subscore"

  - name: PARAMN
    type: float
    label: Parameter (N)
    derivation:
      mapping:
        source: PARAMCD
        dict:
          ACITM01: 1.0
          ACITM02: 2.0
          ACITM03: 3.0
          ACITM04: 4.0
          ACITM05: 5.0
          ACITM06: 6.0
          ACITM07: 7.0
          ACITM08: 8.0
          ACITM09: 9.0
          ACITM10: 10.0
          ACITM11: 11.0
          ACITM12: 12.0
          ACITM13: 13.0
          ACITM14: 14.0
          ACTOT: 15.0

  - name: AVISITN
    type: float
    label: Analysis Visit (N)
    derivation:
      mapping:
        source: AVISIT
        dict:
          Baseline: 0.0
          "Week 8": 8.0
          "Week 16": 16.0
          "Week 24": 24.0

  # ---- analysis-window metadata (4-row lookup tribble) ----
  - name: AWRANGE
    type: str
    label: Analysis Window Valid Relative Range
    derivation: {source: AW_LOOKUP.AWRANGE}

  - name: AWTARGET
    type: float
    label: Analysis Window Target
    derivation: {source: AW_LOOKUP.AWTARGET}

  - name: AWLO
    type: float
    label: Analysis Window Beginning Timepoint
    derivation: {source: AW_LOOKUP.AWLO}

  - name: AWHI
    type: float
    label: Analysis Window Ending Timepoint
    derivation: {source: AW_LOOKUP.AWHI}

  - name: AWU
    type: str
    label: Analysis Window Unit
    derivation: {literal: "DAYS"}

  # ---- record-selection flag (extreme record per subject/param/visit) ----
  - name: AWTDIFF_RAW
    type: float
    label: Awtdiff Raw (helper)
    derivation:
      compute: {expr: "ABS(AWTARGET - ADY_RAW)"}

  - name: DIFF_RAW
    type: float
    label: Diff Raw (helper)
    derivation:
      compute: {expr: "AWTARGET - ADY_RAW"}

  - name: ANL01_RN
    type: int
    label: Anl01 Rn (helper)
    derivation:
      row_number:
        window:
          group_by: [USUBJID, PARAMCD, AVISIT]
          order_by: [AWTDIFF_RAW, DIFF_RAW]
          filter: "ROWSRC = 0"

  - name: ANL01FL
    type: str
    label: Analysis Flag 01
    derivation:
      case:
        - when: "ROWSRC = 1"
          then: {literal: "Y"}
        - when: "ANL01_RN = 1"
          then: {literal: "Y"}
        - otherwise: {literal: null}

  # ---- LOCF carry: planned rows take the closest earlier analysis record ----
  # REQ-0061 pattern: a separate completed source column that is null for
  # non-analysis records, searched by previous_non_missing. (A window filter
  # cannot express this: previous_non_missing ignores window.filter, see
  # finding F-NEW2.)
  - name: ADT_Y
    type: date
    label: Adt Y (helper)
    derivation:
      case:
        - when: "ANL01FL = 'Y'"
          then: {source: ADT_RAW}
        - otherwise: {literal: null}

  - name: ADY_Y
    type: float
    label: Ady Y (helper)
    derivation:
      case:
        - when: "ANL01FL = 'Y'"
          then: {source: ADY_RAW}
        - otherwise: {literal: null}

  - name: VISIT_Y
    type: str
    label: Visit Y (helper)
    derivation:
      case:
        - when: "ANL01FL = 'Y'"
          then: {source: VISIT_RAW}
        - otherwise: {literal: null}

  - name: VISITNUM_Y
    type: float
    label: Visitnum Y (helper)
    derivation:
      case:
        - when: "ANL01FL = 'Y'"
          then: {source: VISITNUM_RAW}
        - otherwise: {literal: null}

  - name: QSSEQ_Y
    type: float
    label: Qsseq Y (helper)
    derivation:
      case:
        - when: "ANL01FL = 'Y'"
          then: {source: QSSEQ_RAW}
        - otherwise: {literal: null}

  - name: AVAL_Y
    type: float
    label: Aval Y (helper)
    derivation:
      case:
        - when: "ANL01FL = 'Y'"
          then: {source: AVAL_RAW}
        - otherwise: {literal: null}

  - name: ADT
    type: date
    label: Analysis Date
    derivation:
      case:
        - when: "ROWSRC = 1"
          then:
            previous_non_missing:
              source: ADT_Y
              window:
                group_by: [STUDYID, USUBJID, PARAMCD]
                order_by: [AVISITN]
        - otherwise: {source: ADT_RAW}

  - name: ADY
    type: float
    label: Analysis Relative Day
    derivation:
      case:
        - when: "ROWSRC = 1"
          then:
            previous_non_missing:
              source: ADY_Y
              window:
                group_by: [STUDYID, USUBJID, PARAMCD]
                order_by: [AVISITN]
        - otherwise: {source: ADY_RAW}

  - name: VISIT
    type: str
    label: Visit Name
    derivation:
      case:
        - when: "ROWSRC = 1"
          then:
            previous_non_missing:
              source: VISIT_Y
              window:
                group_by: [STUDYID, USUBJID, PARAMCD]
                order_by: [AVISITN]
        - otherwise: {source: VISIT_RAW}

  - name: VISITNUM
    type: float
    label: Visit Number
    derivation:
      case:
        - when: "ROWSRC = 1"
          then:
            previous_non_missing:
              source: VISITNUM_Y
              window:
                group_by: [STUDYID, USUBJID, PARAMCD]
                order_by: [AVISITN]
        - otherwise: {source: VISITNUM_RAW}

  - name: QSSEQ
    type: float
    label: Sequence Number
    derivation:
      case:
        - when: "ROWSRC = 1"
          then:
            previous_non_missing:
              source: QSSEQ_Y
              window:
                group_by: [STUDYID, USUBJID, PARAMCD]
                order_by: [AVISITN]
        - otherwise: {source: QSSEQ_RAW}

  - name: AVAL
    type: float
    label: Analysis Value
    derivation:
      case:
        - when: "ROWSRC = 1"
          then:
            previous_non_missing:
              source: AVAL_Y
              window:
                group_by: [STUDYID, USUBJID, PARAMCD]
                order_by: [AVISITN]
        - otherwise: {source: AVAL_RAW}

  # ---- window distance on the final (possibly carried) study day ----
  - name: AWTDIFF
    type: float
    label: Analysis Window Diff from Target
    derivation:
      compute: {expr: "ABS(AWTARGET - ADY)"}

  # ---- baseline and change from baseline ----
  - name: BASE
    type: float
    label: Baseline Value
    derivation:
      aggregate:
        expr: "ONLY(AVAL)"
        filter: "ABLFL = 'Y'"
        group_by: [STUDYID, USUBJID, PARAMCD]

  - name: CHG
    type: float
    label: Change from Baseline
    derivation:
      case:
        - when: "ABLFL IS NULL"
          then:
            compute: {expr: "AVAL - BASE"}
        - otherwise: {literal: null}

  - name: PCHG
    type: float
    label: Percent Change from Baseline
    derivation:
      case:
        - when: "ABLFL IS NULL"
          then:
            # admiral::derive_var_pchg parenthesization: (AVAL-BASE)/BASE*100
            compute: {expr: "(AVAL - BASE) / NULLIF(BASE, 0) * 100"}
        - otherwise: {literal: null}

  - name: DTYPE
    type: str
    label: Derivation Type
    derivation:
      case:
        - when: "ROWSRC = 1"
          then: {literal: "LOCF"}
        - otherwise: {literal: null}

rows:
  - id: collected
    dataset: QS
    filter: "QS.QSTESTCD IN ('ACITM01', 'ACITM02', 'ACITM03', 'ACITM04', 'ACITM05', 'ACITM06', 'ACITM07', 'ACITM08', 'ACITM09', 'ACITM10', 'ACITM11', 'ACITM12', 'ACITM13', 'ACITM14', 'ACTOT')"
    derivations:
      ROWSRC: {literal: 0}
      USUBJID: QS.USUBJID
      PARAMCD: QS.QSTESTCD
      ADT_RAW:
        to_date: {source: QS.QSDTC}
      PLAN_AVISIT: {literal: null}
      ABLFL: QS.QSBLFL
      VISIT_RAW: QS.VISIT
      VISITNUM_RAW: QS.VISITNUM
      QSSEQ_RAW: QS.QSSEQ
      AVAL_RAW: QS.QSSTRESN

  - id: planned
    dataset: PLAN
    derivations:
      ROWSRC: {literal: 1}
      USUBJID: PLAN.USUBJID
      PARAMCD: PLAN.PARAMCD
      ADT_RAW: {literal: null}
      PLAN_AVISIT: PLAN.AVISIT
      ABLFL: {literal: null}
      VISIT_RAW: {literal: null}
      VISITNUM_RAW: {literal: null}
      QSSEQ_RAW: {literal: null}
      AVAL_RAW: {literal: null}

verifications:
  - row_count: {min: 12463, max: 12463}
